onset	duration	value	sample	trial_idx	val	del	is_cued	rev_opts	del_pres_displaytime	del_pres_triggertime	del_pres_triggercode	val_pres_displaytime	val_pres_triggertime	val_pres_triggercode	choice_displaytime	choice_triggertime	choice_triggercode	choice	choice_time	viv_displaytime	viv_triggertime	viv_triggercode	viv	viv_time
39.51806640625	0.0	80	80933	1	97	700	1	0	900826.0364291	900826.038215	80	900829.2398481	900829.2406675	40	900832.3681163	900832.3691264	100	imm	900835.2997188	900835.8211691	900835.8223856	120.0	2.0	900839.9573542
42.72119140625	0.0	40	87493	1	97	700	1	0	900826.0364291	900826.038215	80	900829.2398481	900829.2406675	40	900832.3681163	900832.3691264	100	imm	900835.2997188	900835.8211691	900835.8223856	120.0	2.0	900839.9573542
45.849609375	0.0	100	93900	1	97	700	1	0	900826.0364291	900826.038215	80	900829.2398481	900829.2406675	40	900832.3681163	900832.3691264	100	imm	900835.2997188	900835.8211691	900835.8223856	120.0	2.0	900839.9573542
49.302734375	0.0	120	100972	1	97	700	1	0	900826.0364291	900826.038215	80	900829.2398481	900829.2406675	40	900832.3681163	900832.3691264	100	imm	900835.2997188	900835.8211691	900835.8223856	120.0	2.0	900839.9573542
55.70263671875	0.0	80	114079	2	83	460	0	1	900842.2214558	900842.2221464	80	900845.3999989	900845.4006222	40	900848.8900711	900848.8908619	100	imm	900849.7243795	nan	nan	nan	nan	nan
58.88134765625	0.0	40	120589	2	83	460	0	1	900842.2214558	900842.2221464	80	900845.3999989	900845.4006222	40	900848.8900711	900848.8908619	100	imm	900849.7243795	nan	nan	nan	nan	nan
62.37060546875	0.0	100	127735	2	83	460	0	1	900842.2214558	900842.2221464	80	900845.3999989	900845.4006222	40	900848.8900711	900848.8908619	100	imm	900849.7243795	nan	nan	nan	nan	nan
66.189453125	0.0	80	135556	3	53	240	0	0	900852.7087199	900852.7096071	80	900855.7458345	900855.7465719	40	900859.1295875	900859.1304687	100	imm	900860.0842547	nan	nan	nan	nan	nan
69.2265625	0.0	40	141776	3	53	240	0	0	900852.7087199	900852.7096071	80	900855.7458345	900855.7465719	40	900859.1295875	900859.1304687	100	imm	900860.0842547	nan	nan	nan	nan	nan
72.6103515625	0.0	100	148706	3	53	240	0	0	900852.7087199	900852.7096071	80	900855.7458345	900855.7465719	40	900859.1295875	900859.1304687	100	imm	900860.0842547	nan	nan	nan	nan	nan
76.2197265625	0.0	80	156098	4	63	300	1	1	900862.7393883	900862.740144	80	900865.9584541	900865.9589597	40	900869.2466872	900869.2474995	100	imm	900871.9641152	900872.4745256	900872.4750638	120.0	3.0	900873.7718076
79.43896484375	0.0	40	162691	4	63	300	1	1	900862.7393883	900862.740144	80	900865.9584541	900865.9589597	40	900869.2466872	900869.2474995	100	imm	900871.9641152	900872.4745256	900872.4750638	120.0	3.0	900873.7718076
82.72705078125	0.0	100	169425	4	63	300	1	1	900862.7393883	900862.740144	80	900865.9584541	900865.9589597	40	900869.2466872	900869.2474995	100	imm	900871.9641152	900872.4745256	900872.4750638	120.0	3.0	900873.7718076
85.955078125	0.0	120	176036	4	63	300	1	1	900862.7393883	900862.740144	80	900865.9584541	900865.9589597	40	900869.2466872	900869.2474995	100	imm	900871.9641152	900872.4745256	900872.4750638	120.0	3.0	900873.7718076
89.74755859375	0.0	80	183803	5	83	180	1	1	900876.2671664	900876.2696551	80	900879.4930956	900879.4956073	40	900883.0063526	900883.0093275	100	imm	900884.1571304	900884.6733067	900884.6746641	120.0	3.0	900888.3890551
92.97314453125	0.0	40	190409	5	83	180	1	1	900876.2671664	900876.2696551	80	900879.4930956	900879.4956073	40	900883.0063526	900883.0093275	100	imm	900884.1571304	900884.6733067	900884.6746641	120.0	3.0	900888.3890551
96.486328125	0.0	100	197604	5	83	180	1	1	900876.2671664	900876.2696551	80	900879.4930956	900879.4956073	40	900883.0063526	900883.0093275	100	imm	900884.1571304	900884.6733067	900884.6746641	120.0	3.0	900888.3890551
98.1533203125	0.0	120	201018	5	83	180	1	1	900876.2671664	900876.2696551	80	900879.4930956	900879.4956073	40	900883.0063526	900883.0093275	100	imm	900884.1571304	900884.6733067	900884.6746641	120.0	3.0	900888.3890551
104.041015625	0.0	80	213076	6	100	300	1	1	900890.5608103	900890.5614799	80	900893.9192334	900893.9198969	40	900897.2663415	900897.2667812	100	del	900898.0760519	900898.5909606	900898.5916851	120.0	4.0	900900.3794607
107.3994140625	0.0	40	219954	6	100	300	1	1	900890.5608103	900890.5614799	80	900893.9192334	900893.9198969	40	900897.2663415	900897.2667812	100	del	900898.0760519	900898.5909606	900898.5916851	120.0	4.0	900900.3794607
110.74609375	0.0	100	226808	6	100	300	1	1	900890.5608103	900890.5614799	80	900893.9192334	900893.9198969	40	900897.2663415	900897.2667812	100	del	900898.0760519	900898.5909606	900898.5916851	120.0	4.0	900900.3794607
112.07080078125	0.0	120	229521	6	100	300	1	1	900890.5608103	900890.5614799	80	900893.9192334	900893.9198969	40	900897.2663415	900897.2667812	100	del	900898.0760519	900898.5909606	900898.5916851	120.0	4.0	900900.3794607
116.14697265625	0.0	80	237869	7	97	300	1	0	900902.6673461	900902.667816	80	900906.0242369	900906.0247452	40	900909.3733826	900909.3738924	100	imm	900910.5088824	900911.0199747	900911.0218737	120.0	2.0	900912.2997094
119.50390625	0.0	40	244744	7	97	300	1	0	900902.6673461	900902.667816	80	900906.0242369	900906.0247452	40	900909.3733826	900909.3738924	100	imm	900910.5088824	900911.0199747	900911.0218737	120.0	2.0	900912.2997094
122.85302734375	0.0	100	251603	7	97	300	1	0	900902.6673461	900902.667816	80	900906.0242369	900906.0247452	40	900909.3733826	900909.3738924	100	imm	900910.5088824	900911.0199747	900911.0218737	120.0	2.0	900912.2997094
124.49951171875	0.0	120	254975	7	97	300	1	0	900902.6673461	900902.667816	80	900906.0242369	900906.0247452	40	900909.3733826	900909.3738924	100	imm	900910.5088824	900911.0199747	900911.0218737	120.0	2.0	900912.2997094
127.88671875	0.0	80	261912	8	83	700	1	1	900914.4074536	900914.4079375	80	900917.4789803	900917.4794742	40	900920.994183	900920.9946532	100	del	900924.9962923	900925.510508	900925.5110331	120.0	4.0	900926.3559245
130.9580078125	0.0	40	268202	8	83	700	1	1	900914.4074536	900914.4079375	80	900917.4789803	900917.4794742	40	900920.994183	900920.9946532	100	del	900924.9962923	900925.510508	900925.5110331	120.0	4.0	900926.3559245
134.47314453125	0.0	100	275401	8	83	700	1	1	900914.4074536	900914.4079375	80	900917.4789803	900917.4794742	40	900920.994183	900920.9946532	100	del	900924.9962923	900925.510508	900925.5110331	120.0	4.0	900926.3559245
138.98974609375	0.0	120	284651	8	83	700	1	1	900914.4074536	900914.4079375	80	900917.4789803	900917.4794742	40	900920.994183	900920.9946532	100	del	900924.9962923	900925.510508	900925.5110331	120.0	4.0	900926.3559245
141.9384765625	0.0	80	290690	9	100	460	0	0	900928.459512	900928.4600209	80	900931.4835312	900931.4841366	40	900934.778091	900934.778579	100	imm	900935.8933694	nan	nan	nan	nan	nan
144.962890625	0.0	40	296884	9	100	460	0	0	900928.459512	900928.4600209	80	900931.4835312	900931.4841366	40	900934.778091	900934.778579	100	imm	900935.8933694	nan	nan	nan	nan	nan
148.2568359375	0.0	100	303630	9	100	460	0	0	900928.459512	900928.4600209	80	900931.4835312	900931.4841366	40	900934.778091	900934.778579	100	imm	900935.8933694	nan	nan	nan	nan	nan
152.3330078125	0.0	80	311978	10	70	30	0	1	900938.8541398	900938.8545872	80	900942.1963172	900942.1968042	40	900945.3052631	900945.3057891	100	del	900946.8433653	nan	nan	nan	nan	nan
155.6748046875	0.0	40	318822	10	70	30	0	1	900938.8541398	900938.8545872	80	900942.1963172	900942.1968042	40	900945.3052631	900945.3057891	100	del	900946.8433653	nan	nan	nan	nan	nan
158.78369140625	0.0	100	325189	10	70	30	0	1	900938.8541398	900938.8545872	80	900942.1963172	900942.1968042	40	900945.3052631	900945.3057891	100	del	900946.8433653	nan	nan	nan	nan	nan
163.0244140625	0.0	80	333874	11	73	700	1	1	900949.5459065	900949.5463793	80	900952.7844364	900952.7848998	40	900956.288498	900956.2890418	100	imm	900958.2122461	900958.7257248	900958.7263051	120.0	3.0	900959.9811095
166.2626953125	0.0	40	340506	11	73	700	1	1	900949.5459065	900949.5463793	80	900952.7844364	900952.7848998	40	900956.288498	900956.2890418	100	imm	900958.2122461	900958.7257248	900958.7263051	120.0	3.0	900959.9811095
169.7666015625	0.0	100	347682	11	73	700	1	1	900949.5459065	900949.5463793	80	900952.7844364	900952.7848998	40	900956.288498	900956.2890418	100	imm	900958.2122461	900958.7257248	900958.7263051	120.0	3.0	900959.9811095
172.2041015625	0.0	120	352674	11	73	700	1	1	900949.5459065	900949.5463793	80	900952.7844364	900952.7848998	40	900956.288498	900956.2890418	100	imm	900958.2122461	900958.7257248	900958.7263051	120.0	3.0	900959.9811095
175.5546875	0.0	80	359536	12	50	180	1	1	900962.0765585	900962.0770622	80	900965.5118111	900965.5123321	40	900968.847709	900968.8483839	100	imm	900972.0599368	900972.5719777	900972.5724502	120.0	3.0	900974.4276748
178.98974609375	0.0	40	366571	12	50	180	1	1	900962.0765585	900962.0770622	80	900965.5118111	900965.5123321	40	900968.847709	900968.8483839	100	imm	900972.0599368	900972.5719777	900972.5724502	120.0	3.0	900974.4276748
182.32568359375	0.0	100	373403	12	50	180	1	1	900962.0765585	900962.0770622	80	900965.5118111	900965.5123321	40	900968.847709	900968.8483839	100	imm	900972.0599368	900972.5719777	900972.5724502	120.0	3.0	900974.4276748
186.0498046875	0.0	120	381030	12	50	180	1	1	900962.0765585	900962.0770622	80	900965.5118111	900965.5123321	40	900968.847709	900968.8483839	100	imm	900972.0599368	900972.5719777	900972.5724502	120.0	3.0	900974.4276748
190.109375	0.0	80	389344	13	50	1070	0	1	900976.6316875	900976.6322096	80	900979.7346864	900979.7352044	40	900982.9619708	900982.9626462	100	imm	900984.3081499	nan	nan	nan	nan	nan
193.21240234375	0.0	40	395699	13	50	1070	0	1	900976.6316875	900976.6322096	80	900979.7346864	900979.7352044	40	900982.9619708	900982.9626462	100	imm	900984.3081499	nan	nan	nan	nan	nan
196.43994140625	0.0	100	402309	13	50	1070	0	1	900976.6316875	900976.6322096	80	900979.7346864	900979.7352044	40	900982.9619708	900982.9626462	100	imm	900984.3081499	nan	nan	nan	nan	nan
200.5439453125	0.0	80	410714	14	90	180	1	1	900987.0664515	900987.0669434	80	900990.1343071	900990.1348017	40	900993.4420502	900993.4425861	100	imm	900994.4197896	900994.9321	900994.9325607	120.0	3.0	901003.8441333
203.61181640625	0.0	40	416997	14	90	180	1	1	900987.0664515	900987.0669434	80	900990.1343071	900990.1348017	40	900993.4420502	900993.4425861	100	imm	900994.4197896	900994.9321	900994.9325607	120.0	3.0	901003.8441333
206.91943359375	0.0	100	423771	14	90	180	1	1	900987.0664515	900987.0669434	80	900990.1343071	900990.1348017	40	900993.4420502	900993.4425861	100	imm	900994.4197896	900994.9321	900994.9325607	120.0	3.0	901003.8441333
208.40966796875	0.0	120	426823	14	90	180	1	1	900987.0664515	900987.0669434	80	900990.1343071	900990.1348017	40	900993.4420502	900993.4425861	100	imm	900994.4197896	900994.9321	900994.9325607	120.0	3.0	901003.8441333
219.4501953125	0.0	80	449434	15	100	1070	0	1	901005.9732474	901005.9737477	80	901009.1729952	901009.1734352	40	901012.4779303	901012.4784887	100	imm	901013.3236972	nan	nan	nan	nan	nan
222.64990234375	0.0	40	455987	15	100	1070	0	1	901005.9732474	901005.9737477	80	901009.1729952	901009.1734352	40	901012.4779303	901012.4784887	100	imm	901013.3236972	nan	nan	nan	nan	nan
225.955078125	0.0	100	462756	15	100	1070	0	1	901005.9732474	901005.9737477	80	901009.1729952	901009.1734352	40	901012.4779303	901012.4784887	100	imm	901013.3236972	nan	nan	nan	nan	nan
229.44482421875	0.0	80	469903	16	100	180	1	1	901015.968169	901015.9686441	80	901019.1211459	901019.1215814	40	901022.4432751	901022.4438044	100	del	901023.0677423	901023.5816888	901023.5821849	120.0	4.0	901025.1168553
232.59814453125	0.0	40	476361	16	100	180	1	1	901015.968169	901015.9686441	80	901019.1211459	901019.1215814	40	901022.4432751	901022.4438044	100	del	901023.0677423	901023.5816888	901023.5821849	120.0	4.0	901025.1168553
235.919921875	0.0	100	483164	16	100	180	1	1	901015.968169	901015.9686441	80	901019.1211459	901019.1215814	40	901022.4432751	901022.4438044	100	del	901023.0677423	901023.5816888	901023.5821849	120.0	4.0	901025.1168553
237.05859375	0.0	120	485496	16	100	180	1	1	901015.968169	901015.9686441	80	901019.1211459	901019.1215814	40	901022.4432751	901022.4438044	100	del	901023.0677423	901023.5816888	901023.5821849	120.0	4.0	901025.1168553
240.74462890625	0.0	80	493045	17	80	110	0	1	901027.2682564	901027.2687654	80	901030.6881627	901030.688674	40	901034.1940087	901034.1944797	100	imm	901037.5727427	nan	nan	nan	nan	nan
244.16455078125	0.0	40	500049	17	80	110	0	1	901027.2682564	901027.2687654	80	901030.6881627	901030.688674	40	901034.1940087	901034.1944797	100	imm	901037.5727427	nan	nan	nan	nan	nan
247.67041015625	0.0	100	507229	17	80	110	0	1	901027.2682564	901027.2687654	80	901030.6881627	901030.688674	40	901034.1940087	901034.1944797	100	imm	901037.5727427	nan	nan	nan	nan	nan
253.93408203125	0.0	80	520057	18	93	110	0	1	901040.4577721	901040.4583451	80	901043.6377114	901043.6382171	40	901046.9437827	901046.9442451	100	del	901048.7485567	nan	nan	nan	nan	nan
257.11376953125	0.0	40	526569	18	93	110	0	1	901040.4577721	901040.4583451	80	901043.6377114	901043.6382171	40	901046.9437827	901046.9442451	100	del	901048.7485567	nan	nan	nan	nan	nan
260.419921875	0.0	100	533340	18	93	110	0	1	901040.4577721	901040.4583451	80	901043.6377114	901043.6382171	40	901046.9437827	901046.9442451	100	del	901048.7485567	nan	nan	nan	nan	nan
264.79638671875	0.0	80	542303	19	73	1070	0	1	901051.3205433	901051.3211452	80	901054.7814143	901054.7819237	40	901058.2349449	901058.2353835	100	na	901067.1552843	nan	nan	nan	nan	nan
268.25732421875	0.0	40	549391	19	73	1070	0	1	901051.3205433	901051.3211452	80	901054.7814143	901054.7819237	40	901058.2349449	901058.2353835	100	na	901067.1552843	nan	nan	nan	nan	nan
271.7109375	0.0	100	556464	19	73	1070	0	1	901051.3205433	901051.3211452	80	901054.7814143	901054.7819237	40	901058.2349449	901058.2353835	100	na	901067.1552843	nan	nan	nan	nan	nan
283.5576171875	0.0	80	580726	20	97	180	1	0	901070.0823414	901070.0828092	80	901073.2210836	901073.2215196	40	901076.5253736	901076.5255857	100	del	901077.9167052	901078.429599	901078.4301091	120.0	3.0	901080.4278407
286.6962890625	0.0	40	587154	20	97	180	1	0	901070.0823414	901070.0828092	80	901073.2210836	901073.2215196	40	901076.5253736	901076.5255857	100	del	901077.9167052	901078.429599	901078.4301091	120.0	3.0	901080.4278407
290.0009765625	0.0	100	593922	20	97	180	1	0	901070.0823414	901070.0828092	80	901073.2210836	901073.2215196	40	901076.5253736	901076.5255857	100	del	901077.9167052	901078.429599	901078.4301091	120.0	3.0	901080.4278407
291.90478515625	0.0	120	597821	20	97	180	1	0	901070.0823414	901070.0828092	80	901073.2210836	901073.2215196	40	901076.5253736	901076.5255857	100	del	901077.9167052	901078.429599	901078.4301091	120.0	3.0	901080.4278407
318.6083984375	0.0	80	652510	21	57	1070	0	1	901105.1339214	901105.134385	80	901108.35422	901108.3546699	40	901111.5242485	901111.5247922	100	imm	901113.3409439	nan	nan	nan	nan	nan
321.82861328125	0.0	40	659105	21	57	1070	0	1	901105.1339214	901105.134385	80	901108.35422	901108.3546699	40	901111.5242485	901111.5247922	100	imm	901113.3409439	nan	nan	nan	nan	nan
324.99853515625	0.0	100	665597	21	57	1070	0	1	901105.1339214	901105.134385	80	901108.35422	901108.3546699	40	901111.5242485	901111.5247922	100	imm	901113.3409439	nan	nan	nan	nan	nan
329.4150390625	0.0	80	674642	22	100	700	1	1	901115.9408291	901115.9413	80	901119.0376873	901119.0381878	40	901122.2622417	901122.2626933	100	imm	901123.4758375	901123.9896233	901123.9901125	120.0	3.0	901133.315066
332.51171875	0.0	40	680984	22	100	700	1	1	901115.9408291	901115.9413	80	901119.0376873	901119.0381878	40	901122.2622417	901122.2626933	100	imm	901123.4758375	901123.9896233	901123.9901125	120.0	3.0	901133.315066
335.736328125	0.0	100	687588	22	100	700	1	1	901115.9408291	901115.9413	80	901119.0376873	901119.0381878	40	901122.2622417	901122.2626933	100	imm	901123.4758375	901123.9896233	901123.9901125	120.0	3.0	901133.315066
337.4638671875	0.0	120	691126	22	100	700	1	1	901115.9408291	901115.9413	80	901119.0376873	901119.0381878	40	901122.2622417	901122.2626933	100	imm	901123.4758375	901123.9896233	901123.9901125	120.0	3.0	901133.315066
348.8515625	0.0	80	714448	23	87	460	0	1	901135.3773489	901135.3779338	80	901138.6840441	901138.6844496	40	901141.9328878	901141.9333692	100	imm	901144.1551212	nan	nan	nan	nan	nan
352.15771484375	0.0	40	721219	23	87	460	0	1	901135.3773489	901135.3779338	80	901138.6840441	901138.6844496	40	901141.9328878	901141.9333692	100	imm	901144.1551212	nan	nan	nan	nan	nan
355.40673828125	0.0	100	727873	23	87	460	0	1	901135.3773489	901135.3779338	80	901138.6840441	901138.6844496	40	901141.9328878	901141.9333692	100	imm	901144.1551212	nan	nan	nan	nan	nan
360.49560546875	0.0	80	738295	24	63	110	0	1	901147.021893	901147.0223565	80	901150.3800853	901150.3805255	40	901153.71286	901153.7133716	100	na	901156.5231125	nan	nan	nan	nan	nan
363.853515625	0.0	40	745172	24	63	110	0	1	901147.021893	901147.0223565	80	901150.3800853	901150.3805255	40	901153.71286	901153.7133716	100	na	901156.5231125	nan	nan	nan	nan	nan
367.18603515625	0.0	100	751997	24	63	110	0	1	901147.021893	901147.0223565	80	901150.3800853	901150.3805255	40	901153.71286	901153.7133716	100	na	901156.5231125	nan	nan	nan	nan	nan
372.53271484375	0.0	80	762947	25	77	700	1	0	901159.0596259	901159.0601311	80	901162.1016182	901162.1021042	40	901165.2756547	901165.2761879	100	imm	901166.3550966	901166.8686642	901166.8691449	120.0	3.0	901169.979514
375.57470703125	0.0	40	769177	25	77	700	1	0	901159.0596259	901159.0601311	80	901162.1016182	901162.1021042	40	901165.2756547	901165.2761879	100	imm	901166.3550966	901166.8686642	901166.8691449	120.0	3.0	901169.979514
378.7490234375	0.0	100	775678	25	77	700	1	0	901159.0596259	901159.0601311	80	901162.1016182	901162.1021042	40	901165.2756547	901165.2761879	100	imm	901166.3550966	901166.8686642	901166.8691449	120.0	3.0	901169.979514
380.341796875	0.0	120	778940	25	77	700	1	0	901159.0596259	901159.0601311	80	901162.1016182	901162.1021042	40	901165.2756547	901165.2761879	100	imm	901166.3550966	901166.8686642	901166.8691449	120.0	3.0	901169.979514
385.734375	0.0	80	789984	26	80	300	1	1	901172.2613394	901172.261833	80	901175.5961416	901175.5966542	40	901178.813342	901178.8138782	100	imm	901187.1632975	901187.6733486	901187.6737203	120.0	2.0	901190.7560706
389.06884765625	0.0	40	796813	26	80	300	1	1	901172.2613394	901172.261833	80	901175.5961416	901175.5966542	40	901178.813342	901178.8138782	100	imm	901187.1632975	901187.6733486	901187.6737203	120.0	2.0	901190.7560706
392.2861328125	0.0	100	803402	26	80	300	1	1	901172.2613394	901172.261833	80	901175.5961416	901175.5966542	40	901178.813342	901178.8138782	100	imm	901187.1632975	901187.6733486	901187.6737203	120.0	2.0	901190.7560706
401.14599609375	0.0	120	821547	26	80	300	1	1	901172.2613394	901172.261833	80	901175.5961416	901175.5966542	40	901178.813342	901178.8138782	100	imm	901187.1632975	901187.6733486	901187.6737203	120.0	2.0	901190.7560706
406.65478515625	0.0	80	832829	27	63	30	0	0	901193.1825005	901193.1829229	80	901196.5467113	901196.546906	40	901200.0440305	901200.0445468	100	del	901201.2124524	nan	nan	nan	nan	nan
410.01953125	0.0	40	839720	27	63	30	0	0	901193.1825005	901193.1829229	80	901196.5467113	901196.546906	40	901200.0440305	901200.0445468	100	del	901201.2124524	nan	nan	nan	nan	nan
413.51611328125	0.0	100	846881	27	63	30	0	0	901193.1825005	901193.1829229	80	901196.5467113	901196.546906	40	901200.0440305	901200.0445468	100	del	901201.2124524	nan	nan	nan	nan	nan
417.46826171875	0.0	80	854975	28	73	110	0	0	901203.9959183	901203.9963905	80	901207.1661719	901207.1666474	40	901210.2321178	901210.2326589	100	imm	901213.0832377	nan	nan	nan	nan	nan
420.63818359375	0.0	40	861467	28	73	110	0	0	901203.9959183	901203.9963905	80	901207.1661719	901207.1666474	40	901210.2321178	901210.2326589	100	imm	901213.0832377	nan	nan	nan	nan	nan
423.7041015625	0.0	100	867746	28	73	110	0	0	901203.9959183	901203.9963905	80	901207.1661719	901207.1666474	40	901210.2321178	901210.2326589	100	imm	901213.0832377	nan	nan	nan	nan	nan
429.37939453125	0.0	80	879369	29	60	30	0	0	901215.9077029	901215.9082065	80	901219.3051316	901219.305588	40	901222.530085	901222.530512	100	del	901223.5627438	nan	nan	nan	nan	nan
432.77685546875	0.0	40	886327	29	60	30	0	0	901215.9077029	901215.9082065	80	901219.3051316	901219.305588	40	901222.530085	901222.530512	100	del	901223.5627438	nan	nan	nan	nan	nan
436.001953125	0.0	100	892932	29	60	30	0	0	901215.9077029	901215.9082065	80	901219.3051316	901219.305588	40	901222.530085	901222.530512	100	del	901223.5627438	nan	nan	nan	nan	nan
439.59912109375	0.0	80	900299	30	60	110	0	1	901226.1273179	901226.1277781	80	901229.2687476	901229.2692149	40	901232.3588427	901232.3593409	100	imm	901233.5795361	nan	nan	nan	nan	nan
442.740234375	0.0	40	906732	30	60	110	0	1	901226.1273179	901226.1277781	80	901229.2687476	901229.2692149	40	901232.3588427	901232.3593409	100	imm	901233.5795361	nan	nan	nan	nan	nan
445.830078125	0.0	100	913060	30	60	110	0	1	901226.1273179	901226.1277781	80	901229.2687476	901229.2692149	40	901232.3588427	901232.3593409	100	imm	901233.5795361	nan	nan	nan	nan	nan
449.70947265625	0.0	80	921005	31	60	460	0	1	901236.2382196	901236.2387161	80	901239.4666563	901239.4671656	40	901242.7434619	901242.7443335	100	imm	901245.708166	nan	nan	nan	nan	nan
452.93798828125	0.0	40	927617	31	60	460	0	1	901236.2382196	901236.2387161	80	901239.4666563	901239.4671656	40	901242.7434619	901242.7443335	100	imm	901245.708166	nan	nan	nan	nan	nan
456.21435546875	0.0	100	934327	31	60	460	0	1	901236.2382196	901236.2387161	80	901239.4666563	901239.4671656	40	901242.7434619	901242.7443335	100	imm	901245.708166	nan	nan	nan	nan	nan
461.92529296875	0.0	80	946023	32	53	60	1	1	901248.4541397	901248.4546706	80	901251.8999718	901251.9004322	40	901255.1724983	901255.1730285	100	del	901256.8115288	901257.3255601	901257.3260343	120.0	4.0	901258.1791593
465.37109375	0.0	40	953080	32	53	60	1	1	901248.4541397	901248.4546706	80	901251.8999718	901251.9004322	40	901255.1724983	901255.1730285	100	del	901256.8115288	901257.3255601	901257.3260343	120.0	4.0	901258.1791593
468.6435546875	0.0	100	959782	32	53	60	1	1	901248.4541397	901248.4546706	80	901251.8999718	901251.9004322	40	901255.1724983	901255.1730285	100	del	901256.8115288	901257.3255601	901257.3260343	120.0	4.0	901258.1791593
470.79638671875	0.0	120	964191	32	53	60	1	1	901248.4541397	901248.4546706	80	901251.8999718	901251.9004322	40	901255.1724983	901255.1730285	100	del	901256.8115288	901257.3255601	901257.3260343	120.0	4.0	901258.1791593
474.1357421875	0.0	80	971030	33	93	60	1	0	901260.6650274	901260.6654879	80	901263.9914458	901263.9918985	40	901267.483786	901267.4842729	100	del	901269.2108979	901269.7229708	901269.7234184	120.0	4.0	901270.6044678
477.4619140625	0.0	40	977842	33	93	60	1	0	901260.6650274	901260.6654879	80	901263.9914458	901263.9918985	40	901267.483786	901267.4842729	100	del	901269.2108979	901269.7229708	901269.7234184	120.0	4.0	901270.6044678
480.95458984375	0.0	100	984995	33	93	60	1	0	901260.6650274	901260.6654879	80	901263.9914458	901263.9918985	40	901267.483786	901267.4842729	100	del	901269.2108979	901269.7229708	901269.7234184	120.0	4.0	901270.6044678
483.193359375	0.0	120	989580	33	93	60	1	0	901260.6650274	901260.6654879	80	901263.9914458	901263.9918985	40	901267.483786	901267.4842729	100	del	901269.2108979	901269.7229708	901269.7234184	120.0	4.0	901270.6044678
486.2109375	0.0	80	995760	34	63	60	1	0	901272.7405579	901272.7410222	80	901276.0861881	901276.0866476	40	901279.2440581	901279.2446173	100	imm	901280.6764995	901281.1881572	901281.1886578	120.0	4.0	901282.0188363
489.556640625	0.0	40	1002612	34	63	60	1	0	901272.7405579	901272.7410222	80	901276.0861881	901276.0866476	40	901279.2440581	901279.2446173	100	imm	901280.6764995	901281.1881572	901281.1886578	120.0	4.0	901282.0188363
492.71435546875	0.0	100	1009079	34	63	60	1	0	901272.7405579	901272.7410222	80	901276.0861881	901276.0866476	40	901279.2440581	901279.2446173	100	imm	901280.6764995	901281.1881572	901281.1886578	120.0	4.0	901282.0188363
494.658203125	0.0	120	1013060	34	63	60	1	0	901272.7405579	901272.7410222	80	901276.0861881	901276.0866476	40	901279.2440581	901279.2446173	100	imm	901280.6764995	901281.1881572	901281.1886578	120.0	4.0	901282.0188363
497.84228515625	0.0	80	1019581	35	67	60	1	0	901284.3719813	901284.372444	80	901287.728374	901287.7289153	40	901290.7752165	901290.7758203	100	del	901292.9392137	901293.4524514	901293.4529176	120.0	4.0	901294.2426288
501.1982421875	0.0	40	1026454	35	67	60	1	0	901284.3719813	901284.372444	80	901287.728374	901287.7289153	40	901290.7752165	901290.7758203	100	del	901292.9392137	901293.4524514	901293.4529176	120.0	4.0	901294.2426288
504.2451171875	0.0	100	1032694	35	67	60	1	0	901284.3719813	901284.372444	80	901287.728374	901287.7289153	40	901290.7752165	901290.7758203	100	del	901292.9392137	901293.4524514	901293.4529176	120.0	4.0	901294.2426288
506.92236328125	0.0	120	1038177	35	67	60	1	0	901284.3719813	901284.372444	80	901287.728374	901287.7289153	40	901290.7752165	901290.7758203	100	del	901292.9392137	901293.4524514	901293.4529176	120.0	4.0	901294.2426288
509.8583984375	0.0	80	1044190	36	57	110	0	1	901296.3884512	901296.3889105	80	901299.5085417	901299.5090575	40	901302.8552507	901302.8556541	100	imm	901304.0268094	nan	nan	nan	nan	nan
512.978515625	0.0	40	1050580	36	57	110	0	1	901296.3884512	901296.3889105	80	901299.5085417	901299.5090575	40	901302.8552507	901302.8556541	100	imm	901304.0268094	nan	nan	nan	nan	nan
516.3251953125	0.0	100	1057434	36	57	110	0	1	901296.3884512	901296.3889105	80	901299.5085417	901299.5090575	40	901302.8552507	901302.8556541	100	imm	901304.0268094	nan	nan	nan	nan	nan
520.43603515625	0.0	80	1065853	37	70	240	0	0	901306.9665927	901306.9671174	80	901310.1465238	901310.1469835	40	901313.5499999	901313.5504599	100	imm	901314.1950612	nan	nan	nan	nan	nan
523.6162109375	0.0	40	1072366	37	70	240	0	0	901306.9665927	901306.9671174	80	901310.1465238	901310.1469835	40	901313.5499999	901313.5504599	100	imm	901314.1950612	nan	nan	nan	nan	nan
527.01953125	0.0	100	1079336	37	70	240	0	0	901306.9665927	901306.9671174	80	901310.1465238	901310.1469835	40	901313.5499999	901313.5504599	100	imm	901314.1950612	nan	nan	nan	nan	nan
530.521484375	0.0	80	1086508	38	63	180	1	1	901317.0520286	901317.0525436	80	901320.0632258	901320.0637216	40	901323.3785143	901323.3790027	100	imm	901326.2191355	901326.7331433	901326.7336133	120.0	3.0	901328.3311978
533.53271484375	0.0	40	1092675	38	63	180	1	1	901317.0520286	901317.0525436	80	901320.0632258	901320.0637216	40	901323.3785143	901323.3790027	100	imm	901326.2191355	901326.7331433	901326.7336133	120.0	3.0	901328.3311978
536.84765625	0.0	100	1099464	38	63	180	1	1	901317.0520286	901317.0525436	80	901320.0632258	901320.0637216	40	901323.3785143	901323.3790027	100	imm	901326.2191355	901326.7331433	901326.7336133	120.0	3.0	901328.3311978
540.2021484375	0.0	120	1106334	38	63	180	1	1	901317.0520286	901317.0525436	80	901320.0632258	901320.0637216	40	901323.3785143	901323.3790027	100	imm	901326.2191355	901326.7331433	901326.7336133	120.0	3.0	901328.3311978
544.009765625	0.0	80	1114132	39	80	460	0	0	901330.5406408	901330.5411095	80	901334.0066844	901334.0071516	40	901337.0200084	901337.0205337	100	na	901337.8432704	nan	nan	nan	nan	nan
547.4755859375	0.0	40	1121230	39	80	460	0	0	901330.5406408	901330.5411095	80	901334.0066844	901334.0071516	40	901337.0200084	901337.0205337	100	na	901337.8432704	nan	nan	nan	nan	nan
550.48876953125	0.0	100	1127401	39	80	460	0	0	901330.5406408	901330.5411095	80	901334.0066844	901334.0071516	40	901337.0200084	901337.0205337	100	na	901337.8432704	nan	nan	nan	nan	nan
554.0615234375	0.0	80	1134718	40	83	60	1	1	901340.5925501	901340.5930437	80	901343.8122475	901343.8127121	40	901347.0558286	901347.0565714	100	del	901348.0912223	901348.6049992	901348.605527	120.0	4.0	901351.170781
557.28076171875	0.0	40	1141311	40	83	60	1	1	901340.5925501	901340.5930437	80	901343.8122475	901343.8127121	40	901347.0558286	901347.0565714	100	del	901348.0912223	901348.6049992	901348.605527	120.0	4.0	901351.170781
560.5244140625	0.0	100	1147954	40	83	60	1	1	901340.5925501	901340.5930437	80	901343.8122475	901343.8127121	40	901347.0558286	901347.0565714	100	del	901348.0912223	901348.6049992	901348.605527	120.0	4.0	901351.170781
562.07373046875	0.0	120	1151127	40	83	60	1	1	901340.5925501	901340.5930437	80	901343.8122475	901343.8127121	40	901347.0558286	901347.0565714	100	del	901348.0912223	901348.6049992	901348.605527	120.0	4.0	901351.170781
611.013671875	0.0	80	1251356	41	90	240	0	0	901397.5464204	901397.546927	80	901400.715329	901400.7158368	40	901404.1208059	901404.121313	100	imm	901404.7623858	nan	nan	nan	nan	nan
614.1826171875	0.0	40	1257846	41	90	240	0	0	901397.5464204	901397.546927	80	901400.715329	901400.7158368	40	901404.1208059	901404.121313	100	imm	901404.7623858	nan	nan	nan	nan	nan
617.587890625	0.0	100	1264820	41	90	240	0	0	901397.5464204	901397.546927	80	901400.715329	901400.7158368	40	901404.1208059	901404.121313	100	imm	901404.7623858	nan	nan	nan	nan	nan
620.98388671875	0.0	80	1271775	42	87	110	0	1	901407.5167453	901407.5171957	80	901410.5420343	901410.5423976	40	901413.6428445	901413.6433609	100	imm	901415.554827	nan	nan	nan	nan	nan
624.00927734375	0.0	40	1277971	42	87	110	0	1	901407.5167453	901407.5171957	80	901410.5420343	901410.5423976	40	901413.6428445	901413.6433609	100	imm	901415.554827	nan	nan	nan	nan	nan
627.10986328125	0.0	100	1284321	42	87	110	0	1	901407.5167453	901407.5171957	80	901410.5420343	901410.5423976	40	901413.6428445	901413.6433609	100	imm	901415.554827	nan	nan	nan	nan	nan
631.900390625	0.0	80	1294132	43	50	240	0	0	901418.4336473	901418.4341067	80	901421.6794408	901421.6799746	40	901424.7694105	901424.7699225	100	imm	901428.3865072	nan	nan	nan	nan	nan
635.14599609375	0.0	40	1300779	43	50	240	0	0	901418.4336473	901418.4341067	80	901421.6794408	901421.6799746	40	901424.7694105	901424.7699225	100	imm	901428.3865072	nan	nan	nan	nan	nan
638.236328125	0.0	100	1307108	43	50	240	0	0	901418.4336473	901418.4341067	80	901421.6794408	901421.6799746	40	901424.7694105	901424.7699225	100	imm	901428.3865072	nan	nan	nan	nan	nan
644.541015625	0.0	80	1320020	44	93	700	1	1	901431.0745624	901431.075065	80	901434.387175	901434.3875939	40	901437.4968264	901437.4972748	100	imm	901440.6509174	901441.1651696	901441.1656379	120.0	2.0	901442.7322277
647.853515625	0.0	40	1326804	44	93	700	1	1	901431.0745624	901431.075065	80	901434.387175	901434.3875939	40	901437.4968264	901437.4972748	100	imm	901440.6509174	901441.1651696	901441.1656379	120.0	2.0	901442.7322277
650.96337890625	0.0	100	1333173	44	93	700	1	1	901431.0745624	901431.075065	80	901434.387175	901434.3875939	40	901437.4968264	901437.4972748	100	imm	901440.6509174	901441.1651696	901441.1656379	120.0	2.0	901442.7322277
654.63134765625	0.0	120	1340685	44	93	700	1	1	901431.0745624	901431.075065	80	901434.387175	901434.3875939	40	901437.4968264	901437.4972748	100	imm	901440.6509174	901441.1651696	901441.1656379	120.0	2.0	901442.7322277
658.5830078125	0.0	80	1348778	45	57	30	0	1	901445.116629	901445.1170576	80	901448.2456269	901448.2461523	40	901451.7174329	901451.7178837	100	del	901455.4910288	nan	nan	nan	nan	nan
661.7119140625	0.0	40	1355186	45	57	30	0	1	901445.116629	901445.1170576	80	901448.2456269	901448.2461523	40	901451.7174329	901451.7178837	100	del	901455.4910288	nan	nan	nan	nan	nan
665.18359375	0.0	100	1362296	45	57	30	0	1	901445.116629	901445.1170576	80	901448.2456269	901448.2461523	40	901451.7174329	901451.7178837	100	del	901455.4910288	nan	nan	nan	nan	nan
671.609375	0.0	80	1375456	46	97	60	1	1	901458.1435069	901458.1440243	80	901461.5341128	901461.5346244	40	901464.6418295	901464.6423423	100	del	901465.6664398	901466.1762368	901466.1765592	120.0	3.0	901469.9004141
675.0	0.0	40	1382400	46	97	60	1	1	901458.1435069	901458.1440243	80	901461.5341128	901461.5346244	40	901464.6418295	901464.6423423	100	del	901465.6664398	901466.1762368	901466.1765592	120.0	3.0	901469.9004141
678.107421875	0.0	100	1388764	46	97	60	1	1	901458.1435069	901458.1440243	80	901461.5341128	901461.5346244	40	901464.6418295	901464.6423423	100	del	901465.6664398	901466.1762368	901466.1765592	120.0	3.0	901469.9004141
679.6416015625	0.0	120	1391906	46	97	60	1	1	901458.1435069	901458.1440243	80	901461.5341128	901461.5346244	40	901464.6418295	901464.6423423	100	del	901465.6664398	901466.1762368	901466.1765592	120.0	3.0	901469.9004141
685.525390625	0.0	80	1403956	47	53	110	0	0	901472.0599299	901472.0603992	80	901475.1128772	901475.1133364	40	901478.414402	901478.4148319	100	imm	901479.9467394	nan	nan	nan	nan	nan
688.578125	0.0	40	1410208	47	53	110	0	0	901472.0599299	901472.0603992	80	901475.1128772	901475.1133364	40	901478.414402	901478.4148319	100	imm	901479.9467394	nan	nan	nan	nan	nan
691.8798828125	0.0	100	1416970	47	53	110	0	0	901472.0599299	901472.0603992	80	901475.1128772	901475.1133364	40	901478.414402	901478.4148319	100	imm	901479.9467394	nan	nan	nan	nan	nan
696.27294921875	0.0	80	1425967	48	80	30	0	0	901482.8075654	901482.808072	80	901486.0890426	901486.0894797	40	901489.3091495	901489.3093885	100	del	901489.8827642	nan	nan	nan	nan	nan
699.55419921875	0.0	40	1432687	48	80	30	0	0	901482.8075654	901482.808072	80	901486.0890426	901486.0894797	40	901489.3091495	901489.3093885	100	del	901489.8827642	nan	nan	nan	nan	nan
702.7744140625	0.0	100	1439282	48	80	30	0	0	901482.8075654	901482.808072	80	901486.0890426	901486.0894797	40	901489.3091495	901489.3093885	100	del	901489.8827642	nan	nan	nan	nan	nan
706.18603515625	0.0	80	1446269	49	70	60	1	0	901492.7211082	901492.7216133	80	901496.0531925	901496.0536741	40	901499.4060109	901499.4064761	100	del	901500.4028226	901500.9161141	901500.9166166	120.0	3.0	901502.6742212
709.51806640625	0.0	40	1453093	49	70	60	1	0	901492.7211082	901492.7216133	80	901496.0531925	901496.0536741	40	901499.4060109	901499.4064761	100	del	901500.4028226	901500.9161141	901500.9166166	120.0	3.0	901502.6742212
712.87060546875	0.0	100	1459959	49	70	60	1	0	901492.7211082	901492.7216133	80	901496.0531925	901496.0536741	40	901499.4060109	901499.4064761	100	del	901500.4028226	901500.9161141	901500.9166166	120.0	3.0	901502.6742212
714.380859375	0.0	120	1463052	49	70	60	1	0	901492.7211082	901492.7216133	80	901496.0531925	901496.0536741	40	901499.4060109	901499.4064761	100	del	901500.4028226	901500.9161141	901500.9166166	120.0	3.0	901502.6742212
718.474609375	0.0	80	1471436	50	97	110	0	1	901505.0100025	901505.0104969	80	901508.4898416	901508.4902888	40	901511.6078682	901511.608335	100	na	901512.3383513	nan	nan	nan	nan	nan
721.95458984375	0.0	40	1478563	50	97	110	0	1	901505.0100025	901505.0104969	80	901508.4898416	901508.4902888	40	901511.6078682	901511.608335	100	na	901512.3383513	nan	nan	nan	nan	nan
725.072265625	0.0	100	1484948	50	97	110	0	1	901505.0100025	901505.0104969	80	901508.4898416	901508.4902888	40	901511.6078682	901511.608335	100	na	901512.3383513	nan	nan	nan	nan	nan
728.67578125	0.0	80	1492328	51	57	460	0	0	901515.2112792	901515.2117395	80	901518.335583	901518.3358725	40	901521.4083938	901521.4089034	100	imm	901522.6582816	nan	nan	nan	nan	nan
731.7998046875	0.0	40	1498726	51	57	460	0	0	901515.2112792	901515.2117395	80	901518.335583	901518.3358725	40	901521.4083938	901521.4089034	100	imm	901522.6582816	nan	nan	nan	nan	nan
734.87255859375	0.0	100	1505019	51	57	460	0	0	901515.2112792	901515.2117395	80	901518.335583	901518.3358725	40	901521.4083938	901521.4089034	100	imm	901522.6582816	nan	nan	nan	nan	nan
738.94384765625	0.0	80	1513357	52	93	180	1	1	901525.4795498	901525.4800563	80	901528.7131499	901528.7136483	40	901531.956786	901531.9573144	100	del	901532.6666021	901533.1795326	901533.1800897	120.0	4.0	901534.5464281
742.17724609375	0.0	40	1519979	52	93	180	1	1	901525.4795498	901525.4800563	80	901528.7131499	901528.7136483	40	901531.956786	901531.9573144	100	del	901532.6666021	901533.1795326	901533.1800897	120.0	4.0	901534.5464281
745.4208984375	0.0	100	1526622	52	93	180	1	1	901525.4795498	901525.4800563	80	901528.7131499	901528.7136483	40	901531.956786	901531.9573144	100	del	901532.6666021	901533.1795326	901533.1800897	120.0	4.0	901534.5464281
746.6435546875	0.0	120	1529126	52	93	180	1	1	901525.4795498	901525.4800563	80	901528.7131499	901528.7136483	40	901531.956786	901531.9573144	100	del	901532.6666021	901533.1795326	901533.1800897	120.0	4.0	901534.5464281
750.357421875	0.0	80	1536732	53	97	14	1	1	901536.8934545	901536.8939862	80	901540.2864627	901540.2868471	40	901543.47436	901543.4748782	100	del	901545.2346288	901545.7488395	901545.7493675	120.0	3.0	901553.498466
753.75048828125	0.0	40	1543681	53	97	14	1	1	901536.8934545	901536.8939862	80	901540.2864627	901540.2868471	40	901543.47436	901543.4748782	100	del	901545.2346288	901545.7488395	901545.7493675	120.0	3.0	901553.498466
756.93798828125	0.0	100	1550209	53	97	14	1	1	901536.8934545	901536.8939862	80	901540.2864627	901540.2868471	40	901543.47436	901543.4748782	100	del	901545.2346288	901545.7488395	901545.7493675	120.0	3.0	901553.498466
759.21240234375	0.0	120	1554867	53	97	14	1	1	901536.8934545	901536.8939862	80	901540.2864627	901540.2868471	40	901543.47436	901543.4748782	100	del	901545.2346288	901545.7488395	901545.7493675	120.0	3.0	901553.498466
769.30810546875	0.0	80	1575543	54	80	180	1	1	901555.8447239	901555.8453777	80	901559.0606908	901559.0613795	40	901562.4958645	901562.4963855	100	na	901564.2902143	901564.8036715	901564.8041238	120.0	1.0	901567.1230666
772.5244140625	0.0	40	1582130	54	80	180	1	1	901555.8447239	901555.8453777	80	901559.0606908	901559.0613795	40	901562.4958645	901562.4963855	100	na	901564.2902143	901564.8036715	901564.8041238	120.0	1.0	901567.1230666
775.958984375	0.0	100	1589164	54	80	180	1	1	901555.8447239	901555.8453777	80	901559.0606908	901559.0613795	40	901562.4958645	901562.4963855	100	na	901564.2902143	901564.8036715	901564.8041238	120.0	1.0	901567.1230666
778.26708984375	0.0	120	1593891	54	80	180	1	1	901555.8447239	901555.8453777	80	901559.0606908	901559.0613795	40	901562.4958645	901562.4963855	100	na	901564.2902143	901564.8036715	901564.8041238	120.0	1.0	901567.1230666
783.01904296875	0.0	80	1603623	55	67	14	1	0	901569.5559724	901569.5564506	80	901572.6918855	901572.6924395	40	901576.01276	901576.0132738	100	del	901578.0341708	901578.5447175	901578.5450973	120.0	3.0	901579.9860964
786.15478515625	0.0	40	1610045	55	67	14	1	0	901569.5559724	901569.5564506	80	901572.6918855	901572.6924395	40	901576.01276	901576.0132738	100	del	901578.0341708	901578.5447175	901578.5450973	120.0	3.0	901579.9860964
789.4755859375	0.0	100	1616846	55	67	14	1	0	901569.5559724	901569.5564506	80	901572.6918855	901572.6924395	40	901576.01276	901576.0132738	100	del	901578.0341708	901578.5447175	901578.5450973	120.0	3.0	901579.9860964
792.00732421875	0.0	120	1622031	55	67	14	1	0	901569.5559724	901569.5564506	80	901572.6918855	901572.6924395	40	901576.01276	901576.0132738	100	del	901578.0341708	901578.5447175	901578.5450973	120.0	3.0	901579.9860964
795.75732421875	0.0	80	1629711	56	90	30	0	1	901582.2944058	901582.294881	80	901585.5726118	901585.5730603	40	901589.0222757	901589.0227386	100	del	901589.6582521	nan	nan	nan	nan	nan
799.03515625	0.0	40	1636424	56	90	30	0	1	901582.2944058	901582.294881	80	901585.5726118	901585.5730603	40	901589.0222757	901589.0227386	100	del	901589.6582521	nan	nan	nan	nan	nan
802.48486328125	0.0	100	1643489	56	90	30	0	1	901582.2944058	901582.294881	80	901585.5726118	901585.5730603	40	901589.0222757	901589.0227386	100	del	901589.6582521	nan	nan	nan	nan	nan
805.77099609375	0.0	80	1650219	57	77	1070	0	1	901592.308499	901592.3089859	80	901595.4757304	901595.4762442	40	901598.5491086	901598.5495983	100	imm	901599.2906983	nan	nan	nan	nan	nan
808.93798828125	0.0	40	1656705	57	77	1070	0	1	901592.308499	901592.3089859	80	901595.4757304	901595.4762442	40	901598.5491086	901598.5495983	100	imm	901599.2906983	nan	nan	nan	nan	nan
812.01171875	0.0	100	1663000	57	77	1070	0	1	901592.308499	901592.3089859	80	901595.4757304	901595.4762442	40	901598.5491086	901598.5495983	100	imm	901599.2906983	nan	nan	nan	nan	nan
815.74169921875	0.0	80	1670639	58	77	240	0	1	901602.2792208	901602.2797248	80	901605.6099159	901605.6103347	40	901608.8634428	901608.8640008	100	imm	901611.2758306	nan	nan	nan	nan	nan
819.072265625	0.0	40	1677460	58	77	240	0	1	901602.2792208	901602.2797248	80	901605.6099159	901605.6103347	40	901608.8634428	901608.8640008	100	imm	901611.2758306	nan	nan	nan	nan	nan
822.32568359375	0.0	100	1684123	58	77	240	0	1	901602.2792208	901602.2797248	80	901605.6099159	901605.6103347	40	901608.8634428	901608.8640008	100	imm	901611.2758306	nan	nan	nan	nan	nan
827.57568359375	0.0	80	1694875	59	83	1070	0	1	901614.1139224	901614.1143896	80	901617.3939818	901617.3944467	40	901620.731011	901620.7315087	100	na	901622.0747725	nan	nan	nan	nan	nan
830.85595703125	0.0	40	1701593	59	83	1070	0	1	901614.1139224	901614.1143896	80	901617.3939818	901617.3944467	40	901620.731011	901620.7315087	100	na	901622.0747725	nan	nan	nan	nan	nan
834.19287109375	0.0	100	1708427	59	83	1070	0	1	901614.1139224	901614.1143896	80	901617.3939818	901617.3944467	40	901620.731011	901620.7315087	100	na	901622.0747725	nan	nan	nan	nan	nan
838.32861328125	0.0	80	1716897	60	83	110	0	1	901624.8668407	901624.8673403	80	901628.2350733	901628.2355114	40	901631.5105749	901631.5110176	100	imm	901632.8104995	nan	nan	nan	nan	nan
841.69677734375	0.0	40	1723795	60	83	110	0	1	901624.8668407	901624.8673403	80	901628.2350733	901628.2355114	40	901631.5105749	901631.5110176	100	imm	901632.8104995	nan	nan	nan	nan	nan
844.97216796875	0.0	100	1730503	60	83	110	0	1	901624.8668407	901624.8673403	80	901628.2350733	901628.2355114	40	901631.5105749	901631.5110176	100	imm	901632.8104995	nan	nan	nan	nan	nan
917.5654296875	0.0	80	1879174	61	87	1070	0	0	901704.1059007	901704.106336	80	901707.2232002	901707.2237367	40	901710.2898347	901710.2903314	100	imm	901710.7616819	nan	nan	nan	nan	nan
920.68310546875	0.0	40	1885559	61	87	1070	0	0	901704.1059007	901704.106336	80	901707.2232002	901707.2237367	40	901710.2898347	901710.2903314	100	imm	901710.7616819	nan	nan	nan	nan	nan
923.74951171875	0.0	100	1891839	61	87	1070	0	0	901704.1059007	901704.106336	80	901707.2232002	901707.2237367	40	901710.2898347	901710.2903314	100	imm	901710.7616819	nan	nan	nan	nan	nan
926.79541015625	0.0	80	1898077	62	100	60	1	0	901713.3359838	901713.336476	80	901716.3755091	901716.3760385	40	901719.5908014	901719.5912916	100	del	901720.458482	901720.9716216	901720.9721278	120.0	4.0	901722.8497452
929.8349609375	0.0	40	1904302	62	100	60	1	0	901713.3359838	901713.336476	80	901716.3755091	901716.3760385	40	901719.5908014	901719.5912916	100	del	901720.458482	901720.9716216	901720.9721278	120.0	4.0	901722.8497452
933.05029296875	0.0	100	1910887	62	100	60	1	0	901713.3359838	901713.336476	80	901716.3755091	901716.3760385	40	901719.5908014	901719.5912916	100	del	901720.458482	901720.9716216	901720.9721278	120.0	4.0	901722.8497452
934.43115234375	0.0	120	1913715	62	100	60	1	0	901713.3359838	901713.336476	80	901716.3755091	901716.3760385	40	901719.5908014	901719.5912916	100	del	901720.458482	901720.9716216	901720.9721278	120.0	4.0	901722.8497452
938.5498046875	0.0	80	1922150	63	73	60	1	0	901725.0905673	901725.0911157	80	901728.2813729	901728.2817919	40	901731.6766604	901731.6771562	100	del	901732.5304747	901733.0437437	901733.0442393	120.0	4.0	901733.8420125
941.74072265625	0.0	40	1928685	63	73	60	1	0	901725.0905673	901725.0911157	80	901728.2813729	901728.2817919	40	901731.6766604	901731.6771562	100	del	901732.5304747	901733.0437437	901733.0442393	120.0	4.0	901733.8420125
945.1357421875	0.0	100	1935638	63	73	60	1	0	901725.0905673	901725.0911157	80	901728.2813729	901728.2817919	40	901731.6766604	901731.6771562	100	del	901732.5304747	901733.0437437	901733.0442393	120.0	4.0	901733.8420125
946.5029296875	0.0	120	1938438	63	73	60	1	0	901725.0905673	901725.0911157	80	901728.2813729	901728.2817919	40	901731.6766604	901731.6771562	100	del	901732.5304747	901733.0437437	901733.0442393	120.0	4.0	901733.8420125
949.6298828125	0.0	80	1944842	64	93	1070	0	1	901736.1711389	901736.171534	80	901739.5647544	901739.5652073	40	901743.045046	901743.0455606	100	na	901748.4984725	nan	nan	nan	nan	nan
953.0234375	0.0	40	1951792	64	93	1070	0	1	901736.1711389	901736.171534	80	901739.5647544	901739.5652073	40	901743.045046	901743.0455606	100	na	901748.4984725	nan	nan	nan	nan	nan
956.50390625	0.0	100	1958920	64	93	1070	0	1	901736.1711389	901736.171534	80	901739.5647544	901739.5652073	40	901743.045046	901743.0455606	100	na	901748.4984725	nan	nan	nan	nan	nan
964.9609375	0.0	80	1976240	65	70	700	1	1	901751.502242	901751.5027776	80	901754.6069577	901754.6074432	40	901757.6916587	901757.6921238	100	imm	901758.6434137	901759.159283	901759.1598717	120.0	3.0	901764.1216095
968.0654296875	0.0	40	1982598	65	70	700	1	1	901751.502242	901751.5027776	80	901754.6069577	901754.6074432	40	901757.6916587	901757.6921238	100	imm	901758.6434137	901759.159283	901759.1598717	120.0	3.0	901764.1216095
971.14990234375	0.0	100	1988915	65	70	700	1	1	901751.502242	901751.5027776	80	901754.6069577	901754.6074432	40	901757.6916587	901757.6921238	100	imm	901758.6434137	901759.159283	901759.1598717	120.0	3.0	901764.1216095
972.61767578125	0.0	120	1991921	65	70	700	1	1	901751.502242	901751.5027776	80	901754.6069577	901754.6074432	40	901757.6916587	901757.6921238	100	imm	901758.6434137	901759.159283	901759.1598717	120.0	3.0	901764.1216095
979.94189453125	0.0	80	2006921	66	67	110	0	1	901766.4838759	901766.4842046	80	901769.5387449	901769.5391953	40	901772.8143917	901772.8148603	100	imm	901773.5474415	nan	nan	nan	nan	nan
982.9970703125	0.0	40	2013178	66	67	110	0	1	901766.4838759	901766.4842046	80	901769.5387449	901769.5391953	40	901772.8143917	901772.8148603	100	imm	901773.5474415	nan	nan	nan	nan	nan
986.2724609375	0.0	100	2019886	66	67	110	0	1	901766.4838759	901766.4842046	80	901769.5387449	901769.5391953	40	901772.8143917	901772.8148603	100	imm	901773.5474415	nan	nan	nan	nan	nan
989.7890625	0.0	80	2027088	67	77	30	0	1	901776.3309328	901776.331429	80	901779.7699472	901779.7704387	40	901783.0258451	901783.0263292	100	del	901789.2357281	nan	nan	nan	nan	nan
993.22802734375	0.0	40	2034131	67	77	30	0	1	901776.3309328	901776.331429	80	901779.7699472	901779.7704387	40	901783.0258451	901783.0263292	100	del	901789.2357281	nan	nan	nan	nan	nan
996.48388671875	0.0	100	2040799	67	77	30	0	1	901776.3309328	901776.331429	80	901779.7699472	901779.7704387	40	901783.0258451	901783.0263292	100	del	901789.2357281	nan	nan	nan	nan	nan
1005.40771484375	0.0	80	2059075	68	80	60	1	0	901791.9498733	901791.9503986	80	901795.2932027	901795.2936631	40	901798.6769989	901798.6774725	100	del	901799.4337695	901799.9467446	901799.9472165	120.0	4.0	901802.4340096
1008.75048828125	0.0	40	2065921	68	80	60	1	0	901791.9498733	901791.9503986	80	901795.2932027	901795.2936631	40	901798.6769989	901798.6774725	100	del	901799.4337695	901799.9467446	901799.9472165	120.0	4.0	901802.4340096
1012.13427734375	0.0	100	2072851	68	80	60	1	0	901791.9498733	901791.9503986	80	901795.2932027	901795.2936631	40	901798.6769989	901798.6774725	100	del	901799.4337695	901799.9467446	901799.9472165	120.0	4.0	901802.4340096
1013.404296875	0.0	120	2075452	68	80	60	1	0	901791.9498733	901791.9503986	80	901795.2932027	901795.2936631	40	901798.6769989	901798.6774725	100	del	901799.4337695	901799.9467446	901799.9472165	120.0	4.0	901802.4340096
1018.1650390625	0.0	80	2085202	69	80	14	1	1	901804.70788	901804.7083791	80	901807.889202	901807.8896803	40	901810.9770272	901810.977629	100	del	901817.0582874	901817.5683792	901817.5686625	120.0	4.0	901819.8965522
1021.34619140625	0.0	40	2091717	69	80	14	1	1	901804.70788	901804.7083791	80	901807.889202	901807.8896803	40	901810.9770272	901810.977629	100	del	901817.0582874	901817.5683792	901817.5686625	120.0	4.0	901819.8965522
1024.43408203125	0.0	100	2098041	69	80	14	1	1	901804.70788	901804.7083791	80	901807.889202	901807.8896803	40	901810.9770272	901810.977629	100	del	901817.0582874	901817.5683792	901817.5686625	120.0	4.0	901819.8965522
1031.025390625	0.0	120	2111540	69	80	14	1	1	901804.70788	901804.7083791	80	901807.889202	901807.8896803	40	901810.9770272	901810.977629	100	del	901817.0582874	901817.5683792	901817.5686625	120.0	4.0	901819.8965522
1035.6640625	0.0	80	2121040	70	53	30	0	0	901822.2072062	901822.207651	80	901825.3458048	901825.3463634	40	901828.3819612	901828.3824033	100	imm	901829.4342305	nan	nan	nan	nan	nan
1038.802734375	0.0	40	2127468	70	53	30	0	0	901822.2072062	901822.207651	80	901825.3458048	901825.3463634	40	901828.3819612	901828.3824033	100	imm	901829.4342305	nan	nan	nan	nan	nan
1041.8388671875	0.0	100	2133686	70	53	30	0	0	901822.2072062	901822.207651	80	901825.3458048	901825.3463634	40	901828.3819612	901828.3824033	100	imm	901829.4342305	nan	nan	nan	nan	nan
1045.78564453125	0.0	80	2141769	71	67	1070	0	1	901832.3289404	901832.3295571	80	901835.4577602	901835.4582408	40	901838.6921294	901838.6926476	100	del	901839.745461	nan	nan	nan	nan	nan
1048.9140625	0.0	40	2148176	71	67	1070	0	1	901832.3289404	901832.3295571	80	901835.4577602	901835.4582408	40	901838.6921294	901838.6926476	100	del	901839.745461	nan	nan	nan	nan	nan
1052.1484375	0.0	100	2154800	71	67	1070	0	1	901832.3289404	901832.3295571	80	901835.4577602	901835.4582408	40	901838.6921294	901838.6926476	100	del	901839.745461	nan	nan	nan	nan	nan
1056.0634765625	0.0	80	2162818	72	63	240	0	0	901842.6069884	901842.6075251	80	901845.7926696	901845.7930318	40	901849.1746096	901849.1750907	100	imm	901850.7934794	nan	nan	nan	nan	nan
1059.2490234375	0.0	40	2169342	72	63	240	0	0	901842.6069884	901842.6075251	80	901845.7926696	901845.7930318	40	901849.1746096	901849.1750907	100	imm	901850.7934794	nan	nan	nan	nan	nan
1062.630859375	0.0	100	2176268	72	63	240	0	0	901842.6069884	901842.6075251	80	901845.7926696	901845.7930318	40	901849.1746096	901849.1750907	100	imm	901850.7934794	nan	nan	nan	nan	nan
1066.9638671875	0.0	80	2185142	73	57	60	1	0	901853.5076568	901853.508156	80	901856.8561535	901856.8563994	40	901860.223353	901860.2238282	100	imm	901862.1377441	901862.6517138	901862.6521559	120.0	4.0	901863.7055965
1070.31201171875	0.0	40	2191999	73	57	60	1	0	901853.5076568	901853.508156	80	901856.8561535	901856.8563994	40	901860.223353	901860.2238282	100	imm	901862.1377441	901862.6517138	901862.6521559	120.0	4.0	901863.7055965
1073.67919921875	0.0	100	2198895	73	57	60	1	0	901853.5076568	901853.508156	80	901856.8561535	901856.8563994	40	901860.223353	901860.2238282	100	imm	901862.1377441	901862.6517138	901862.6521559	120.0	4.0	901863.7055965
1076.107421875	0.0	120	2203868	73	57	60	1	0	901853.5076568	901853.508156	80	901856.8561535	901856.8563994	40	901860.223353	901860.2238282	100	imm	901862.1377441	901862.6517138	901862.6521559	120.0	4.0	901863.7055965
1079.39892578125	0.0	80	2210609	74	93	460	0	1	901865.9432637	901865.9436319	80	901868.9606182	901868.9610703	40	901872.138624	901872.1390969	100	imm	901873.145964	nan	nan	nan	nan	nan
1082.41650390625	0.0	40	2216789	74	93	460	0	1	901865.9432637	901865.9436319	80	901868.9606182	901868.9610703	40	901872.138624	901872.1390969	100	imm	901873.145964	nan	nan	nan	nan	nan
1085.59423828125	0.0	100	2223297	74	93	460	0	1	901865.9432637	901865.9436319	80	901868.9606182	901868.9610703	40	901872.138624	901872.1390969	100	imm	901873.145964	nan	nan	nan	nan	nan
1089.33154296875	0.0	80	2230951	75	67	460	0	0	901875.8761688	901875.8766925	80	901879.0188043	901879.0192224	40	901882.1311065	901882.1315126	100	imm	901884.521702	nan	nan	nan	nan	nan
1092.47412109375	0.0	40	2237387	75	67	460	0	0	901875.8761688	901875.8766925	80	901879.0188043	901879.0192224	40	901882.1311065	901882.1315126	100	imm	901884.521702	nan	nan	nan	nan	nan
1095.58642578125	0.0	100	2243761	75	67	460	0	0	901875.8761688	901875.8766925	80	901879.0188043	901879.0192224	40	901882.1311065	901882.1315126	100	imm	901884.521702	nan	nan	nan	nan	nan
1100.90625	0.0	80	2254656	76	77	14	1	1	901887.4508295	901887.4513193	80	901890.6743342	901890.6748467	40	901894.1313122	901894.132603	100	del	901894.8752928	901895.3907883	901895.3913303	120.0	4.0	901897.089957
1104.12939453125	0.0	40	2261257	76	77	14	1	1	901887.4508295	901887.4513193	80	901890.6743342	901890.6748467	40	901894.1313122	901894.132603	100	del	901894.8752928	901895.3907883	901895.3913303	120.0	4.0	901897.089957
1107.58642578125	0.0	100	2268337	76	77	14	1	1	901887.4508295	901887.4513193	80	901890.6743342	901890.6748467	40	901894.1313122	901894.132603	100	del	901894.8752928	901895.3907883	901895.3913303	120.0	4.0	901897.089957
1108.845703125	0.0	120	2270916	76	77	14	1	1	901887.4508295	901887.4513193	80	901890.6743342	901890.6748467	40	901894.1313122	901894.132603	100	del	901894.8752928	901895.3907883	901895.3913303	120.0	4.0	901897.089957
1112.75634765625	0.0	80	2278925	77	60	180	1	0	901899.3016021	901899.3020613	80	901902.6937891	901902.6942736	40	901905.9015108	901905.9018641	100	imm	901910.3389855	901910.8521749	901910.8527611	120.0	4.0	901912.5614927
1116.1484375	0.0	40	2285872	77	60	180	1	0	901899.3016021	901899.3020613	80	901902.6937891	901902.6942736	40	901905.9015108	901905.9018641	100	imm	901910.3389855	901910.8521749	901910.8527611	120.0	4.0	901912.5614927
1119.35595703125	0.0	100	2292441	77	60	180	1	0	901899.3016021	901899.3020613	80	901902.6937891	901902.6942736	40	901905.9015108	901905.9018641	100	imm	901910.3389855	901910.8521749	901910.8527611	120.0	4.0	901912.5614927
1124.306640625	0.0	120	2302580	77	60	180	1	0	901899.3016021	901899.3020613	80	901902.6937891	901902.6942736	40	901905.9015108	901905.9018641	100	imm	901910.3389855	901910.8521749	901910.8527611	120.0	4.0	901912.5614927
1128.4365234375	0.0	80	2311038	78	73	180	1	0	901914.9820921	901914.9826193	80	901918.36679	901918.3672328	40	901921.5711643	901921.5716588	100	imm	901922.2258471	901922.7366407	901922.7370167	120.0	2.0	901922.7372024
1131.8212890625	0.0	40	2317970	78	73	180	1	0	901914.9820921	901914.9826193	80	901918.36679	901918.3672328	40	901921.5711643	901921.5716588	100	imm	901922.2258471	901922.7366407	901922.7370167	120.0	2.0	901922.7372024
1135.025390625	0.0	100	2324532	78	73	180	1	0	901914.9820921	901914.9826193	80	901918.36679	901918.3672328	40	901921.5711643	901921.5716588	100	imm	901922.2258471	901922.7366407	901922.7370167	120.0	2.0	901922.7372024
1136.19091796875	0.0	120	2326919	78	73	180	1	0	901914.9820921	901914.9826193	80	901918.36679	901918.3672328	40	901921.5711643	901921.5716588	100	imm	901922.2258471	901922.7366407	901922.7370167	120.0	2.0	901922.7372024
1138.3271484375	0.0	80	2331294	79	87	300	1	1	901924.8728987	901924.8733606	80	901928.2755601	901928.2760366	40	901931.7606048	901931.761025	100	del	901932.5788872	901933.0927127	901933.0931254	120.0	2.0	901935.7054834
1141.72998046875	0.0	40	2338263	79	87	300	1	1	901924.8728987	901924.8733606	80	901928.2755601	901928.2760366	40	901931.7606048	901931.761025	100	del	901932.5788872	901933.0927127	901933.0931254	120.0	2.0	901935.7054834
1145.21484375	0.0	100	2345400	79	87	300	1	1	901924.8728987	901924.8733606	80	901928.2755601	901928.2760366	40	901931.7606048	901931.761025	100	del	901932.5788872	901933.0927127	901933.0931254	120.0	2.0	901935.7054834
1146.546875	0.0	120	2348128	79	87	300	1	1	901924.8728987	901924.8733606	80	901928.2755601	901928.2760366	40	901931.7606048	901931.761025	100	del	901932.5788872	901933.0927127	901933.0931254	120.0	2.0	901935.7054834
1151.34033203125	0.0	80	2357945	80	50	300	1	1	901937.8862411	901937.886717	80	901941.2295454	901941.2299466	40	901944.4624633	901944.4629705	100	imm	901947.273678	901947.7874578	901947.7879706	120.0	3.0	901950.1137971
1154.68359375	0.0	40	2364792	80	50	300	1	1	901937.8862411	901937.886717	80	901941.2295454	901941.2299466	40	901944.4624633	901944.4629705	100	imm	901947.273678	901947.7874578	901947.7879706	120.0	3.0	901950.1137971
1157.91650390625	0.0	100	2371413	80	50	300	1	1	901937.8862411	901937.886717	80	901941.2295454	901941.2299466	40	901944.4624633	901944.4629705	100	imm	901947.273678	901947.7874578	901947.7879706	120.0	3.0	901950.1137971
1161.2412109375	0.0	120	2378222	80	50	300	1	1	901937.8862411	901937.886717	80	901941.2295454	901941.2299466	40	901944.4624633	901944.4629705	100	imm	901947.273678	901947.7874578	901947.7879706	120.0	3.0	901950.1137971
1237.33056640625	0.0	80	2534053	81	67	300	1	1	902023.8787335	902023.8792377	80	902027.2706996	902027.2711767	40	902030.3679573	902030.368419	100	imm	902032.121994	902032.6314273	902032.6317649	120.0	3.0	902033.7147709
1240.72265625	0.0	40	2541000	81	67	300	1	1	902023.8787335	902023.8792377	80	902027.2706996	902027.2711767	40	902030.3679573	902030.368419	100	imm	902032.121994	902032.6314273	902032.6317649	120.0	3.0	902033.7147709
1243.81982421875	0.0	100	2547343	81	67	300	1	1	902023.8787335	902023.8792377	80	902027.2706996	902027.2711767	40	902030.3679573	902030.368419	100	imm	902032.121994	902032.6314273	902032.6317649	120.0	3.0	902033.7147709
1246.0830078125	0.0	120	2551978	81	67	300	1	1	902023.8787335	902023.8792377	80	902027.2706996	902027.2711767	40	902030.3679573	902030.368419	100	imm	902032.121994	902032.6314273	902032.6317649	120.0	3.0	902033.7147709
1249.61328125	0.0	80	2559208	82	93	300	1	0	902036.1616042	902036.162074	80	902039.6640938	902039.6645349	40	902042.9343612	902042.9348821	100	imm	902044.1146489	902044.6283106	902044.6287919	120.0	3.0	902045.9693808
1253.11572265625	0.0	40	2566381	82	93	300	1	0	902036.1616042	902036.162074	80	902039.6640938	902039.6645349	40	902042.9343612	902042.9348821	100	imm	902044.1146489	902044.6283106	902044.6287919	120.0	3.0	902045.9693808
1256.3857421875	0.0	100	2573078	82	93	300	1	0	902036.1616042	902036.162074	80	902039.6640938	902039.6645349	40	902042.9343612	902042.9348821	100	imm	902044.1146489	902044.6283106	902044.6287919	120.0	3.0	902045.9693808
1258.07958984375	0.0	120	2576547	82	93	300	1	0	902036.1616042	902036.162074	80	902039.6640938	902039.6645349	40	902042.9343612	902042.9348821	100	imm	902044.1146489	902044.6283106	902044.6287919	120.0	3.0	902045.9693808
1261.8779296875	0.0	80	2584326	83	100	110	0	1	902048.4269476	902048.4274347	80	902051.7294149	902051.7298717	40	902054.8199715	902054.8204968	100	del	902056.5216962	nan	nan	nan	nan	nan
1265.1806640625	0.0	40	2591090	83	100	110	0	1	902048.4269476	902048.4274347	80	902051.7294149	902051.7298717	40	902054.8199715	902054.8204968	100	del	902056.5216962	nan	nan	nan	nan	nan
1268.27099609375	0.0	100	2597419	83	100	110	0	1	902048.4269476	902048.4274347	80	902051.7294149	902051.7298717	40	902054.8199715	902054.8204968	100	del	902056.5216962	nan	nan	nan	nan	nan
1272.58935546875	0.0	80	2606263	84	83	14	1	0	902059.1385734	902059.1390638	80	902062.3495893	902062.3500767	40	902065.7374715	902065.7379594	100	del	902067.4812455	902067.9944599	902067.9949869	120.0	4.0	902069.6978313
1275.80029296875	0.0	40	2612839	84	83	14	1	0	902059.1385734	902059.1390638	80	902062.3495893	902062.3500767	40	902065.7374715	902065.7379594	100	del	902067.4812455	902067.9944599	902067.9949869	120.0	4.0	902069.6978313
1279.1884765625	0.0	100	2619778	84	83	14	1	0	902059.1385734	902059.1390638	80	902062.3495893	902062.3500767	40	902065.7374715	902065.7379594	100	del	902067.4812455	902067.9944599	902067.9949869	120.0	4.0	902069.6978313
1281.4453125	0.0	120	2624400	84	83	14	1	0	902059.1385734	902059.1390638	80	902062.3495893	902062.3500767	40	902065.7374715	902065.7379594	100	del	902067.4812455	902067.9944599	902067.9949869	120.0	4.0	902069.6978313
1285.576171875	0.0	80	2632860	85	83	30	0	1	902072.1255071	902072.1258658	80	902075.5278344	902075.5283137	40	902078.7004124	902078.7009043	100	imm	902079.9459446	nan	nan	nan	nan	nan
1288.978515625	0.0	40	2639828	85	83	30	0	1	902072.1255071	902072.1258658	80	902075.5278344	902075.5283137	40	902078.7004124	902078.7009043	100	imm	902079.9459446	nan	nan	nan	nan	nan
1292.15087890625	0.0	100	2646325	85	83	30	0	1	902072.1255071	902072.1258658	80	902075.5278344	902075.5283137	40	902078.7004124	902078.7009043	100	imm	902079.9459446	nan	nan	nan	nan	nan
1296.181640625	0.0	80	2654580	86	60	1070	0	1	902082.731422	902082.7318126	80	902085.7856403	902085.786091	40	902088.8550376	902088.8555448	100	del	902090.5212424	nan	nan	nan	nan	nan
1299.23583984375	0.0	40	2660835	86	60	1070	0	1	902082.731422	902082.7318126	80	902085.7856403	902085.786091	40	902088.8550376	902088.8555448	100	del	902090.5212424	nan	nan	nan	nan	nan
1302.30517578125	0.0	100	2667121	86	60	1070	0	1	902082.731422	902082.7318126	80	902085.7856403	902085.786091	40	902088.8550376	902088.8555448	100	del	902090.5212424	nan	nan	nan	nan	nan
1306.55810546875	0.0	80	2675831	87	70	180	1	0	902093.1077866	902093.1082589	80	902096.453171	902096.4534607	40	902099.7173257	902099.7178652	100	imm	902101.2409664	902101.755671	902101.7560866	120.0	3.0	902103.2658539
1309.9033203125	0.0	40	2682682	87	70	180	1	0	902093.1077866	902093.1082589	80	902096.453171	902096.4534607	40	902099.7173257	902099.7178652	100	imm	902101.2409664	902101.755671	902101.7560866	120.0	3.0	902103.2658539
1313.16748046875	0.0	100	2689367	87	70	180	1	0	902093.1077866	902093.1082589	80	902096.453171	902096.4534607	40	902099.7173257	902099.7178652	100	imm	902101.2409664	902101.755671	902101.7560866	120.0	3.0	902103.2658539
1315.20556640625	0.0	120	2693541	87	70	180	1	0	902093.1077866	902093.1082589	80	902096.453171	902096.4534607	40	902099.7173257	902099.7178652	100	imm	902101.2409664	902101.755671	902101.7560866	120.0	3.0	902103.2658539
1318.826171875	0.0	80	2700956	88	50	700	1	1	902105.3762331	902105.3767154	80	902108.6320943	902108.6325711	40	902111.719621	902111.7201146	100	del	902112.6969644	902113.2071457	902113.2076669	120.0	4.0	902117.0494398
1322.08203125	0.0	40	2707624	88	50	700	1	1	902105.3762331	902105.3767154	80	902108.6320943	902108.6325711	40	902111.719621	902111.7201146	100	del	902112.6969644	902113.2071457	902113.2076669	120.0	4.0	902117.0494398
1325.16943359375	0.0	100	2713947	88	50	700	1	1	902105.3762331	902105.3767154	80	902108.6320943	902108.6325711	40	902111.719621	902111.7201146	100	del	902112.6969644	902113.2071457	902113.2076669	120.0	4.0	902117.0494398
1326.65673828125	0.0	120	2716993	88	50	700	1	1	902105.3762331	902105.3767154	80	902108.6320943	902108.6325711	40	902111.719621	902111.7201146	100	del	902112.6969644	902113.2071457	902113.2076669	120.0	4.0	902117.0494398
1332.54150390625	0.0	80	2729045	89	87	700	1	0	902119.0918148	902119.0923126	80	902122.524941	902122.5253915	40	902125.8194346	902125.8199083	100	na	902128.7692547	902129.2860993	902129.2866577	120.0	2.0	902133.0251052
1335.97412109375	0.0	40	2736075	89	87	700	1	0	902119.0918148	902119.0923126	80	902122.524941	902122.5253915	40	902125.8194346	902125.8199083	100	na	902128.7692547	902129.2860993	902129.2866577	120.0	2.0	902133.0251052
1339.2685546875	0.0	100	2742822	89	87	700	1	0	902119.0918148	902119.0923126	80	902122.524941	902122.5253915	40	902125.8194346	902125.8199083	100	na	902128.7692547	902129.2860993	902129.2866577	120.0	2.0	902133.0251052
1342.7353515625	0.0	120	2749922	89	87	700	1	0	902119.0918148	902119.0923126	80	902122.524941	902122.5253915	40	902125.8194346	902125.8199083	100	na	902128.7692547	902129.2860993	902129.2866577	120.0	2.0	902133.0251052
1348.95556640625	0.0	80	2762661	90	93	30	0	0	902135.5064283	902135.5068808	80	902138.8631677	902138.8636573	40	902142.1677792	902142.1683036	100	del	902144.4409234	nan	nan	nan	nan	nan
1352.31201171875	0.0	40	2769535	90	93	30	0	0	902135.5064283	902135.5068808	80	902138.8631677	902138.8636573	40	902142.1677792	902142.1683036	100	del	902144.4409234	nan	nan	nan	nan	nan
1355.61669921875	0.0	100	2776303	90	93	30	0	0	902135.5064283	902135.5068808	80	902138.8631677	902138.8636573	40	902142.1677792	902142.1683036	100	del	902144.4409234	nan	nan	nan	nan	nan
1360.81640625	0.0	80	2786952	91	67	240	0	1	902147.3674759	902147.3679033	80	902150.8144834	902150.8149245	40	902154.3229327	902154.3234134	100	imm	902155.9054643	nan	nan	nan	nan	nan
1364.26318359375	0.0	40	2794011	91	67	240	0	1	902147.3674759	902147.3679033	80	902150.8144834	902150.8149245	40	902154.3229327	902154.3234134	100	imm	902155.9054643	nan	nan	nan	nan	nan
1367.771484375	0.0	100	2801196	91	67	240	0	1	902147.3674759	902147.3679033	80	902150.8144834	902150.8149245	40	902154.3229327	902154.3234134	100	imm	902155.9054643	nan	nan	nan	nan	nan
1371.87255859375	0.0	80	2809595	92	57	14	1	0	902158.4238031	902158.4242499	80	902161.8640112	902161.8645077	40	902165.1835409	902165.1840213	100	imm	902165.7608204	902166.27573	902166.2762113	120.0	3.0	902168.3610566
1375.3125	0.0	40	2816640	92	57	14	1	0	902158.4238031	902158.4242499	80	902161.8640112	902161.8645077	40	902165.1835409	902165.1840213	100	imm	902165.7608204	902166.27573	902166.2762113	120.0	3.0	902168.3610566
1378.6318359375	0.0	100	2823438	92	57	14	1	0	902158.4238031	902158.4242499	80	902161.8640112	902161.8645077	40	902165.1835409	902165.1840213	100	imm	902165.7608204	902166.27573	902166.2762113	120.0	3.0	902168.3610566
1379.72412109375	0.0	120	2825675	92	57	14	1	0	902158.4238031	902158.4242499	80	902161.8640112	902161.8645077	40	902165.1835409	902165.1840213	100	imm	902165.7608204	902166.27573	902166.2762113	120.0	3.0	902168.3610566
1384.32177734375	0.0	80	2835091	93	100	30	0	0	902170.8738685	902170.8742104	80	902174.1452357	902174.145669	40	902177.3982193	902177.3987205	100	del	902179.3296022	nan	nan	nan	nan	nan
1387.59326171875	0.0	40	2841791	93	100	30	0	0	902170.8738685	902170.8742104	80	902174.1452357	902174.145669	40	902177.3982193	902177.3987205	100	del	902179.3296022	nan	nan	nan	nan	nan
1390.84619140625	0.0	100	2848453	93	100	30	0	0	902170.8738685	902170.8742104	80	902174.1452357	902174.145669	40	902177.3982193	902177.3987205	100	del	902179.3296022	nan	nan	nan	nan	nan
1395.6962890625	0.0	80	2858386	94	77	460	0	0	902182.24825	902182.248722	80	902185.3698222	902185.3703023	40	902188.6323706	902188.6328138	100	imm	902189.8013606	nan	nan	nan	nan	nan
1398.81787109375	0.0	40	2864779	94	77	460	0	0	902182.24825	902182.248722	80	902185.3698222	902185.3703023	40	902188.6323706	902188.6328138	100	imm	902189.8013606	nan	nan	nan	nan	nan
1402.080078125	0.0	100	2871460	94	77	460	0	0	902182.24825	902182.248722	80	902185.3698222	902185.3703023	40	902188.6323706	902188.6328138	100	imm	902189.8013606	nan	nan	nan	nan	nan
1406.21728515625	0.0	80	2879933	95	60	240	0	0	902192.769507	902192.7699745	80	902196.0649168	902196.0653708	40	902199.502545	902199.5031027	100	imm	902200.2333737	nan	nan	nan	nan	nan
1409.5126953125	0.0	40	2886682	95	60	240	0	0	902192.769507	902192.7699745	80	902196.0649168	902196.0653708	40	902199.502545	902199.5031027	100	imm	902200.2333737	nan	nan	nan	nan	nan
1412.9501953125	0.0	100	2893722	95	60	240	0	0	902192.769507	902192.7699745	80	902196.0649168	902196.0653708	40	902199.502545	902199.5031027	100	imm	902200.2333737	nan	nan	nan	nan	nan
1416.568359375	0.0	80	2901132	96	50	110	0	0	902203.1211953	902203.1216718	80	902206.423088	902206.4235729	40	902209.5596227	902209.5600678	100	imm	902210.6095433	nan	nan	nan	nan	nan
1419.87060546875	0.0	40	2907895	96	50	110	0	0	902203.1211953	902203.1216718	80	902206.423088	902206.4235729	40	902209.5596227	902209.5600678	100	imm	902210.6095433	nan	nan	nan	nan	nan
1423.0068359375	0.0	100	2914318	96	50	110	0	0	902203.1211953	902203.1216718	80	902206.423088	902206.4235729	40	902209.5596227	902209.5600678	100	imm	902210.6095433	nan	nan	nan	nan	nan
1426.908203125	0.0	80	2922308	97	87	60	1	0	902213.4609611	902213.4614421	80	902216.5079805	902216.5082007	40	902219.8339996	902219.8345188	100	imm	902221.4735669	902221.9872564	902221.9877071	120.0	4.0	902224.5051715
1429.95556640625	0.0	40	2928549	97	87	60	1	0	902213.4609611	902213.4614421	80	902216.5079805	902216.5082007	40	902219.8339996	902219.8345188	100	imm	902221.4735669	902221.9872564	902221.9877071	120.0	4.0	902224.5051715
1433.28125	0.0	100	2935360	97	87	60	1	0	902213.4609611	902213.4614421	80	902216.5079805	902216.5082007	40	902219.8339996	902219.8345188	100	imm	902221.4735669	902221.9872564	902221.9877071	120.0	4.0	902224.5051715
1435.43408203125	0.0	120	2939769	97	87	60	1	0	902213.4609611	902213.4614421	80	902216.5079805	902216.5082007	40	902219.8339996	902219.8345188	100	imm	902221.4735669	902221.9872564	902221.9877071	120.0	4.0	902224.5051715
1440.298828125	0.0	80	2949732	98	90	60	1	0	902226.8517941	902226.852319	80	902230.2241507	902230.2246225	40	902233.6826842	902233.6834756	100	imm	902234.2654491	902234.7785163	902234.7790319	120.0	4.0	902235.5210777
1443.6708984375	0.0	40	2956638	98	90	60	1	0	902226.8517941	902226.852319	80	902230.2241507	902230.2246225	40	902233.6826842	902233.6834756	100	imm	902234.2654491	902234.7785163	902234.7790319	120.0	4.0	902235.5210777
1447.12939453125	0.0	100	2963721	98	90	60	1	0	902226.8517941	902226.852319	80	902230.2241507	902230.2246225	40	902233.6826842	902233.6834756	100	imm	902234.2654491	902234.7785163	902234.7790319	120.0	4.0	902235.5210777
1448.22509765625	0.0	120	2965965	98	90	60	1	0	902226.8517941	902226.852319	80	902230.2241507	902230.2246225	40	902233.6826842	902233.6834756	100	imm	902234.2654491	902234.7785163	902234.7790319	120.0	4.0	902235.5210777
1451.47265625	0.0	80	2972616	99	70	460	0	0	902238.0261745	902238.0267046	80	902241.4188662	902241.4193207	40	902244.7233273	902244.7237956	100	imm	902246.7688619	nan	nan	nan	nan	nan
1454.865234375	0.0	40	2979564	99	70	460	0	0	902238.0261745	902238.0267046	80	902241.4188662	902241.4193207	40	902244.7233273	902244.7237956	100	imm	902246.7688619	nan	nan	nan	nan	nan
1458.169921875	0.0	100	2986332	99	70	460	0	0	902238.0261745	902238.0267046	80	902241.4188662	902241.4193207	40	902244.7233273	902244.7237956	100	imm	902246.7688619	nan	nan	nan	nan	nan
1463.19775390625	0.0	80	2996629	100	73	300	1	1	902249.7515631	902249.7520161	80	902253.0494699	902253.0499734	40	902256.0717361	902256.0722431	100	imm	902259.6265952	902260.1401721	902260.1406879	120.0	3.0	902262.0093755
1466.49560546875	0.0	40	3003383	100	73	300	1	1	902249.7515631	902249.7520161	80	902253.0494699	902253.0499734	40	902256.0717361	902256.0722431	100	imm	902259.6265952	902260.1401721	902260.1406879	120.0	3.0	902262.0093755
1469.517578125	0.0	100	3009572	100	73	300	1	1	902249.7515631	902249.7520161	80	902253.0494699	902253.0499734	40	902256.0717361	902256.0722431	100	imm	902259.6265952	902260.1401721	902260.1406879	120.0	3.0	902262.0093755
1473.5859375	0.0	120	3017904	100	73	300	1	1	902249.7515631	902249.7520161	80	902253.0494699	902253.0499734	40	902256.0717361	902256.0722431	100	imm	902259.6265952	902260.1401721	902260.1406879	120.0	3.0	902262.0093755
1520.0478515625	0.0	80	3113058	101	50	60	1	0	902306.6028773	902306.6033426	80	902310.0422243	902310.0427093	40	902313.298239	902313.2987378	100	imm	902313.9129887	902314.4262521	902314.4268022	120.0	4.0	902315.5371708
1523.48681640625	0.0	40	3120101	101	50	60	1	0	902306.6028773	902306.6033426	80	902310.0422243	902310.0427093	40	902313.298239	902313.2987378	100	imm	902313.9129887	902314.4262521	902314.4268022	120.0	4.0	902315.5371708
1526.74267578125	0.0	100	3126769	101	50	60	1	0	902306.6028773	902306.6033426	80	902310.0422243	902310.0427093	40	902313.298239	902313.2987378	100	imm	902313.9129887	902314.4262521	902314.4268022	120.0	4.0	902315.5371708
1527.87109375	0.0	120	3129080	101	50	60	1	0	902306.6028773	902306.6033426	80	902310.0422243	902310.0427093	40	902313.298239	902313.2987378	100	imm	902313.9129887	902314.4262521	902314.4268022	120.0	4.0	902315.5371708
1531.421875	0.0	80	3136352	102	73	240	0	1	902317.9774352	902317.9779398	80	902321.0908856	902321.0913475	40	902324.3809394	902324.3814096	100	imm	902327.7684991	nan	nan	nan	nan	nan
1534.53515625	0.0	40	3142728	102	73	240	0	1	902317.9774352	902317.9779398	80	902321.0908856	902321.0913475	40	902324.3809394	902324.3814096	100	imm	902327.7684991	nan	nan	nan	nan	nan
1537.8251953125	0.0	100	3149466	102	73	240	0	1	902317.9774352	902317.9779398	80	902321.0908856	902321.0913475	40	902324.3809394	902324.3814096	100	imm	902327.7684991	nan	nan	nan	nan	nan
1544.0458984375	0.0	80	3162206	103	67	30	0	1	902330.6018926	902330.6023492	80	902333.6267599	902333.6273173	40	902336.9442924	902336.9446361	100	imm	902338.3221039	nan	nan	nan	nan	nan
1547.07080078125	0.0	40	3168401	103	67	30	0	1	902330.6018926	902330.6023492	80	902333.6267599	902333.6273173	40	902336.9442924	902336.9446361	100	imm	902338.3221039	nan	nan	nan	nan	nan
1550.38818359375	0.0	100	3175195	103	67	30	0	1	902330.6018926	902330.6023492	80	902333.6267599	902333.6273173	40	902336.9442924	902336.9446361	100	imm	902338.3221039	nan	nan	nan	nan	nan
1554.46630859375	0.0	80	3183547	104	90	1070	0	1	902341.0222832	902341.0226851	80	902344.0546298	902344.055126	40	902347.3124136	902347.3128794	100	imm	902347.9302748	nan	nan	nan	nan	nan
1557.49853515625	0.0	40	3189757	104	90	1070	0	1	902341.0222832	902341.0226851	80	902344.0546298	902344.055126	40	902347.3124136	902347.3128794	100	imm	902347.9302748	nan	nan	nan	nan	nan
1560.75634765625	0.0	100	3196429	104	90	1070	0	1	902341.0222832	902341.0226851	80	902344.0546298	902344.055126	40	902347.3124136	902347.3128794	100	imm	902347.9302748	nan	nan	nan	nan	nan
1563.9892578125	0.0	80	3203050	105	90	14	1	1	902350.5455584	902350.5459795	80	902353.6146248	902353.6151162	40	902356.7301057	902356.730512	100	del	902357.2889284	902357.7984319	902357.7986908	120.0	4.0	902359.3607799
1567.05810546875	0.0	40	3209335	105	90	14	1	1	902350.5455584	902350.5459795	80	902353.6146248	902353.6151162	40	902356.7301057	902356.730512	100	del	902357.2889284	902357.7984319	902357.7986908	120.0	4.0	902359.3607799
1570.173828125	0.0	100	3215716	105	90	14	1	1	902350.5455584	902350.5459795	80	902353.6146248	902353.6151162	40	902356.7301057	902356.730512	100	del	902357.2889284	902357.7984319	902357.7986908	120.0	4.0	902359.3607799
1571.24169921875	0.0	120	3217903	105	90	14	1	1	902350.5455584	902350.5459795	80	902353.6146248	902353.6151162	40	902356.7301057	902356.730512	100	del	902357.2889284	902357.7984319	902357.7986908	120.0	4.0	902359.3607799
1574.8935546875	0.0	80	3225382	106	53	14	1	0	902361.4502725	902361.4507523	80	902364.5530788	902364.5536045	40	902367.5884834	902367.5889411	100	imm	902369.0971645	902369.6113185	902369.6119767	120.0	4.0	902370.4493419
1577.99658203125	0.0	40	3231737	106	53	14	1	0	902361.4502725	902361.4507523	80	902364.5530788	902364.5536045	40	902367.5884834	902367.5889411	100	imm	902369.0971645	902369.6113185	902369.6119767	120.0	4.0	902370.4493419
1581.03173828125	0.0	100	3237953	106	53	14	1	0	902361.4502725	902361.4507523	80	902364.5530788	902364.5536045	40	902367.5884834	902367.5889411	100	imm	902369.0971645	902369.6113185	902369.6119767	120.0	4.0	902370.4493419
1583.0546875	0.0	120	3242096	106	53	14	1	0	902361.4502725	902361.4507523	80	902364.5530788	902364.5536045	40	902367.5884834	902367.5889411	100	imm	902369.0971645	902369.6113185	902369.6119767	120.0	4.0	902370.4493419
1586.2255859375	0.0	80	3248590	107	63	1070	0	0	902372.7822891	902372.7827428	80	902375.9308321	902375.9312868	40	902379.2136779	902379.2141456	100	imm	902379.8893814	nan	nan	nan	nan	nan
1589.3740234375	0.0	40	3255038	107	63	1070	0	0	902372.7822891	902372.7827428	80	902375.9308321	902375.9312868	40	902379.2136779	902379.2141456	100	imm	902379.8893814	nan	nan	nan	nan	nan
1592.65673828125	0.0	100	3261761	107	63	1070	0	0	902372.7822891	902372.7827428	80	902375.9308321	902375.9312868	40	902379.2136779	902379.2141456	100	imm	902379.8893814	nan	nan	nan	nan	nan
1596.197265625	0.0	80	3269012	108	50	14	1	1	902382.7545461	902382.7550048	80	902386.0117032	902386.0122038	40	902389.2935244	902389.2940043	100	na	902393.3621612	902393.871491	902393.8717529	120.0	2.0	902395.3208596
1599.45458984375	0.0	40	3275683	108	50	14	1	1	902382.7545461	902382.7550048	80	902386.0117032	902386.0122038	40	902389.2935244	902389.2940043	100	na	902393.3621612	902393.871491	902393.8717529	120.0	2.0	902395.3208596
1602.736328125	0.0	100	3282404	108	50	14	1	1	902382.7545461	902382.7550048	80	902386.0117032	902386.0122038	40	902389.2935244	902389.2940043	100	na	902393.3621612	902393.871491	902393.8717529	120.0	2.0	902395.3208596
1607.31396484375	0.0	120	3291779	108	50	14	1	1	902382.7545461	902382.7550048	80	902386.0117032	902386.0122038	40	902389.2935244	902389.2940043	100	na	902393.3621612	902393.871491	902393.8717529	120.0	2.0	902395.3208596
1610.998046875	0.0	80	3299324	109	100	240	0	1	902397.5555917	902397.556057	80	902400.6249857	902400.6254508	40	902403.8840899	902403.8846042	100	del	902406.2163421	nan	nan	nan	nan	nan
1614.0673828125	0.0	40	3305610	109	100	240	0	1	902397.5555917	902397.556057	80	902400.6249857	902400.6254508	40	902403.8840899	902403.8846042	100	del	902406.2163421	nan	nan	nan	nan	nan
1617.32666015625	0.0	100	3312285	109	100	240	0	1	902397.5555917	902397.556057	80	902400.6249857	902400.6254508	40	902403.8840899	902403.8846042	100	del	902406.2163421	nan	nan	nan	nan	nan
1622.60302734375	0.0	80	3323091	110	90	700	1	0	902409.1606263	902409.161127	80	902412.6052743	902412.6057566	40	902415.7546568	902415.7551229	100	del	902415.7553709	902416.2710154	902416.271423	120.0	3.0	902418.9689478
1626.04736328125	0.0	40	3330145	110	90	700	1	0	902409.1606263	902409.161127	80	902412.6052743	902412.6057566	40	902415.7546568	902415.7551229	100	del	902415.7553709	902416.2710154	902416.271423	120.0	3.0	902418.9689478
1629.19677734375	0.0	100	3336595	110	90	700	1	0	902409.1606263	902409.161127	80	902412.6052743	902412.6057566	40	902415.7546568	902415.7551229	100	del	902415.7553709	902416.2710154	902416.271423	120.0	3.0	902418.9689478
1629.712890625	0.0	120	3337652	110	90	700	1	0	902409.1606263	902409.161127	80	902412.6052743	902412.6057566	40	902415.7546568	902415.7551229	100	del	902415.7553709	902416.2710154	902416.271423	120.0	3.0	902418.9689478
1634.53759765625	0.0	80	3347533	111	60	700	1	1	902421.0958175	902421.0963253	80	902424.3858501	902424.3863077	40	902427.7194858	902427.7199657	100	na	902428.5772544	902429.0900697	902429.0905752	120.0	4.0	902429.8807374
1637.82763671875	0.0	40	3354271	111	60	700	1	1	902421.0958175	902421.0963253	80	902424.3858501	902424.3863077	40	902427.7194858	902427.7199657	100	na	902428.5772544	902429.0900697	902429.0905752	120.0	4.0	902429.8807374
1641.1611328125	0.0	100	3361098	111	60	700	1	1	902421.0958175	902421.0963253	80	902424.3858501	902424.3863077	40	902427.7194858	902427.7199657	100	na	902428.5772544	902429.0900697	902429.0905752	120.0	4.0	902429.8807374
1642.53173828125	0.0	120	3363905	111	60	700	1	1	902421.0958175	902421.0963253	80	902424.3858501	902424.3863077	40	902427.7194858	902427.7199657	100	na	902428.5772544	902429.0900697	902429.0905752	120.0	4.0	902429.8807374
1645.54638671875	0.0	80	3370079	112	77	180	1	0	902432.1045394	902432.1051019	80	902435.2150877	902435.2155797	40	902438.70187	902438.7023393	100	imm	902442.1042937	902442.6182295	902442.6187003	120.0	4.0	902444.0326661
1648.65673828125	0.0	40	3376449	112	77	180	1	0	902432.1045394	902432.1051019	80	902435.2150877	902435.2155797	40	902438.70187	902438.7023393	100	imm	902442.1042937	902442.6182295	902442.6187003	120.0	4.0	902444.0326661
1652.1435546875	0.0	100	3383590	112	77	180	1	0	902432.1045394	902432.1051019	80	902435.2150877	902435.2155797	40	902438.70187	902438.7023393	100	imm	902442.1042937	902442.6182295	902442.6187003	120.0	4.0	902444.0326661
1656.0595703125	0.0	120	3391610	112	77	180	1	0	902432.1045394	902432.1051019	80	902435.2150877	902435.2155797	40	902438.70187	902438.7023393	100	imm	902442.1042937	902442.6182295	902442.6187003	120.0	4.0	902444.0326661
1659.53076171875	0.0	80	3398719	113	93	240	0	0	902446.0892457	902446.089728	80	902449.1506064	902449.1510997	40	902452.2343997	902452.2348617	100	na	902454.840738	nan	nan	nan	nan	nan
1662.591796875	0.0	40	3404988	113	93	240	0	0	902446.0892457	902446.089728	80	902449.1506064	902449.1510997	40	902452.2343997	902452.2348617	100	na	902454.840738	nan	nan	nan	nan	nan
1665.67578125	0.0	100	3411304	113	93	240	0	0	902446.0892457	902446.089728	80	902449.1506064	902449.1510997	40	902452.2343997	902452.2348617	100	na	902454.840738	nan	nan	nan	nan	nan
1670.88232421875	0.0	80	3421967	114	97	460	0	0	902457.4411032	902457.4416992	80	902460.759489	902460.7599045	40	902464.0575327	902464.0580458	100	imm	902466.0646766	nan	nan	nan	nan	nan
1674.20068359375	0.0	40	3428763	114	97	460	0	0	902457.4411032	902457.4416992	80	902460.759489	902460.7599045	40	902464.0575327	902464.0580458	100	imm	902466.0646766	nan	nan	nan	nan	nan
1677.49853515625	0.0	100	3435517	114	97	460	0	0	902457.4411032	902457.4416992	80	902460.759489	902460.7599045	40	902464.0575327	902464.0580458	100	imm	902466.0646766	nan	nan	nan	nan	nan
1682.0498046875	0.0	80	3444838	115	63	14	1	0	902468.6091884	902468.6096747	80	902472.0823986	902472.082907	40	902475.4608461	902475.4613615	100	na	902480.617155	902481.1272462	902481.1276036	120.0	4.0	902482.184514
1685.52294921875	0.0	40	3451951	115	63	14	1	0	902468.6091884	902468.6096747	80	902472.0823986	902472.082907	40	902475.4608461	902475.4613615	100	na	902480.617155	902481.1272462	902481.1276036	120.0	4.0	902482.184514
1688.9013671875	0.0	100	3458870	115	63	14	1	0	902468.6091884	902468.6096747	80	902472.0823986	902472.082907	40	902475.4608461	902475.4613615	100	na	902480.617155	902481.1272462	902481.1276036	120.0	4.0	902482.184514
1694.56787109375	0.0	120	3470475	115	63	14	1	0	902468.6091884	902468.6096747	80	902472.0823986	902472.082907	40	902475.4608461	902475.4613615	100	na	902480.617155	902481.1272462	902481.1276036	120.0	4.0	902482.184514
1698.009765625	0.0	80	3477524	116	60	300	1	1	902484.5692745	902484.5698662	80	902487.6086071	902487.6090584	40	902491.0515775	902491.0520211	100	del	902492.6085682	902493.1218173	902493.122309	120.0	2.0	902495.1528212
1701.048828125	0.0	40	3483748	116	60	300	1	1	902484.5692745	902484.5698662	80	902487.6086071	902487.6090584	40	902491.0515775	902491.0520211	100	del	902492.6085682	902493.1218173	902493.122309	120.0	2.0	902495.1528212
1704.49169921875	0.0	100	3490799	116	60	300	1	1	902484.5692745	902484.5698662	80	902487.6086071	902487.6090584	40	902491.0515775	902491.0520211	100	del	902492.6085682	902493.1218173	902493.122309	120.0	2.0	902495.1528212
1706.56201171875	0.0	120	3495039	116	60	300	1	1	902484.5692745	902484.5698662	80	902487.6086071	902487.6090584	40	902491.0515775	902491.0520211	100	del	902492.6085682	902493.1218173	902493.122309	120.0	2.0	902495.1528212
1711.076171875	0.0	80	3504284	117	90	110	0	1	902497.6358211	902497.6363683	80	902501.1361799	902501.1366478	40	902504.5786536	902504.5791809	100	imm	902507.0331249	nan	nan	nan	nan	nan
1714.576171875	0.0	40	3511452	117	90	110	0	1	902497.6358211	902497.6363683	80	902501.1361799	902501.1366478	40	902504.5786536	902504.5791809	100	imm	902507.0331249	nan	nan	nan	nan	nan
1718.0185546875	0.0	100	3518502	117	90	110	0	1	902497.6358211	902497.6363683	80	902501.1361799	902501.1366478	40	902504.5786536	902504.5791809	100	imm	902507.0331249	nan	nan	nan	nan	nan
1723.38232421875	0.0	80	3529487	118	90	460	0	0	902509.9423208	902509.9427982	80	902513.2065182	902513.20699	40	902516.3087985	902516.3093025	100	del	902517.2244219	nan	nan	nan	nan	nan
1726.64599609375	0.0	40	3536171	118	90	460	0	0	902509.9423208	902509.9427982	80	902513.2065182	902513.20699	40	902516.3087985	902516.3093025	100	del	902517.2244219	nan	nan	nan	nan	nan
1729.74853515625	0.0	100	3542525	118	90	460	0	0	902509.9423208	902509.9427982	80	902513.2065182	902513.20699	40	902516.3087985	902516.3093025	100	del	902517.2244219	nan	nan	nan	nan	nan
1733.38134765625	0.0	80	3549965	119	53	300	1	1	902519.941711	902519.9422065	80	902523.0166307	902523.0171388	40	902526.0449835	902526.0454405	100	imm	902527.6245824	902528.1388264	902528.1392849	120.0	1.0	902529.7126626
1736.4560546875	0.0	40	3556262	119	53	300	1	1	902519.941711	902519.9422065	80	902523.0166307	902523.0171388	40	902526.0449835	902526.0454405	100	imm	902527.6245824	902528.1388264	902528.1392849	120.0	1.0	902529.7126626
1739.484375	0.0	100	3562464	119	53	300	1	1	902519.941711	902519.9422065	80	902523.0166307	902523.0171388	40	902526.0449835	902526.0454405	100	imm	902527.6245824	902528.1388264	902528.1392849	120.0	1.0	902529.7126626
1741.578125	0.0	120	3566752	119	53	300	1	1	902519.941711	902519.9422065	80	902523.0166307	902523.0171388	40	902526.0449835	902526.0454405	100	imm	902527.6245824	902528.1388264	902528.1392849	120.0	1.0	902529.7126626
1745.63671875	0.0	80	3575064	120	97	240	0	0	902532.1973343	902532.1980567	80	902535.3556603	902535.3561615	40	902538.5165797	902538.5171563	100	na	902544.4968967	nan	nan	nan	nan	nan
1748.794921875	0.0	40	3581532	120	97	240	0	0	902532.1973343	902532.1980567	80	902535.3556603	902535.3561615	40	902538.5165797	902538.5171563	100	na	902544.4968967	nan	nan	nan	nan	nan
1751.95556640625	0.0	100	3588005	120	97	240	0	0	902532.1973343	902532.1980567	80	902535.3556603	902535.3561615	40	902538.5165797	902538.5171563	100	na	902544.4968967	nan	nan	nan	nan	nan
1816.45361328125	0.0	80	3720097	121	57	700	1	1	902603.0159668	902603.0164581	80	902606.2572665	902606.2576715	40	902609.5949888	902609.5955079	100	imm	902610.3040214	902610.8176704	902610.81817	120.0	3.0	902611.9524855
1819.69482421875	0.0	40	3726735	121	57	700	1	1	902603.0159668	902603.0164581	80	902606.2572665	902606.2576715	40	902609.5949888	902609.5955079	100	imm	902610.3040214	902610.8176704	902610.81817	120.0	3.0	902611.9524855
1823.0322265625	0.0	100	3733570	121	57	700	1	1	902603.0159668	902603.0164581	80	902606.2572665	902606.2576715	40	902609.5949888	902609.5955079	100	imm	902610.3040214	902610.8176704	902610.81817	120.0	3.0	902611.9524855
1824.2548828125	0.0	120	3736074	121	57	700	1	1	902603.0159668	902603.0164581	80	902606.2572665	902606.2576715	40	902609.5949888	902609.5955079	100	imm	902610.3040214	902610.8176704	902610.81817	120.0	3.0	902611.9524855
1827.4189453125	0.0	80	3742554	122	57	240	0	1	902613.9818112	902613.9822868	80	902617.4106919	902617.4111609	40	902620.703179	902620.7036259	100	imm	902624.3921814	nan	nan	nan	nan	nan
1830.84765625	0.0	40	3749576	122	57	240	0	1	902613.9818112	902613.9822868	80	902617.4106919	902617.4111609	40	902620.703179	902620.7036259	100	imm	902624.3921814	nan	nan	nan	nan	nan
1834.14013671875	0.0	100	3756319	122	57	240	0	1	902613.9818112	902613.9822868	80	902617.4106919	902617.4111609	40	902620.703179	902620.7036259	100	imm	902624.3921814	nan	nan	nan	nan	nan
1840.77392578125	0.0	80	3769905	123	50	30	0	0	902627.337185	902627.3376892	80	902630.5186457	902630.5191411	40	902633.7553406	902633.7558503	100	imm	902634.3204869	nan	nan	nan	nan	nan
1843.95556640625	0.0	40	3776421	123	50	30	0	0	902627.337185	902627.3376892	80	902630.5186457	902630.5191411	40	902633.7553406	902633.7558503	100	imm	902634.3204869	nan	nan	nan	nan	nan
1847.19189453125	0.0	100	3783049	123	50	30	0	0	902627.337185	902627.3376892	80	902630.5186457	902630.5191411	40	902633.7553406	902633.7558503	100	imm	902634.3204869	nan	nan	nan	nan	nan
1850.29931640625	0.0	80	3789413	124	63	460	0	0	902636.8628018	902636.8631639	80	902639.9586803	902639.9591605	40	902643.3037673	902643.3042427	100	na	902648.8802379	nan	nan	nan	nan	nan
1853.39501953125	0.0	40	3795753	124	63	460	0	0	902636.8628018	902636.8631639	80	902639.9586803	902639.9591605	40	902643.3037673	902643.3042427	100	na	902648.8802379	nan	nan	nan	nan	nan
1856.740234375	0.0	100	3802604	124	63	460	0	0	902636.8628018	902636.8631639	80	902639.9586803	902639.9591605	40	902643.3037673	902643.3042427	100	na	902648.8802379	nan	nan	nan	nan	nan
1865.0	0.0	80	3819520	125	60	14	1	0	902651.5635942	902651.5640959	80	902655.0210151	902655.0215027	40	902658.0930795	902658.0936112	100	del	902659.5857535	902660.0988571	902660.0993757	120.0	4.0	902661.1364278
1868.45703125	0.0	40	3826600	125	60	14	1	0	902651.5635942	902651.5640959	80	902655.0210151	902655.0215027	40	902658.0930795	902658.0936112	100	del	902659.5857535	902660.0988571	902660.0993757	120.0	4.0	902661.1364278
1871.529296875	0.0	100	3832892	125	60	14	1	0	902651.5635942	902651.5640959	80	902655.0210151	902655.0215027	40	902658.0930795	902658.0936112	100	del	902659.5857535	902660.0988571	902660.0993757	120.0	4.0	902661.1364278
1873.53515625	0.0	120	3837000	125	60	14	1	0	902651.5635942	902651.5640959	80	902655.0210151	902655.0215027	40	902658.0930795	902658.0936112	100	del	902659.5857535	902660.0988571	902660.0993757	120.0	4.0	902661.1364278
1877.08154296875	0.0	80	3844263	126	73	30	0	1	902663.6457402	902663.6462018	80	902666.9229206	902666.9234096	40	902670.2933831	902670.2938446	100	del	902671.7442277	nan	nan	nan	nan	nan
1880.35888671875	0.0	40	3850975	126	73	30	0	1	902663.6457402	902663.6462018	80	902666.9229206	902666.9234096	40	902670.2933831	902670.2938446	100	del	902671.7442277	nan	nan	nan	nan	nan
1883.72900390625	0.0	100	3857877	126	73	30	0	1	902663.6457402	902663.6462018	80	902666.9229206	902666.9234096	40	902670.2933831	902670.2938446	100	del	902671.7442277	nan	nan	nan	nan	nan
1888.1982421875	0.0	80	3867030	127	50	460	0	0	902674.7622816	902674.7628106	80	902677.9154481	902677.9159601	40	902681.1364317	902681.1369519	100	imm	902685.9938151	nan	nan	nan	nan	nan
1891.35107421875	0.0	40	3873487	127	50	460	0	0	902674.7622816	902674.7628106	80	902677.9154481	902677.9159601	40	902681.1364317	902681.1369519	100	imm	902685.9938151	nan	nan	nan	nan	nan
1894.57177734375	0.0	100	3880083	127	50	460	0	0	902674.7622816	902674.7628106	80	902677.9154481	902677.9159601	40	902681.1364317	902681.1369519	100	imm	902685.9938151	nan	nan	nan	nan	nan
1902.17822265625	0.0	80	3895661	128	70	14	1	0	902688.7430443	902688.7438208	80	902692.1346698	902692.1350944	40	902695.5566306	902695.5571211	100	del	902696.4171759	902696.9310058	902696.9314752	120.0	4.0	902700.4724741
1905.56982421875	0.0	40	3902607	128	70	14	1	0	902688.7430443	902688.7438208	80	902692.1346698	902692.1350944	40	902695.5566306	902695.5571211	100	del	902696.4171759	902696.9310058	902696.9314752	120.0	4.0	902700.4724741
1908.99169921875	0.0	100	3909615	128	70	14	1	0	902688.7430443	902688.7438208	80	902692.1346698	902692.1350944	40	902695.5566306	902695.5571211	100	del	902696.4171759	902696.9310058	902696.9314752	120.0	4.0	902700.4724741
1910.3662109375	0.0	120	3912430	128	70	14	1	0	902688.7430443	902688.7438208	80	902692.1346698	902692.1350944	40	902695.5566306	902695.5571211	100	del	902696.4171759	902696.9310058	902696.9314752	120.0	4.0	902700.4724741
1915.97265625	0.0	80	3923912	129	87	30	0	1	902702.5376266	902702.538099	80	902705.6340765	902705.6345299	40	902708.82721	902708.8277666	100	del	902709.4721064	nan	nan	nan	nan	nan
1919.06884765625	0.0	40	3930253	129	87	30	0	1	902702.5376266	902702.538099	80	902705.6340765	902705.6345299	40	902708.82721	902708.8277666	100	del	902709.4721064	nan	nan	nan	nan	nan
1922.26220703125	0.0	100	3936793	129	87	30	0	1	902702.5376266	902702.538099	80	902705.6340765	902705.6345299	40	902708.82721	902708.8277666	100	del	902709.4721064	nan	nan	nan	nan	nan
1925.453125	0.0	80	3943328	130	87	240	0	0	902712.0185565	902712.0190664	80	902715.286904	902715.2873722	40	902718.468334	902718.468744	100	imm	902719.815223	nan	nan	nan	nan	nan
1928.7216796875	0.0	40	3950022	130	87	240	0	0	902712.0185565	902712.0190664	80	902715.286904	902715.2873722	40	902718.468334	902718.468744	100	imm	902719.815223	nan	nan	nan	nan	nan
1931.90283203125	0.0	100	3956537	130	87	240	0	0	902712.0185565	902712.0190664	80	902715.286904	902715.2873722	40	902718.468334	902718.468744	100	imm	902719.815223	nan	nan	nan	nan	nan
1935.857421875	0.0	80	3964636	131	67	700	1	1	902722.4230871	902722.4235475	80	902725.5357657	902725.5362521	40	902729.0012467	902729.001763	100	del	902731.775814	902732.2888753	902732.2893783	120.0	2.0	902733.4255839
1938.97021484375	0.0	40	3971011	131	67	700	1	1	902722.4230871	902722.4235475	80	902725.5357657	902725.5362521	40	902729.0012467	902729.001763	100	del	902731.775814	902732.2888753	902732.2893783	120.0	2.0	902733.4255839
1942.435546875	0.0	100	3978108	131	67	700	1	1	902722.4230871	902722.4235475	80	902725.5357657	902725.5362521	40	902729.0012467	902729.001763	100	del	902731.775814	902732.2888753	902732.2893783	120.0	2.0	902733.4255839
1945.72314453125	0.0	120	3984841	131	67	700	1	1	902722.4230871	902722.4235475	80	902725.5357657	902725.5362521	40	902729.0012467	902729.001763	100	del	902731.775814	902732.2888753	902732.2893783	120.0	2.0	902733.4255839
1949.21435546875	0.0	80	3991991	132	53	180	1	0	902735.7803312	902735.7807909	80	902739.0222367	902739.0227144	40	902742.4916966	902742.4921891	100	na	902747.5132124	902748.0267201	902748.0272346	120.0	4.0	902749.0799935
1952.45654296875	0.0	40	3998631	132	53	180	1	0	902735.7803312	902735.7807909	80	902739.0222367	902739.0227144	40	902742.4916966	902742.4921891	100	na	902747.5132124	902748.0267201	902748.0272346	120.0	4.0	902749.0799935
1955.92578125	0.0	100	4005736	132	53	180	1	0	902735.7803312	902735.7807909	80	902739.0222367	902739.0227144	40	902742.4916966	902742.4921891	100	na	902747.5132124	902748.0267201	902748.0272346	120.0	4.0	902749.0799935
1961.46044921875	0.0	120	4017071	132	53	180	1	0	902735.7803312	902735.7807909	80	902739.0222367	902739.0227144	40	902742.4916966	902742.4921891	100	na	902747.5132124	902748.0267201	902748.0272346	120.0	4.0	902749.0799935
1964.58447265625	0.0	80	4023469	133	80	1070	0	1	902751.1504776	902751.1509349	80	902754.5306735	902754.5311782	40	902757.9122239	902757.912709	100	imm	902758.7443192	nan	nan	nan	nan	nan
1967.96435546875	0.0	40	4030391	133	80	1070	0	1	902751.1504776	902751.1509349	80	902754.5306735	902754.5311782	40	902757.9122239	902757.912709	100	imm	902758.7443192	nan	nan	nan	nan	nan
1971.345703125	0.0	100	4037316	133	80	1070	0	1	902751.1504776	902751.1509349	80	902754.5306735	902754.5311782	40	902757.9122239	902757.912709	100	imm	902758.7443192	nan	nan	nan	nan	nan
1974.97705078125	0.0	80	4044753	134	77	300	1	1	902761.5433435	902761.5438066	80	902764.642986	902764.6434647	40	902767.9551348	902767.9556273	100	imm	902768.5036971	902769.0168739	902769.0173508	120.0	4.0	902773.4558125
1978.07666015625	0.0	40	4051101	134	77	300	1	1	902761.5433435	902761.5438066	80	902764.642986	902764.6434647	40	902767.9551348	902767.9556273	100	imm	902768.5036971	902769.0168739	902769.0173508	120.0	4.0	902773.4558125
1981.388671875	0.0	100	4057884	134	77	300	1	1	902761.5433435	902761.5438066	80	902764.642986	902764.6434647	40	902767.9551348	902767.9556273	100	imm	902768.5036971	902769.0168739	902769.0173508	120.0	4.0	902773.4558125
1982.4501953125	0.0	120	4060058	134	77	300	1	1	902761.5433435	902761.5438066	80	902764.642986	902764.6434647	40	902767.9551348	902767.9556273	100	imm	902768.5036971	902769.0168739	902769.0173508	120.0	4.0	902773.4558125
1989.05517578125	0.0	80	4073585	135	93	14	1	0	902775.6218523	902775.6222683	80	902778.6961733	902778.6965782	40	902781.8153605	902781.8158401	100	del	902782.9999223	902783.5122762	902783.51275	120.0	4.0	902783.8878103
1992.12939453125	0.0	40	4079881	135	93	14	1	0	902775.6218523	902775.6222683	80	902778.6961733	902778.6965782	40	902781.8153605	902781.8158401	100	del	902782.9999223	902783.5122762	902783.51275	120.0	4.0	902783.8878103
1995.24853515625	0.0	100	4086269	135	93	14	1	0	902775.6218523	902775.6222683	80	902778.6961733	902778.6965782	40	902781.8153605	902781.8158401	100	del	902782.9999223	902783.5122762	902783.51275	120.0	4.0	902783.8878103
1996.9453125	0.0	120	4089744	135	93	14	1	0	902775.6218523	902775.6222683	80	902778.6961733	902778.6965782	40	902781.8153605	902781.8158401	100	del	902782.9999223	902783.5122762	902783.51275	120.0	4.0	902783.8878103
1999.78369140625	0.0	80	4095557	136	53	1070	0	1	902786.3508449	902786.3514494	80	902789.394038	902789.3946252	40	902792.5283334	902792.5288041	100	na	902796.736175	nan	nan	nan	nan	nan
2002.8271484375	0.0	40	4101790	136	53	1070	0	1	902786.3508449	902786.3514494	80	902789.394038	902789.3946252	40	902792.5283334	902792.5288041	100	na	902796.736175	nan	nan	nan	nan	nan
2005.9609375	0.0	100	4108208	136	53	1070	0	1	902786.3508449	902786.3514494	80	902789.394038	902789.3946252	40	902792.5283334	902792.5288041	100	na	902796.736175	nan	nan	nan	nan	nan
2012.712890625	0.0	80	4122036	137	87	14	1	0	902799.280409	902799.2808984	80	902802.5101281	902802.5106226	40	902805.5299569	902805.5304613	100	imm	902806.5522857	902807.065224	902807.0657341	120.0	4.0	902808.7445314
2015.94287109375	0.0	40	4128651	137	87	14	1	0	902799.280409	902799.2808984	80	902802.5101281	902802.5106226	40	902805.5299569	902805.5304613	100	imm	902806.5522857	902807.065224	902807.0657341	120.0	4.0	902808.7445314
2018.96240234375	0.0	100	4134835	137	87	14	1	0	902799.280409	902799.2808984	80	902802.5101281	902802.5106226	40	902805.5299569	902805.5304613	100	imm	902806.5522857	902807.065224	902807.0657341	120.0	4.0	902808.7445314
2020.49755859375	0.0	120	4137979	137	87	14	1	0	902799.280409	902799.2808984	80	902802.5101281	902802.5106226	40	902805.5299569	902805.5304613	100	imm	902806.5522857	902807.065224	902807.0657341	120.0	4.0	902808.7445314
2024.6416015625	0.0	80	4146466	138	53	700	1	1	902811.2092638	902811.2097459	80	902814.3160914	902814.3165733	40	902817.3755421	902817.3760121	100	imm	902818.9757735	902819.4891613	902819.4896443	120.0	4.0	902821.2400839
2027.74853515625	0.0	40	4152829	138	53	700	1	1	902811.2092638	902811.2097459	80	902814.3160914	902814.3165733	40	902817.3755421	902817.3760121	100	imm	902818.9757735	902819.4891613	902819.4896443	120.0	4.0	902821.2400839
2030.8076171875	0.0	100	4159094	138	53	700	1	1	902811.2092638	902811.2097459	80	902814.3160914	902814.3165733	40	902817.3755421	902817.3760121	100	imm	902818.9757735	902819.4891613	902819.4896443	120.0	4.0	902821.2400839
2032.92138671875	0.0	120	4163423	138	53	700	1	1	902811.2092638	902811.2097459	80	902814.3160914	902814.3165733	40	902817.3755421	902817.3760121	100	imm	902818.9757735	902819.4891613	902819.4896443	120.0	4.0	902821.2400839
2036.84130859375	0.0	80	4171451	139	70	1070	0	0	902823.4091219	902823.4095781	80	902826.6447918	902826.6453664	40	902829.709658	902829.7101063	100	na	902834.104347	nan	nan	nan	nan	nan
2040.07666015625	0.0	40	4178077	139	70	1070	0	0	902823.4091219	902823.4095781	80	902826.6447918	902826.6453664	40	902829.709658	902829.7101063	100	na	902834.104347	nan	nan	nan	nan	nan
2043.1416015625	0.0	100	4184354	139	70	1070	0	0	902823.4091219	902823.4095781	80	902826.6447918	902826.6453664	40	902829.709658	902829.7101063	100	na	902834.104347	nan	nan	nan	nan	nan
2050.5517578125	0.0	80	4199530	140	80	700	1	1	902837.120277	902837.12078	80	902840.2941101	902840.2946104	40	902843.4559295	902843.4565035	100	imm	902848.4562447	902848.9667335	902848.9670269	120.0	4.0	902850.4798195
2053.7255859375	0.0	40	4206030	140	80	700	1	1	902837.120277	902837.12078	80	902840.2941101	902840.2946104	40	902843.4559295	902843.4565035	100	imm	902848.4562447	902848.9667335	902848.9670269	120.0	4.0	902850.4798195
2056.8876953125	0.0	100	4212506	140	80	700	1	1	902837.120277	902837.12078	80	902840.2941101	902840.2946104	40	902843.4559295	902843.4565035	100	imm	902848.4562447	902848.9667335	902848.9670269	120.0	4.0	902850.4798195
2062.39794921875	0.0	120	4223791	140	80	700	1	1	902837.120277	902837.12078	80	902840.2941101	902840.2946104	40	902843.4559295	902843.4565035	100	imm	902848.4562447	902848.9667335	902848.9670269	120.0	4.0	902850.4798195
2095.73828125	0.0	80	4292072	141	60	60	1	1	902882.3078701	902882.3082125	80	902885.4642272	902885.46464	40	902888.5003471	902888.5008582	100	imm	902889.4561626	902889.9659631	902889.9662961	120.0	3.0	902891.01604
2098.89453125	0.0	40	4298536	141	60	60	1	1	902882.3078701	902882.3082125	80	902885.4642272	902885.46464	40	902888.5003471	902888.5008582	100	imm	902889.4561626	902889.9659631	902889.9662961	120.0	3.0	902891.01604
