onset	duration	value	sample	trial_idx	val	del	is_cued	rev_opts	del_pres_displaytime	del_pres_triggertime	del_pres_triggercode	val_pres_displaytime	val_pres_triggertime	val_pres_triggercode	choice_displaytime	choice_triggertime	choice_triggercode	choice	choice_time	viv	viv_time	viv_displaytime	viv_triggertime	viv_triggercode
27.208984375	0.0	80	55724	1	77	70	0	1	1543098.8265114	1543098.8270885	80	1543102.1798697	1543102.1804483	40	1543105.2358529	1543105.2365038	100	del	1543107.2767664	nan	nan	nan	nan	nan
30.5625	0.0	40	62592	1	77	70	0	1	1543098.8265114	1543098.8270885	80	1543102.1798697	1543102.1804483	40	1543105.2358529	1543105.2365038	100	del	1543107.2767664	nan	nan	nan	nan	nan
33.6181640625	0.0	100	68850	1	77	70	0	1	1543098.8265114	1543098.8270885	80	1543102.1798697	1543102.1804483	40	1543105.2358529	1543105.2365038	100	del	1543107.2767664	nan	nan	nan	nan	nan
38.1943359375	0.0	80	78222	2	50	20	0	1	1543109.811976	1543109.8125415	80	1543112.9630104	1543112.9634005	40	1543116.0157789	1543116.0162509	100	del	1543119.0356434	nan	nan	nan	nan	nan
41.34521484375	0.0	40	84675	2	50	20	0	1	1543109.811976	1543109.8125415	80	1543112.9630104	1543112.9634005	40	1543116.0157789	1543116.0162509	100	del	1543119.0356434	nan	nan	nan	nan	nan
44.39794921875	0.0	100	90927	2	50	20	0	1	1543109.811976	1543109.8125415	80	1543112.9630104	1543112.9634005	40	1543116.0157789	1543116.0162509	100	del	1543119.0356434	nan	nan	nan	nan	nan
50.3857421875	0.0	80	103190	3	60	20	0	1	1543122.0039319	1543122.0043987	80	1543125.4355184	1543125.4360383	40	1543128.6464643	1543128.64698	100	del	1543129.4439008	nan	nan	nan	nan	nan
53.8173828125	0.0	40	110218	3	60	20	0	1	1543122.0039319	1543122.0043987	80	1543125.4355184	1543125.4360383	40	1543128.6464643	1543128.64698	100	del	1543129.4439008	nan	nan	nan	nan	nan
57.0283203125	0.0	100	116794	3	60	20	0	1	1543122.0039319	1543122.0043987	80	1543125.4355184	1543125.4360383	40	1543128.6464643	1543128.64698	100	del	1543129.4439008	nan	nan	nan	nan	nan
60.42724609375	0.0	80	123755	4	63	400	0	1	1543132.0457633	1543132.0462887	80	1543135.2699292	1543135.2703984	40	1543138.4916285	1543138.4922401	100	imm	1543139.75599	nan	nan	nan	nan	nan
63.6513671875	0.0	40	130358	4	63	400	0	1	1543132.0457633	1543132.0462887	80	1543135.2699292	1543135.2703984	40	1543138.4916285	1543138.4922401	100	imm	1543139.75599	nan	nan	nan	nan	nan
66.873046875	0.0	100	136956	4	63	400	0	1	1543132.0457633	1543132.0462887	80	1543135.2699292	1543135.2703984	40	1543138.4916285	1543138.4922401	100	imm	1543139.75599	nan	nan	nan	nan	nan
71.01904296875	0.0	80	145447	5	53	210	0	1	1543142.6376274	1543142.6380642	80	1543145.8493365	1543145.8498526	40	1543149.3388313	1543149.3393502	100	imm	1543150.444653	nan	nan	nan	nan	nan
74.23046875	0.0	40	152024	5	53	210	0	1	1543142.6376274	1543142.6380642	80	1543145.8493365	1543145.8498526	40	1543149.3388313	1543149.3393502	100	imm	1543150.444653	nan	nan	nan	nan	nan
77.72021484375	0.0	100	159171	5	53	210	0	1	1543142.6376274	1543142.6380642	80	1543145.8493365	1543145.8498526	40	1543149.3388313	1543149.3393502	100	imm	1543150.444653	nan	nan	nan	nan	nan
81.80078125	0.0	80	167528	6	70	570	1	1	1543153.4195199	1543153.4199759	80	1543156.9025868	1543156.9030315	40	1543160.0833411	1543160.0836157	100	del	1543166.059738	1.0	1543169.0755817	1543166.5784752	1543166.5790355	120.0
85.28369140625	0.0	40	174661	6	70	570	1	1	1543153.4195199	1543153.4199759	80	1543156.9025868	1543156.9030315	40	1543160.0833411	1543160.0836157	100	del	1543166.059738	1.0	1543169.0755817	1543166.5784752	1543166.5790355	120.0
88.4638671875	0.0	100	181174	6	70	570	1	1	1543153.4195199	1543153.4199759	80	1543156.9025868	1543156.9030315	40	1543160.0833411	1543160.0836157	100	del	1543166.059738	1.0	1543169.0755817	1543166.5784752	1543166.5790355	120.0
94.95947265625	0.0	120	194477	6	70	570	1	1	1543153.4195199	1543153.4199759	80	1543156.9025868	1543156.9030315	40	1543160.0833411	1543160.0836157	100	del	1543166.059738	1.0	1543169.0755817	1543166.5784752	1543166.5790355	120.0
99.6171875	0.0	80	204016	7	57	820	0	1	1543171.2365817	1543171.2369379	80	1543174.6875724	1543174.6880423	40	1543177.8061477	1543177.8065955	100	imm	1543178.3716303	nan	nan	nan	nan	nan
103.06787109375	0.0	40	211083	7	57	820	0	1	1543171.2365817	1543171.2369379	80	1543174.6875724	1543174.6880423	40	1543177.8061477	1543177.8065955	100	imm	1543178.3716303	nan	nan	nan	nan	nan
106.1865234375	0.0	100	217470	7	57	820	0	1	1543171.2365817	1543171.2369379	80	1543174.6875724	1543174.6880423	40	1543177.8061477	1543177.8065955	100	imm	1543178.3716303	nan	nan	nan	nan	nan
109.33642578125	0.0	80	223921	8	53	820	0	1	1543180.9561634	1543180.9566634	80	1543184.2243407	1543184.2248165	40	1543187.6905697	1543187.6910662	100	imm	1543188.5557375	nan	nan	nan	nan	nan
112.6044921875	0.0	40	230614	8	53	820	0	1	1543180.9561634	1543180.9566634	80	1543184.2243407	1543184.2248165	40	1543187.6905697	1543187.6910662	100	imm	1543188.5557375	nan	nan	nan	nan	nan
116.07080078125	0.0	100	237713	8	53	820	0	1	1543180.9561634	1543180.9566634	80	1543184.2243407	1543184.2248165	40	1543187.6905697	1543187.6910662	100	imm	1543188.5557375	nan	nan	nan	nan	nan
119.6552734375	0.0	80	245054	9	50	820	0	1	1543191.2753476	1543191.2758427	80	1543194.3907928	1543194.3912847	40	1543197.4450626	1543197.4455419	100	imm	1543197.9082495	nan	nan	nan	nan	nan
122.7705078125	0.0	40	251434	9	50	820	0	1	1543191.2753476	1543191.2758427	80	1543194.3907928	1543194.3912847	40	1543197.4450626	1543197.4455419	100	imm	1543197.9082495	nan	nan	nan	nan	nan
125.82470703125	0.0	100	257689	9	50	820	0	1	1543191.2753476	1543191.2758427	80	1543194.3907928	1543194.3912847	40	1543197.4450626	1543197.4455419	100	imm	1543197.9082495	nan	nan	nan	nan	nan
129.27001953125	0.0	80	264745	10	50	210	0	1	1543200.8902517	1543200.8906545	80	1543204.199602	1543204.2000729	40	1543207.4018011	1543207.4022938	100	imm	1543208.1489447	nan	nan	nan	nan	nan
132.5791015625	0.0	40	271522	10	50	210	0	1	1543200.8902517	1543200.8906545	80	1543204.199602	1543204.2000729	40	1543207.4018011	1543207.4022938	100	imm	1543208.1489447	nan	nan	nan	nan	nan
135.78125	0.0	100	278080	10	50	210	0	1	1543200.8902517	1543200.8906545	80	1543204.199602	1543204.2000729	40	1543207.4018011	1543207.4022938	100	imm	1543208.1489447	nan	nan	nan	nan	nan
139.37939453125	0.0	80	285449	11	100	30	1	1	1543211.0000244	1543211.0004814	80	1543214.4035935	1543214.4040752	40	1543217.5838619	1543217.5843747	100	del	1543218.2120246	2.0	1543222.5732545	1543218.722236	1543218.7226023	120.0
142.78271484375	0.0	40	292419	11	100	30	1	1	1543211.0000244	1543211.0004814	80	1543214.4035935	1543214.4040752	40	1543217.5838619	1543217.5843747	100	del	1543218.2120246	2.0	1543222.5732545	1543218.722236	1543218.7226023	120.0
145.962890625	0.0	100	298932	11	100	30	1	1	1543211.0000244	1543211.0004814	80	1543214.4035935	1543214.4040752	40	1543217.5838619	1543217.5843747	100	del	1543218.2120246	2.0	1543222.5732545	1543218.722236	1543218.7226023	120.0
147.1015625	0.0	120	301264	11	100	30	1	1	1543211.0000244	1543211.0004814	80	1543214.4035935	1543214.4040752	40	1543217.5838619	1543217.5843747	100	del	1543218.2120246	2.0	1543222.5732545	1543218.722236	1543218.7226023	120.0
153.3095703125	0.0	80	313978	12	87	210	0	0	1543224.9308387	1543224.9311509	80	1543228.040438	1543228.0409641	40	1543231.5327461	1543231.5332485	100	del	1543232.7891892	nan	nan	nan	nan	nan
156.41943359375	0.0	40	320347	12	87	210	0	0	1543224.9308387	1543224.9311509	80	1543228.040438	1543228.0409641	40	1543231.5327461	1543231.5332485	100	del	1543232.7891892	nan	nan	nan	nan	nan
159.91162109375	0.0	100	327499	12	87	210	0	0	1543224.9308387	1543224.9311509	80	1543228.040438	1543228.0409641	40	1543231.5327461	1543231.5332485	100	del	1543232.7891892	nan	nan	nan	nan	nan
164.0419921875	0.0	80	335958	13	97	400	0	0	1543235.6631269	1543235.6635918	80	1543238.7543604	1543238.7550513	40	1543241.9850614	1543241.9854078	100	del	1543242.6439865	nan	nan	nan	nan	nan
167.13330078125	0.0	40	342289	13	97	400	0	0	1543235.6631269	1543235.6635918	80	1543238.7543604	1543238.7550513	40	1543241.9850614	1543241.9854078	100	del	1543242.6439865	nan	nan	nan	nan	nan
170.36376953125	0.0	100	348905	13	97	400	0	0	1543235.6631269	1543235.6635918	80	1543238.7543604	1543238.7550513	40	1543241.9850614	1543241.9854078	100	del	1543242.6439865	nan	nan	nan	nan	nan
173.857421875	0.0	80	356060	14	83	70	0	1	1543245.4788111	1543245.479226	80	1543248.9511086	1543248.9516228	40	1543252.2299406	1543252.2304533	100	del	1543253.355771	nan	nan	nan	nan	nan
177.32958984375	0.0	40	363171	14	83	70	0	1	1543245.4788111	1543245.479226	80	1543248.9511086	1543248.9516228	40	1543252.2299406	1543252.2304533	100	del	1543253.355771	nan	nan	nan	nan	nan
180.6083984375	0.0	100	369886	14	83	70	0	1	1543245.4788111	1543245.479226	80	1543248.9511086	1543248.9516228	40	1543252.2299406	1543252.2304533	100	del	1543253.355771	nan	nan	nan	nan	nan
184.5654296875	0.0	80	377990	15	50	70	0	0	1543256.1874397	1543256.1879703	80	1543259.5360814	1543259.5367069	40	1543263.0108758	1543263.0113997	100	imm	1543264.1802324	nan	nan	nan	nan	nan
187.91455078125	0.0	40	384849	15	50	70	0	0	1543256.1874397	1543256.1879703	80	1543259.5360814	1543259.5367069	40	1543263.0108758	1543263.0113997	100	imm	1543264.1802324	nan	nan	nan	nan	nan
191.388671875	0.0	100	391964	15	50	70	0	0	1543256.1874397	1543256.1879703	80	1543259.5360814	1543259.5367069	40	1543263.0108758	1543263.0113997	100	imm	1543264.1802324	nan	nan	nan	nan	nan
195.15478515625	0.0	80	399677	16	53	30	1	1	1543266.7766866	1543266.7771948	80	1543269.9876204	1543269.9881162	40	1543273.1576984	1543273.1581914	100	del	1543274.0437425	3.0	1543275.2914902	1543274.5573837	1543274.5578898	120.0
198.365234375	0.0	40	406252	16	53	30	1	1	1543266.7766866	1543266.7771948	80	1543269.9876204	1543269.9881162	40	1543273.1576984	1543273.1581914	100	del	1543274.0437425	3.0	1543275.2914902	1543274.5573837	1543274.5578898	120.0
201.53564453125	0.0	100	412745	16	53	30	1	1	1543266.7766866	1543266.7771948	80	1543269.9876204	1543269.9881162	40	1543273.1576984	1543273.1581914	100	del	1543274.0437425	3.0	1543275.2914902	1543274.5573837	1543274.5578898	120.0
202.93505859375	0.0	120	415611	16	53	30	1	1	1543266.7766866	1543266.7771948	80	1543269.9876204	1543269.9881162	40	1543273.1576984	1543273.1581914	100	del	1543274.0437425	3.0	1543275.2914902	1543274.5573837	1543274.5578898	120.0
206.0322265625	0.0	80	421954	17	70	70	0	0	1543277.654435	1543277.6549176	80	1543281.1068701	1543281.107264	40	1543284.3653574	1543284.3658846	100	del	1543285.0281356	nan	nan	nan	nan	nan
209.484375	0.0	40	429024	17	70	70	0	0	1543277.654435	1543277.6549176	80	1543281.1068701	1543281.107264	40	1543284.3653574	1543284.3658846	100	del	1543285.0281356	nan	nan	nan	nan	nan
212.74267578125	0.0	100	435697	17	70	70	0	0	1543277.654435	1543277.6549176	80	1543281.1068701	1543281.107264	40	1543284.3653574	1543284.3658846	100	del	1543285.0281356	nan	nan	nan	nan	nan
216.3251953125	0.0	80	443034	18	80	9	1	1	1543287.9479225	1543287.948524	80	1543291.1189245	1543291.1194105	40	1543294.4074961	1543294.4079772	100	del	1543295.1558497	1.0	1543297.0518881	1543295.6676115	1543295.6680588	120.0
219.49609375	0.0	40	449528	18	80	9	1	1	1543287.9479225	1543287.948524	80	1543291.1189245	1543291.1194105	40	1543294.4074961	1543294.4079772	100	del	1543295.1558497	1.0	1543297.0518881	1543295.6676115	1543295.6680588	120.0
222.78466796875	0.0	100	456263	18	80	9	1	1	1543287.9479225	1543287.948524	80	1543291.1189245	1543291.1194105	40	1543294.4074961	1543294.4079772	100	del	1543295.1558497	1.0	1543297.0518881	1543295.6676115	1543295.6680588	120.0
224.04443359375	0.0	120	458843	18	80	9	1	1	1543287.9479225	1543287.948524	80	1543291.1189245	1543291.1194105	40	1543294.4074961	1543294.4079772	100	del	1543295.1558497	1.0	1543297.0518881	1543295.6676115	1543295.6680588	120.0
227.63916015625	0.0	80	466205	19	100	400	0	0	1543299.262389	1543299.2629065	80	1543302.7188012	1543302.7193199	40	1543306.0704696	1543306.0709646	100	del	1543306.6685516	nan	nan	nan	nan	nan
231.095703125	0.0	40	473284	19	100	400	0	0	1543299.262389	1543299.2629065	80	1543302.7188012	1543302.7193199	40	1543306.0704696	1543306.0709646	100	del	1543306.6685516	nan	nan	nan	nan	nan
234.447265625	0.0	100	480148	19	100	400	0	0	1543299.262389	1543299.2629065	80	1543302.7188012	1543302.7193199	40	1543306.0704696	1543306.0709646	100	del	1543306.6685516	nan	nan	nan	nan	nan
237.97607421875	0.0	80	487375	20	67	570	1	1	1543309.599591	1543309.6000984	80	1543312.6623135	1543312.6627669	40	1543315.8153847	1543315.8158833	100	del	1543322.9318274	1.0	1543324.3317053	1543323.4427452	1543323.4431673	120.0
241.0390625	0.0	40	493648	20	67	570	1	1	1543309.599591	1543309.6000984	80	1543312.6623135	1543312.6627669	40	1543315.8153847	1543315.8158833	100	del	1543322.9318274	1.0	1543324.3317053	1543323.4427452	1543323.4431673	120.0
244.19189453125	0.0	100	500105	20	67	570	1	1	1543309.599591	1543309.6000984	80	1543312.6623135	1543312.6627669	40	1543315.8153847	1543315.8158833	100	del	1543322.9318274	1.0	1543324.3317053	1543323.4427452	1543323.4431673	120.0
251.81884765625	0.0	120	515725	20	67	570	1	1	1543309.599591	1543309.6000984	80	1543312.6623135	1543312.6627669	40	1543315.8153847	1543315.8158833	100	del	1543322.9318274	1.0	1543324.3317053	1543323.4427452	1543323.4431673	120.0
280.98046875	0.0	80	575448	21	60	400	0	0	1543352.605049	1543352.6055015	80	1543355.7211842	1543355.7216812	40	1543358.751479	1543358.751984	100	imm	1543359.8051244	nan	nan	nan	nan	nan
284.0966796875	0.0	40	581830	21	60	400	0	0	1543352.605049	1543352.6055015	80	1543355.7211842	1543355.7216812	40	1543358.751479	1543358.751984	100	imm	1543359.8051244	nan	nan	nan	nan	nan
287.126953125	0.0	100	588036	21	60	400	0	0	1543352.605049	1543352.6055015	80	1543355.7211842	1543355.7216812	40	1543358.751479	1543358.751984	100	imm	1543359.8051244	nan	nan	nan	nan	nan
290.9169921875	0.0	80	595798	22	80	400	0	1	1543362.541874	1543362.5423572	80	1543366.0177183	1543366.0181526	40	1543369.1633653	1543369.1638575	100	del	1543370.092564	nan	nan	nan	nan	nan
294.39306640625	0.0	40	602917	22	80	400	0	1	1543362.541874	1543362.5423572	80	1543366.0177183	1543366.0181526	40	1543369.1633653	1543369.1638575	100	del	1543370.092564	nan	nan	nan	nan	nan
297.53857421875	0.0	100	609359	22	80	400	0	1	1543362.541874	1543362.5423572	80	1543366.0177183	1543366.0181526	40	1543369.1633653	1543369.1638575	100	del	1543370.092564	nan	nan	nan	nan	nan
301.26953125	0.0	80	617000	23	87	70	0	0	1543372.894424	1543372.8949376	80	1543376.0816935	1543376.0821675	40	1543379.1090578	1543379.1095537	100	del	1543379.9811362	nan	nan	nan	nan	nan
304.45654296875	0.0	40	623527	23	87	70	0	0	1543372.894424	1543372.8949376	80	1543376.0816935	1543376.0821675	40	1543379.1090578	1543379.1095537	100	del	1543379.9811362	nan	nan	nan	nan	nan
307.48388671875	0.0	100	629727	23	87	70	0	0	1543372.894424	1543372.8949376	80	1543376.0816935	1543376.0821675	40	1543379.1090578	1543379.1095537	100	del	1543379.9811362	nan	nan	nan	nan	nan
311.12353515625	0.0	80	637181	24	63	210	0	0	1543382.7490418	1543382.7495557	80	1543386.1684538	1543386.1688116	40	1543389.3123547	1543389.3128391	100	del	1543390.1158767	nan	nan	nan	nan	nan
314.54296875	0.0	40	644184	24	63	210	0	0	1543382.7490418	1543382.7495557	80	1543386.1684538	1543386.1688116	40	1543389.3123547	1543389.3128391	100	del	1543390.1158767	nan	nan	nan	nan	nan
317.68701171875	0.0	100	650623	24	63	210	0	0	1543382.7490418	1543382.7495557	80	1543386.1684538	1543386.1688116	40	1543389.3123547	1543389.3128391	100	del	1543390.1158767	nan	nan	nan	nan	nan
321.03125	0.0	80	657472	25	83	400	0	1	1543392.6569736	1543392.6574968	80	1543395.7883209	1543395.7888156	40	1543399.1320942	1543399.1326369	100	imm	1543401.8136446	nan	nan	nan	nan	nan
324.16259765625	0.0	40	663885	25	83	400	0	1	1543392.6569736	1543392.6574968	80	1543395.7883209	1543395.7888156	40	1543399.1320942	1543399.1326369	100	imm	1543401.8136446	nan	nan	nan	nan	nan
327.50634765625	0.0	100	670733	25	83	400	0	1	1543392.6569736	1543392.6574968	80	1543395.7883209	1543395.7888156	40	1543399.1320942	1543399.1326369	100	imm	1543401.8136446	nan	nan	nan	nan	nan
332.8701171875	0.0	80	681718	26	53	570	1	0	1543404.4960407	1543404.4964873	80	1543407.8333739	1543407.8338254	40	1543410.8537426	1543410.8542377	100	imm	1543412.6282241	1.0	1543414.7485343	1543413.1388952	1543413.1392471	120.0
336.20751953125	0.0	40	688553	26	53	570	1	0	1543404.4960407	1543404.4964873	80	1543407.8333739	1543407.8338254	40	1543410.8537426	1543410.8542377	100	imm	1543412.6282241	1.0	1543414.7485343	1543413.1388952	1543413.1392471	120.0
339.2275390625	0.0	100	694738	26	53	570	1	0	1543404.4960407	1543404.4964873	80	1543407.8333739	1543407.8338254	40	1543410.8537426	1543410.8542377	100	imm	1543412.6282241	1.0	1543414.7485343	1543413.1388952	1543413.1392471	120.0
341.5126953125	0.0	120	699418	26	53	570	1	0	1543404.4960407	1543404.4964873	80	1543407.8333739	1543407.8338254	40	1543410.8537426	1543410.8542377	100	imm	1543412.6282241	1.0	1543414.7485343	1543413.1388952	1543413.1392471	120.0
345.4970703125	0.0	80	707578	27	93	570	1	1	1543417.1234606	1543417.1239689	80	1543420.3264013	1543420.3269127	40	1543423.3566406	1543423.3571728	100	del	1543424.1641458	2.0	1543425.4678602	1543424.6743918	1543424.6747436	120.0
348.7001953125	0.0	40	714138	27	93	570	1	1	1543417.1234606	1543417.1239689	80	1543420.3264013	1543420.3269127	40	1543423.3566406	1543423.3571728	100	del	1543424.1641458	2.0	1543425.4678602	1543424.6743918	1543424.6747436	120.0
351.72998046875	0.0	100	720343	27	93	570	1	1	1543417.1234606	1543417.1239689	80	1543420.3264013	1543420.3269127	40	1543423.3566406	1543423.3571728	100	del	1543424.1641458	2.0	1543425.4678602	1543424.6743918	1543424.6747436	120.0
353.0478515625	0.0	120	723042	27	93	570	1	1	1543417.1234606	1543417.1239689	80	1543420.3264013	1543420.3269127	40	1543423.3566406	1543423.3571728	100	del	1543424.1641458	2.0	1543425.4678602	1543424.6743918	1543424.6747436	120.0
356.0595703125	0.0	80	729210	28	50	9	1	0	1543427.6863545	1543427.6872049	80	1543431.0527907	1543431.0532719	40	1543434.5264937	1543434.5269664	100	del	1543435.4605698	3.0	1543436.7239391	1543435.9739731	1543435.9744862	120.0
359.42626953125	0.0	40	736105	28	50	9	1	0	1543427.6863545	1543427.6872049	80	1543431.0527907	1543431.0532719	40	1543434.5264937	1543434.5269664	100	del	1543435.4605698	3.0	1543436.7239391	1543435.9739731	1543435.9744862	120.0
362.89990234375	0.0	100	743219	28	50	9	1	0	1543427.6863545	1543427.6872049	80	1543431.0527907	1543431.0532719	40	1543434.5264937	1543434.5269664	100	del	1543435.4605698	3.0	1543436.7239391	1543435.9739731	1543435.9744862	120.0
364.34716796875	0.0	120	746183	28	50	9	1	0	1543427.6863545	1543427.6872049	80	1543431.0527907	1543431.0532719	40	1543434.5264937	1543434.5269664	100	del	1543435.4605698	3.0	1543436.7239391	1543435.9739731	1543435.9744862	120.0
367.60546875	0.0	80	752856	29	90	270	1	0	1543439.2322797	1543439.2327971	80	1543442.7327879	1543442.7332848	40	1543446.1947728	1543446.1953379	100	del	1543446.851928	2.0	1543448.388223	1543447.3626122	1543447.3630364	120.0
371.10595703125	0.0	40	760025	29	90	270	1	0	1543439.2322797	1543439.2327971	80	1543442.7327879	1543442.7332848	40	1543446.1947728	1543446.1953379	100	del	1543446.851928	2.0	1543448.388223	1543447.3626122	1543447.3630364	120.0
374.56787109375	0.0	100	767115	29	90	270	1	0	1543439.2322797	1543439.2327971	80	1543442.7327879	1543442.7332848	40	1543446.1947728	1543446.1953379	100	del	1543446.851928	2.0	1543448.388223	1543447.3626122	1543447.3630364	120.0
375.7353515625	0.0	120	769506	29	90	270	1	0	1543439.2322797	1543439.2327971	80	1543442.7327879	1543442.7332848	40	1543446.1947728	1543446.1953379	100	del	1543446.851928	2.0	1543448.388223	1543447.3626122	1543447.3630364	120.0
379.2109375	0.0	80	776624	30	67	30	1	0	1543450.8380094	1543450.8384892	80	1543454.2461834	1543454.2466776	40	1543457.5368991	1543457.537382	100	del	1543458.6616211	3.0	1543459.5403855	1543459.1706835	1543459.1710088	120.0
382.619140625	0.0	40	783604	30	67	30	1	0	1543450.8380094	1543450.8384892	80	1543454.2461834	1543454.2466776	40	1543457.5368991	1543457.537382	100	del	1543458.6616211	3.0	1543459.5403855	1543459.1706835	1543459.1710088	120.0
385.90966796875	0.0	100	790343	30	67	30	1	0	1543450.8380094	1543450.8384892	80	1543454.2461834	1543454.2466776	40	1543457.5368991	1543457.537382	100	del	1543458.6616211	3.0	1543459.5403855	1543459.1706835	1543459.1710088	120.0
387.54296875	0.0	120	793688	30	67	30	1	0	1543450.8380094	1543450.8384892	80	1543454.2461834	1543454.2466776	40	1543457.5368991	1543457.537382	100	del	1543458.6616211	3.0	1543459.5403855	1543459.1706835	1543459.1710088	120.0
390.1376953125	0.0	80	799002	31	53	9	1	1	1543461.7654121	1543461.7659119	80	1543464.8364562	1543464.8369197	40	1543468.1769809	1543468.1776097	100	del	1543468.8452404	3.0	1543469.7477388	1543469.3582717	1543469.3587062	120.0
393.208984375	0.0	40	805292	31	53	9	1	1	1543461.7654121	1543461.7659119	80	1543464.8364562	1543464.8369197	40	1543468.1769809	1543468.1776097	100	del	1543468.8452404	3.0	1543469.7477388	1543469.3582717	1543469.3587062	120.0
396.54931640625	0.0	100	812133	31	53	9	1	1	1543461.7654121	1543461.7659119	80	1543464.8364562	1543464.8369197	40	1543468.1769809	1543468.1776097	100	del	1543468.8452404	3.0	1543469.7477388	1543469.3582717	1543469.3587062	120.0
397.73046875	0.0	120	814552	31	53	9	1	1	1543461.7654121	1543461.7659119	80	1543464.8364562	1543464.8369197	40	1543468.1769809	1543468.1776097	100	del	1543468.8452404	3.0	1543469.7477388	1543469.3582717	1543469.3587062	120.0
400.568359375	0.0	80	820364	32	67	210	0	1	1543472.1960499	1543472.1967341	80	1543475.3410119	1543475.3415124	40	1543478.7744503	1543478.7750996	100	del	1543479.4055702	nan	nan	nan	nan	nan
403.712890625	0.0	40	826804	32	67	210	0	1	1543472.1960499	1543472.1967341	80	1543475.3410119	1543475.3415124	40	1543478.7744503	1543478.7750996	100	del	1543479.4055702	nan	nan	nan	nan	nan
407.146484375	0.0	100	833836	32	67	210	0	1	1543472.1960499	1543472.1967341	80	1543475.3410119	1543475.3415124	40	1543478.7744503	1543478.7750996	100	del	1543479.4055702	nan	nan	nan	nan	nan
410.33056640625	0.0	80	840357	33	97	20	0	1	1543481.9584707	1543481.9590346	80	1543485.155595	1543485.1561093	40	1543488.3025984	1543488.3031086	100	del	1543489.0605827	nan	nan	nan	nan	nan
413.52734375	0.0	40	846904	33	97	20	0	1	1543481.9584707	1543481.9590346	80	1543485.155595	1543485.1561093	40	1543488.3025984	1543488.3031086	100	del	1543489.0605827	nan	nan	nan	nan	nan
416.67431640625	0.0	100	853349	33	97	20	0	1	1543481.9584707	1543481.9590346	80	1543485.155595	1543485.1561093	40	1543488.3025984	1543488.3031086	100	del	1543489.0605827	nan	nan	nan	nan	nan
420.02587890625	0.0	80	860213	34	53	70	0	0	1543491.6541866	1543491.6546795	80	1543494.9777474	1543494.9782363	40	1543498.1513447	1543498.1518354	100	del	1543500.516694	nan	nan	nan	nan	nan
423.34912109375	0.0	40	867019	34	53	70	0	0	1543491.6541866	1543491.6546795	80	1543494.9777474	1543494.9782363	40	1543498.1513447	1543498.1518354	100	del	1543500.516694	nan	nan	nan	nan	nan
426.52294921875	0.0	100	873519	34	53	70	0	0	1543491.6541866	1543491.6546795	80	1543494.9777474	1543494.9782363	40	1543498.1513447	1543498.1518354	100	del	1543500.516694	nan	nan	nan	nan	nan
431.884765625	0.0	80	884500	35	50	400	0	0	1543503.5136329	1543503.5140948	80	1543506.7701184	1543506.770417	40	1543510.1520537	1543510.1525691	100	del	1543511.0359053	nan	nan	nan	nan	nan
435.14111328125	0.0	40	891169	35	50	400	0	0	1543503.5136329	1543503.5140948	80	1543506.7701184	1543506.770417	40	1543510.1520537	1543510.1525691	100	del	1543511.0359053	nan	nan	nan	nan	nan
438.52294921875	0.0	100	898095	35	50	400	0	0	1543503.5136329	1543503.5140948	80	1543506.7701184	1543506.770417	40	1543510.1520537	1543510.1525691	100	del	1543511.0359053	nan	nan	nan	nan	nan
441.931640625	0.0	80	905076	36	100	820	0	1	1543513.5605323	1543513.5610486	80	1543516.8706104	1543516.8710726	40	1543520.1660967	1543520.1663679	100	del	1543523.7882363	nan	nan	nan	nan	nan
445.24169921875	0.0	40	911855	36	100	820	0	1	1543513.5605323	1543513.5610486	80	1543516.8706104	1543516.8710726	40	1543520.1660967	1543520.1663679	100	del	1543523.7882363	nan	nan	nan	nan	nan
448.53662109375	0.0	100	918603	36	100	820	0	1	1543513.5605323	1543513.5610486	80	1543516.8706104	1543516.8710726	40	1543520.1660967	1543520.1663679	100	del	1543523.7882363	nan	nan	nan	nan	nan
455.08056640625	0.0	80	932005	37	90	820	0	0	1543526.7098403	1543526.7104697	80	1543530.0435066	1543530.0438416	40	1543533.4959753	1543533.496486	100	del	1543534.4283229	nan	nan	nan	nan	nan
458.4140625	0.0	40	938832	37	90	820	0	0	1543526.7098403	1543526.7104697	80	1543530.0435066	1543530.0438416	40	1543533.4959753	1543533.496486	100	del	1543534.4283229	nan	nan	nan	nan	nan
461.86669921875	0.0	100	945903	37	90	820	0	0	1543526.7098403	1543526.7104697	80	1543530.0435066	1543530.0438416	40	1543533.4959753	1543533.496486	100	del	1543534.4283229	nan	nan	nan	nan	nan
465.767578125	0.0	80	953892	38	63	820	0	0	1543537.3971984	1543537.3977035	80	1543540.4810807	1543540.4815128	40	1543543.591037	1543543.5915412	100	imm	1543544.1319785	nan	nan	nan	nan	nan
468.8515625	0.0	40	960208	38	63	820	0	0	1543537.3971984	1543537.3977035	80	1543540.4810807	1543540.4815128	40	1543543.591037	1543543.5915412	100	imm	1543544.1319785	nan	nan	nan	nan	nan
471.96142578125	0.0	100	966577	38	63	820	0	0	1543537.3971984	1543537.3977035	80	1543540.4810807	1543540.4815128	40	1543543.591037	1543543.5915412	100	imm	1543544.1319785	nan	nan	nan	nan	nan
475.41650390625	0.0	80	973653	39	57	570	1	1	1543547.0466164	1543547.0470519	80	1543550.0844126	1543550.0849596	40	1543553.2925802	1543553.2930866	100	del	1543554.6677766	3.0	1543556.6767586	1543555.177403	1543555.1777784	120.0
478.45458984375	0.0	40	979875	39	57	570	1	1	1543547.0466164	1543547.0470519	80	1543550.0844126	1543550.0849596	40	1543553.2925802	1543553.2930866	100	del	1543554.6677766	3.0	1543556.6767586	1543555.177403	1543555.1777784	120.0
481.66259765625	0.0	100	986445	39	57	570	1	1	1543547.0466164	1543547.0470519	80	1543550.0844126	1543550.0849596	40	1543553.2925802	1543553.2930866	100	del	1543554.6677766	3.0	1543556.6767586	1543555.177403	1543555.1777784	120.0
483.54736328125	0.0	120	990305	39	57	570	1	1	1543547.0466164	1543547.0470519	80	1543550.0844126	1543550.0849596	40	1543553.2925802	1543553.2930866	100	del	1543554.6677766	3.0	1543556.6767586	1543555.177403	1543555.1777784	120.0
487.21240234375	0.0	80	997811	40	100	70	0	1	1543558.8427243	1543558.8432026	80	1543562.2179111	1543562.2184021	40	1543565.2834839	1543565.2839947	100	del	1543565.9565449	nan	nan	nan	nan	nan
490.58740234375	0.0	40	1004723	40	100	70	0	1	1543558.8427243	1543558.8432026	80	1543562.2179111	1543562.2184021	40	1543565.2834839	1543565.2839947	100	del	1543565.9565449	nan	nan	nan	nan	nan
493.6533203125	0.0	100	1011002	40	100	70	0	1	1543558.8427243	1543558.8432026	80	1543562.2179111	1543562.2184021	40	1543565.2834839	1543565.2839947	100	del	1543565.9565449	nan	nan	nan	nan	nan
518.03466796875	0.0	80	1060935	41	100	270	1	0	1543589.665947	1543589.6663927	80	1543593.065675	1543593.0660925	40	1543596.344719	1543596.3452091	100	del	1543597.1318126	2.0	1543598.7881865	1543597.645467	1543597.645968	120.0
521.4345703125	0.0	40	1067898	41	100	270	1	0	1543589.665947	1543589.6663927	80	1543593.065675	1543593.0660925	40	1543596.344719	1543596.3452091	100	del	1543597.1318126	2.0	1543598.7881865	1543597.645467	1543597.645968	120.0
524.71337890625	0.0	100	1074613	41	100	270	1	0	1543589.665947	1543589.6663927	80	1543593.065675	1543593.0660925	40	1543596.344719	1543596.3452091	100	del	1543597.1318126	2.0	1543598.7881865	1543597.645467	1543597.645968	120.0
526.01416015625	0.0	120	1077277	41	100	270	1	0	1543589.665947	1543589.6663927	80	1543593.065675	1543593.0660925	40	1543596.344719	1543596.3452091	100	del	1543597.1318126	2.0	1543598.7881865	1543597.645467	1543597.645968	120.0
529.2998046875	0.0	80	1084006	42	80	20	0	1	1543600.9312509	1543600.9317677	80	1543603.9742042	1543603.9746988	40	1543607.3005442	1543607.3010271	100	del	1543608.1319979	nan	nan	nan	nan	nan
532.3427734375	0.0	40	1090238	42	80	20	0	1	1543600.9312509	1543600.9317677	80	1543603.9742042	1543603.9746988	40	1543607.3005442	1543607.3010271	100	del	1543608.1319979	nan	nan	nan	nan	nan
535.6689453125	0.0	100	1097050	42	80	20	0	1	1543600.9312509	1543600.9317677	80	1543603.9742042	1543603.9746988	40	1543607.3005442	1543607.3010271	100	del	1543608.1319979	nan	nan	nan	nan	nan
539.03173828125	0.0	80	1103937	43	50	150	1	0	1543610.6635169	1543610.6643589	80	1543613.7023742	1543613.7028928	40	1543616.7806811	1543616.7811863	100	del	1543617.5019149	2.0	1543620.0366634	1543618.0155027	1543618.0160345	120.0
542.07080078125	0.0	40	1110161	43	50	150	1	0	1543610.6635169	1543610.6643589	80	1543613.7023742	1543613.7028928	40	1543616.7806811	1543616.7811863	100	del	1543617.5019149	2.0	1543620.0366634	1543618.0155027	1543618.0160345	120.0
545.14892578125	0.0	100	1116465	43	50	150	1	0	1543610.6635169	1543610.6643589	80	1543613.7023742	1543613.7028928	40	1543616.7806811	1543616.7811863	100	del	1543617.5019149	2.0	1543620.0366634	1543618.0155027	1543618.0160345	120.0
546.3837890625	0.0	120	1118994	43	50	150	1	0	1543610.6635169	1543610.6643589	80	1543613.7023742	1543613.7028928	40	1543616.7806811	1543616.7811863	100	del	1543617.5019149	2.0	1543620.0366634	1543618.0155027	1543618.0160345	120.0
550.6435546875	0.0	80	1127718	44	67	20	0	1	1543622.2755106	1543622.2760033	80	1543625.6201365	1543625.6206296	40	1543629.0625752	1543629.0630773	100	na	1543630.2457779	nan	nan	nan	nan	nan
553.98828125	0.0	40	1134568	44	67	20	0	1	1543622.2755106	1543622.2760033	80	1543625.6201365	1543625.6206296	40	1543629.0625752	1543629.0630773	100	na	1543630.2457779	nan	nan	nan	nan	nan
557.4306640625	0.0	100	1141618	44	67	20	0	1	1543622.2755106	1543622.2760033	80	1543625.6201365	1543625.6206296	40	1543629.0625752	1543629.0630773	100	na	1543630.2457779	nan	nan	nan	nan	nan
561.37646484375	0.0	80	1149699	45	83	30	1	1	1543633.0085663	1543633.0089396	80	1543636.0403006	1543636.0408919	40	1543639.2115006	1543639.2120257	100	del	1543640.6439542	3.0	1543641.8124913	1543641.1555883	1543641.1560133	120.0
564.408203125	0.0	40	1155908	45	83	30	1	1	1543633.0085663	1543633.0089396	80	1543636.0403006	1543636.0408919	40	1543639.2115006	1543639.2120257	100	del	1543640.6439542	3.0	1543641.8124913	1543641.1555883	1543641.1560133	120.0
567.5791015625	0.0	100	1162402	45	83	30	1	1	1543633.0085663	1543633.0089396	80	1543636.0403006	1543636.0408919	40	1543639.2115006	1543639.2120257	100	del	1543640.6439542	3.0	1543641.8124913	1543641.1555883	1543641.1560133	120.0
569.52294921875	0.0	120	1166383	45	83	30	1	1	1543633.0085663	1543633.0089396	80	1543636.0403006	1543636.0408919	40	1543639.2115006	1543639.2120257	100	del	1543640.6439542	3.0	1543641.8124913	1543641.1555883	1543641.1560133	120.0
572.51708984375	0.0	80	1172515	46	63	570	1	0	1543644.1494879	1543644.1498836	80	1543647.5501454	1543647.550618	40	1543650.7077237	1543650.7082586	100	del	1543652.2362152	2.0	1543654.1486373	1543652.7470059	1543652.7473872	120.0
575.91748046875	0.0	40	1179479	46	63	570	1	0	1543644.1494879	1543644.1498836	80	1543647.5501454	1543647.550618	40	1543650.7077237	1543650.7082586	100	del	1543652.2362152	2.0	1543654.1486373	1543652.7470059	1543652.7473872	120.0
579.0751953125	0.0	100	1185946	46	63	570	1	0	1543644.1494879	1543644.1498836	80	1543647.5501454	1543647.550618	40	1543650.7077237	1543650.7082586	100	del	1543652.2362152	2.0	1543654.1486373	1543652.7470059	1543652.7473872	120.0
581.1142578125	0.0	120	1190122	46	63	570	1	0	1543644.1494879	1543644.1498836	80	1543647.5501454	1543647.550618	40	1543650.7077237	1543650.7082586	100	del	1543652.2362152	2.0	1543654.1486373	1543652.7470059	1543652.7473872	120.0
584.77587890625	0.0	80	1197621	47	60	150	1	1	1543656.4090851	1543656.4093939	80	1543659.8259296	1543659.8264182	40	1543663.1365722	1543663.1370678	100	del	1543663.6697141	2.0	1543664.5248245	1543664.1810681	1543664.1815398	120.0
588.19287109375	0.0	40	1204619	47	60	150	1	1	1543656.4090851	1543656.4093939	80	1543659.8259296	1543659.8264182	40	1543663.1365722	1543663.1370678	100	del	1543663.6697141	2.0	1543664.5248245	1543664.1810681	1543664.1815398	120.0
591.50341796875	0.0	100	1211399	47	60	150	1	1	1543656.4090851	1543656.4093939	80	1543659.8259296	1543659.8264182	40	1543663.1365722	1543663.1370678	100	del	1543663.6697141	2.0	1543664.5248245	1543664.1810681	1543664.1815398	120.0
592.5478515625	0.0	120	1213538	47	60	150	1	1	1543656.4090851	1543656.4093939	80	1543659.8259296	1543659.8264182	40	1543663.1365722	1543663.1370678	100	del	1543663.6697141	2.0	1543664.5248245	1543664.1810681	1543664.1815398	120.0
595.17578125	0.0	80	1218920	48	80	570	1	1	1543666.8087469	1543666.809175	80	1543669.9802965	1543669.9806541	40	1543673.1989518	1543673.1994345	100	del	1543673.9883088	1.0	1543675.3962352	1543674.4980522	1543674.4983746	120.0
598.3466796875	0.0	40	1225414	48	80	570	1	1	1543666.8087469	1543666.809175	80	1543669.9802965	1543669.9806541	40	1543673.1989518	1543673.1994345	100	del	1543673.9883088	1.0	1543675.3962352	1543674.4980522	1543674.4983746	120.0
601.5654296875	0.0	100	1232006	48	80	570	1	1	1543666.8087469	1543666.809175	80	1543669.9802965	1543669.9806541	40	1543673.1989518	1543673.1994345	100	del	1543673.9883088	1.0	1543675.3962352	1543674.4980522	1543674.4983746	120.0
602.86474609375	0.0	120	1234667	48	80	570	1	1	1543666.8087469	1543666.809175	80	1543669.9802965	1543669.9806541	40	1543673.1989518	1543673.1994345	100	del	1543673.9883088	1.0	1543675.3962352	1543674.4980522	1543674.4983746	120.0
606.1767578125	0.0	80	1241450	49	87	30	1	1	1543677.81024	1543677.8107622	80	1543680.9899101	1543680.9904879	40	1543684.234346	1543684.2348198	100	del	1543685.0619501	4.0	1543686.2362775	1543685.5752149	1543685.5756939	120.0
609.3564453125	0.0	40	1247962	49	87	30	1	1	1543677.81024	1543677.8107622	80	1543680.9899101	1543680.9904879	40	1543684.234346	1543684.2348198	100	del	1543685.0619501	4.0	1543686.2362775	1543685.5752149	1543685.5756939	120.0
612.6005859375	0.0	100	1254606	49	87	30	1	1	1543677.81024	1543677.8107622	80	1543680.9899101	1543680.9904879	40	1543684.234346	1543684.2348198	100	del	1543685.0619501	4.0	1543686.2362775	1543685.5752149	1543685.5756939	120.0
613.94140625	0.0	120	1257352	49	87	30	1	1	1543677.81024	1543677.8107622	80	1543680.9899101	1543680.9904879	40	1543684.234346	1543684.2348198	100	del	1543685.0619501	4.0	1543686.2362775	1543685.5752149	1543685.5756939	120.0
616.7998046875	0.0	80	1263206	50	97	820	0	1	1543688.4338575	1543688.4343012	80	1543691.7821402	1543691.7824861	40	1543695.0793316	1543695.0798683	100	del	1543695.955975	nan	nan	nan	nan	nan
620.14794921875	0.0	40	1270063	50	97	820	0	1	1543688.4338575	1543688.4343012	80	1543691.7821402	1543691.7824861	40	1543695.0793316	1543695.0798683	100	del	1543695.955975	nan	nan	nan	nan	nan
623.4453125	0.0	100	1276816	50	97	820	0	1	1543688.4338575	1543688.4343012	80	1543691.7821402	1543691.7824861	40	1543695.0793316	1543695.0798683	100	del	1543695.955975	nan	nan	nan	nan	nan
627.16552734375	0.0	80	1284435	51	97	70	0	0	1543698.7995076	1543698.8000209	80	1543702.053652	1543702.0541233	40	1543705.2655596	1543705.2660408	100	del	1543705.8365361	nan	nan	nan	nan	nan
630.41943359375	0.0	40	1291099	51	97	70	0	0	1543698.7995076	1543698.8000209	80	1543702.053652	1543702.0541233	40	1543705.2655596	1543705.2660408	100	del	1543705.8365361	nan	nan	nan	nan	nan
633.63134765625	0.0	100	1297677	51	97	70	0	0	1543698.7995076	1543698.8000209	80	1543702.053652	1543702.0541233	40	1543705.2655596	1543705.2660408	100	del	1543705.8365361	nan	nan	nan	nan	nan
636.95849609375	0.0	80	1304491	52	100	20	0	1	1543708.5928035	1543708.5932666	80	1543711.6335801	1543711.6340355	40	1543714.8522504	1543714.852771	100	del	1543715.6296391	nan	nan	nan	nan	nan
639.9990234375	0.0	40	1310718	52	100	20	0	1	1543708.5928035	1543708.5932666	80	1543711.6335801	1543711.6340355	40	1543714.8522504	1543714.852771	100	del	1543715.6296391	nan	nan	nan	nan	nan
643.2177734375	0.0	100	1317310	52	100	20	0	1	1543708.5928035	1543708.5932666	80	1543711.6335801	1543711.6340355	40	1543714.8522504	1543714.852771	100	del	1543715.6296391	nan	nan	nan	nan	nan
646.99609375	0.0	80	1325048	53	97	270	1	0	1543718.630944	1543718.6314466	80	1543722.0293964	1543722.0298685	40	1543725.4075771	1543725.4080988	100	del	1543725.9728664	2.0	1543727.339951	1543726.4817326	1543726.4820304	120.0
650.39453125	0.0	40	1332008	53	97	270	1	0	1543718.630944	1543718.6314466	80	1543722.0293964	1543722.0298685	40	1543725.4075771	1543725.4080988	100	del	1543725.9728664	2.0	1543727.339951	1543726.4817326	1543726.4820304	120.0
653.77294921875	0.0	100	1338927	53	97	270	1	0	1543718.630944	1543718.6314466	80	1543722.0293964	1543722.0298685	40	1543725.4075771	1543725.4080988	100	del	1543725.9728664	2.0	1543727.339951	1543726.4817326	1543726.4820304	120.0
654.8466796875	0.0	120	1341126	53	97	270	1	0	1543718.630944	1543718.6314466	80	1543722.0293964	1543722.0298685	40	1543725.4075771	1543725.4080988	100	del	1543725.9728664	2.0	1543727.339951	1543726.4817326	1543726.4820304	120.0
658.10546875	0.0	80	1347800	54	73	820	0	1	1543729.7405157	1543729.7409678	80	1543733.1262591	1543733.1267384	40	1543736.5609654	1543736.5614513	100	del	1543737.1320034	nan	nan	nan	nan	nan
661.4912109375	0.0	40	1354734	54	73	820	0	1	1543729.7405157	1543729.7409678	80	1543733.1262591	1543733.1267384	40	1543736.5609654	1543736.5614513	100	del	1543737.1320034	nan	nan	nan	nan	nan
664.92578125	0.0	100	1361768	54	73	820	0	1	1543729.7405157	1543729.7409678	80	1543733.1262591	1543733.1267384	40	1543736.5609654	1543736.5614513	100	del	1543737.1320034	nan	nan	nan	nan	nan
668.40185546875	0.0	80	1368887	55	60	9	1	1	1543740.0369652	1543740.037447	80	1543743.534123	1543743.5346403	40	1543746.6036522	1543746.6041691	100	del	1543747.3324167	3.0	1543748.5577414	1543747.8460054	1543747.8465364	120.0
671.89892578125	0.0	40	1376049	55	60	9	1	1	1543740.0369652	1543740.037447	80	1543743.534123	1543743.5346403	40	1543746.6036522	1543746.6041691	100	del	1543747.3324167	3.0	1543748.5577414	1543747.8460054	1543747.8465364	120.0
674.96826171875	0.0	100	1382335	55	60	9	1	1	1543740.0369652	1543740.037447	80	1543743.534123	1543743.5346403	40	1543746.6036522	1543746.6041691	100	del	1543747.3324167	3.0	1543748.5577414	1543747.8460054	1543747.8465364	120.0
676.21044921875	0.0	120	1384879	55	60	9	1	1	1543740.0369652	1543740.037447	80	1543743.534123	1543743.5346403	40	1543746.6036522	1543746.6041691	100	del	1543747.3324167	3.0	1543748.5577414	1543747.8460054	1543747.8465364	120.0
679.1357421875	0.0	80	1390870	56	73	30	1	1	1543750.7714581	1543750.7719105	80	1543754.0249111	1543754.0254234	40	1543757.1676851	1543757.1681661	100	del	1543757.9488087	4.0	1543759.2519502	1543758.4589671	1543758.4593393	120.0
682.38916015625	0.0	40	1397533	56	73	30	1	1	1543750.7714581	1543750.7719105	80	1543754.0249111	1543754.0254234	40	1543757.1676851	1543757.1681661	100	del	1543757.9488087	4.0	1543759.2519502	1543758.4589671	1543758.4593393	120.0
685.53173828125	0.0	100	1403969	56	73	30	1	1	1543750.7714581	1543750.7719105	80	1543754.0249111	1543754.0254234	40	1543757.1676851	1543757.1681661	100	del	1543757.9488087	4.0	1543759.2519502	1543758.4589671	1543758.4593393	120.0
686.8232421875	0.0	120	1406614	56	73	30	1	1	1543750.7714581	1543750.7719105	80	1543754.0249111	1543754.0254234	40	1543757.1676851	1543757.1681661	100	del	1543757.9488087	4.0	1543759.2519502	1543758.4589671	1543758.4593393	120.0
689.65185546875	0.0	80	1412407	57	63	150	1	1	1543761.2875407	1543761.2880214	80	1543764.782335	1543764.7827984	40	1543768.1542407	1543768.154585	100	del	1543768.7802778	1.0	1543770.252381	1543769.2934251	1543769.2939787	120.0
693.146484375	0.0	40	1419564	57	63	150	1	1	1543761.2875407	1543761.2880214	80	1543764.782335	1543764.7827984	40	1543768.1542407	1543768.154585	100	del	1543768.7802778	1.0	1543770.252381	1543769.2934251	1543769.2939787	120.0
696.51806640625	0.0	100	1426469	57	63	150	1	1	1543761.2875407	1543761.2880214	80	1543764.782335	1543764.7827984	40	1543768.1542407	1543768.154585	100	del	1543768.7802778	1.0	1543770.252381	1543769.2934251	1543769.2939787	120.0
697.65771484375	0.0	120	1428803	57	63	150	1	1	1543761.2875407	1543761.2880214	80	1543764.782335	1543764.7827984	40	1543768.1542407	1543768.154585	100	del	1543768.7802778	1.0	1543770.252381	1543769.2934251	1543769.2939787	120.0
700.70361328125	0.0	80	1435041	58	73	270	1	1	1543772.3397016	1543772.340197	80	1543775.4212084	1543775.4217242	40	1543778.7868029	1543778.7872721	100	del	1543779.2055421	1.0	1543782.6522686	1543779.7177819	1543779.7182223	120.0
703.78515625	0.0	40	1441352	58	73	270	1	1	1543772.3397016	1543772.340197	80	1543775.4212084	1543775.4217242	40	1543778.7868029	1543778.7872721	100	del	1543779.2055421	1.0	1543782.6522686	1543779.7177819	1543779.7182223	120.0
707.150390625	0.0	100	1448244	58	73	270	1	1	1543772.3397016	1543772.340197	80	1543775.4212084	1543775.4217242	40	1543778.7868029	1543778.7872721	100	del	1543779.2055421	1.0	1543782.6522686	1543779.7177819	1543779.7182223	120.0
708.08154296875	0.0	120	1450151	58	73	270	1	1	1543772.3397016	1543772.340197	80	1543775.4212084	1543775.4217242	40	1543778.7868029	1543778.7872721	100	del	1543779.2055421	1.0	1543782.6522686	1543779.7177819	1543779.7182223	120.0
713.22119140625	0.0	80	1460677	59	83	150	1	0	1543784.8579059	1543784.85832	80	1543787.9038125	1543787.904291	40	1543791.1222783	1543791.1227763	100	del	1543792.1961534	1.0	1543793.4847768	1543792.7066522	1543792.7069775	120.0
716.26708984375	0.0	40	1466915	59	83	150	1	0	1543784.8579059	1543784.85832	80	1543787.9038125	1543787.904291	40	1543791.1222783	1543791.1227763	100	del	1543792.1961534	1.0	1543793.4847768	1543792.7066522	1543792.7069775	120.0
719.48583984375	0.0	100	1473507	59	83	150	1	0	1543784.8579059	1543784.85832	80	1543787.9038125	1543787.904291	40	1543791.1222783	1543791.1227763	100	del	1543792.1961534	1.0	1543793.4847768	1543792.7066522	1543792.7069775	120.0
721.06982421875	0.0	120	1476751	59	83	150	1	0	1543784.8579059	1543784.85832	80	1543787.9038125	1543787.904291	40	1543791.1222783	1543791.1227763	100	del	1543792.1961534	1.0	1543793.4847768	1543792.7066522	1543792.7069775	120.0
723.93505859375	0.0	80	1482619	60	100	9	1	1	1543795.5720163	1543795.572528	80	1543798.9800141	1543798.9804663	40	1543802.4596738	1543802.4601546	100	del	1543803.3648585	1.0	1543804.7643418	1543803.875219	1543803.875616	120.0
727.34326171875	0.0	40	1489599	60	100	9	1	1	1543795.5720163	1543795.572528	80	1543798.9800141	1543798.9804663	40	1543802.4596738	1543802.4601546	100	del	1543803.3648585	1.0	1543804.7643418	1543803.875219	1543803.875616	120.0
730.82275390625	0.0	100	1496725	60	100	9	1	1	1543795.5720163	1543795.572528	80	1543798.9800141	1543798.9804663	40	1543802.4596738	1543802.4601546	100	del	1543803.3648585	1.0	1543804.7643418	1543803.875219	1543803.875616	120.0
732.23828125	0.0	120	1499624	60	100	9	1	1	1543795.5720163	1543795.572528	80	1543798.9800141	1543798.9804663	40	1543802.4596738	1543802.4601546	100	del	1543803.3648585	1.0	1543804.7643418	1543803.875219	1543803.875616	120.0
784.16357421875	0.0	80	1605967	61	97	570	1	0	1543855.8020027	1543855.8024119	80	1543859.1351613	1543859.1356787	40	1543862.4857011	1543862.4864852	100	del	1543863.1971337	3.0	1543864.3089832	1543863.7062356	1543863.7065462	120.0
787.49658203125	0.0	40	1612793	61	97	570	1	0	1543855.8020027	1543855.8024119	80	1543859.1351613	1543859.1356787	40	1543862.4857011	1543862.4864852	100	del	1543863.1971337	3.0	1543864.3089832	1543863.7062356	1543863.7065462	120.0
790.8466796875	0.0	100	1619654	61	97	570	1	0	1543855.8020027	1543855.8024119	80	1543859.1351613	1543859.1356787	40	1543862.4857011	1543862.4864852	100	del	1543863.1971337	3.0	1543864.3089832	1543863.7062356	1543863.7065462	120.0
792.0673828125	0.0	120	1622154	61	97	570	1	0	1543855.8020027	1543855.8024119	80	1543859.1351613	1543859.1356787	40	1543862.4857011	1543862.4864852	100	del	1543863.1971337	3.0	1543864.3089832	1543863.7062356	1543863.7065462	120.0
794.81298828125	0.0	80	1627777	62	83	820	0	0	1543866.4518066	1543866.452295	80	1543869.8812777	1543869.8817736	40	1543873.0414059	1543873.0417797	100	imm	1543875.4379397	nan	nan	nan	nan	nan
798.24267578125	0.0	40	1634801	62	83	820	0	0	1543866.4518066	1543866.452295	80	1543869.8812777	1543869.8817736	40	1543873.0414059	1543873.0417797	100	imm	1543875.4379397	nan	nan	nan	nan	nan
801.40234375	0.0	100	1641272	62	83	820	0	0	1543866.4518066	1543866.452295	80	1543869.8812777	1543869.8817736	40	1543873.0414059	1543873.0417797	100	imm	1543875.4379397	nan	nan	nan	nan	nan
806.3291015625	0.0	80	1651362	63	67	820	0	1	1543877.9680126	1543877.9684752	80	1543881.0222574	1543881.0227602	40	1543884.4348901	1543884.4353909	100	imm	1543885.5327118	nan	nan	nan	nan	nan
809.38330078125	0.0	40	1657617	63	67	820	0	1	1543877.9680126	1543877.9684752	80	1543881.0222574	1543881.0227602	40	1543884.4348901	1543884.4353909	100	imm	1543885.5327118	nan	nan	nan	nan	nan
812.79541015625	0.0	100	1664605	63	67	820	0	1	1543877.9680126	1543877.9684752	80	1543881.0222574	1543881.0227602	40	1543884.4348901	1543884.4353909	100	imm	1543885.5327118	nan	nan	nan	nan	nan
816.76708984375	0.0	80	1672739	64	93	30	1	0	1543888.406399	1543888.4068206	80	1543891.8054854	1543891.8059475	40	1543895.1313302	1543895.1333111	100	del	1543896.4686337	3.0	1543897.7570871	1543896.9813248	1543896.9817978	120.0
820.166015625	0.0	40	1679700	64	93	30	1	0	1543888.406399	1543888.4068206	80	1543891.8054854	1543891.8059475	40	1543895.1313302	1543895.1333111	100	del	1543896.4686337	3.0	1543897.7570871	1543896.9813248	1543896.9817978	120.0
823.49169921875	0.0	100	1686511	64	93	30	1	0	1543888.406399	1543888.4068206	80	1543891.8054854	1543891.8059475	40	1543895.1313302	1543895.1333111	100	del	1543896.4686337	3.0	1543897.7570871	1543896.9813248	1543896.9817978	120.0
825.341796875	0.0	120	1690300	64	93	30	1	0	1543888.406399	1543888.4068206	80	1543891.8054854	1543891.8059475	40	1543895.1313302	1543895.1333111	100	del	1543896.4686337	3.0	1543897.7570871	1543896.9813248	1543896.9817978	120.0
828.54443359375	0.0	80	1696859	65	57	20	0	0	1543900.1841953	1543900.1846858	80	1543903.2090816	1543903.2095412	40	1543906.4255044	1543906.425992	100	del	1543907.3322193	nan	nan	nan	nan	nan
831.5693359375	0.0	40	1703054	65	57	20	0	0	1543900.1841953	1543900.1846858	80	1543903.2090816	1543903.2095412	40	1543906.4255044	1543906.425992	100	del	1543907.3322193	nan	nan	nan	nan	nan
834.78564453125	0.0	100	1709641	65	57	20	0	0	1543900.1841953	1543900.1846858	80	1543903.2090816	1543903.2095412	40	1543906.4255044	1543906.425992	100	del	1543907.3322193	nan	nan	nan	nan	nan
838.3349609375	0.0	80	1716910	66	93	270	1	1	1543909.9747029	1543909.9751844	80	1543913.222965	1543913.2234302	40	1543916.6767695	1543916.6772908	100	del	1543917.2616255	1.0	1543919.0204128	1543917.7735777	1543917.7739359	120.0
841.5830078125	0.0	40	1723562	66	93	270	1	1	1543909.9747029	1543909.9751844	80	1543913.222965	1543913.2234302	40	1543916.6767695	1543916.6772908	100	del	1543917.2616255	1.0	1543919.0204128	1543917.7735777	1543917.7739359	120.0
845.03662109375	0.0	100	1730635	66	93	270	1	1	1543909.9747029	1543909.9751844	80	1543913.222965	1543913.2234302	40	1543916.6767695	1543916.6772908	100	del	1543917.2616255	1.0	1543919.0204128	1543917.7735777	1543917.7739359	120.0
846.13330078125	0.0	120	1732881	66	93	270	1	1	1543909.9747029	1543909.9751844	80	1543913.222965	1543913.2234302	40	1543916.6767695	1543916.6772908	100	del	1543917.2616255	1.0	1543919.0204128	1543917.7735777	1543917.7739359	120.0
849.53564453125	0.0	80	1739849	67	83	20	0	1	1543921.1759906	1543921.1764692	80	1543924.4828696	1543924.4834362	40	1543927.5098832	1543927.5104416	100	na	1543928.0859999	nan	nan	nan	nan	nan
852.8427734375	0.0	40	1746622	67	83	20	0	1	1543921.1759906	1543921.1764692	80	1543924.4828696	1543924.4834362	40	1543927.5098832	1543927.5104416	100	na	1543928.0859999	nan	nan	nan	nan	nan
855.86962890625	0.0	100	1752821	67	83	20	0	1	1543921.1759906	1543921.1764692	80	1543924.4828696	1543924.4834362	40	1543927.5098832	1543927.5104416	100	na	1543928.0859999	nan	nan	nan	nan	nan
859.04052734375	0.0	80	1759315	68	57	210	0	0	1543930.6809712	1543930.6814842	80	1543934.1067396	1543934.1073617	40	1543937.2177678	1543937.2182484	100	imm	1543937.7565744	nan	nan	nan	nan	nan
862.46630859375	0.0	40	1766331	68	57	210	0	0	1543930.6809712	1543930.6814842	80	1543934.1067396	1543934.1073617	40	1543937.2177678	1543937.2182484	100	imm	1543937.7565744	nan	nan	nan	nan	nan
865.5771484375	0.0	100	1772702	68	57	210	0	0	1543930.6809712	1543930.6814842	80	1543934.1067396	1543934.1073617	40	1543937.2177678	1543937.2182484	100	imm	1543937.7565744	nan	nan	nan	nan	nan
869.0478515625	0.0	80	1779810	69	90	70	0	0	1543940.6887085	1543940.689236	80	1543943.8658522	1543943.8662851	40	1543947.2150426	1543947.2155272	100	del	1543948.0290533	nan	nan	nan	nan	nan
872.22509765625	0.0	40	1786317	69	90	70	0	0	1543940.6887085	1543940.689236	80	1543943.8658522	1543943.8662851	40	1543947.2150426	1543947.2155272	100	del	1543948.0290533	nan	nan	nan	nan	nan
875.57421875	0.0	100	1793176	69	90	70	0	0	1543940.6887085	1543940.689236	80	1543943.8658522	1543943.8662851	40	1543947.2150426	1543947.2155272	100	del	1543948.0290533	nan	nan	nan	nan	nan
878.9287109375	0.0	80	1800046	70	97	30	1	1	1543950.5696243	1543950.570077	80	1543953.9447031	1543953.9452536	40	1543957.2079382	1543957.2084739	100	del	1543959.3803837	4.0	1543960.3964505	1543959.8907527	1543959.8912397	120.0
882.3037109375	0.0	40	1806958	70	97	30	1	1	1543950.5696243	1543950.570077	80	1543953.9447031	1543953.9452536	40	1543957.2079382	1543957.2084739	100	del	1543959.3803837	4.0	1543960.3964505	1543959.8907527	1543959.8912397	120.0
885.56640625	0.0	100	1813640	70	97	30	1	1	1543950.5696243	1543950.570077	80	1543953.9447031	1543953.9452536	40	1543957.2079382	1543957.2084739	100	del	1543959.3803837	4.0	1543960.3964505	1543959.8907527	1543959.8912397	120.0
888.24951171875	0.0	120	1819135	70	97	30	1	1	1543950.5696243	1543950.570077	80	1543953.9447031	1543953.9452536	40	1543957.2079382	1543957.2084739	100	del	1543959.3803837	4.0	1543960.3964505	1543959.8907527	1543959.8912397	120.0
891.240234375	0.0	80	1825260	71	90	210	0	0	1543962.8817404	1543962.8822764	80	1543966.0342835	1543966.0347569	40	1543969.2354559	1543969.2359481	100	del	1543969.8604301	nan	nan	nan	nan	nan
894.392578125	0.0	40	1831716	71	90	210	0	0	1543962.8817404	1543962.8822764	80	1543966.0342835	1543966.0347569	40	1543969.2354559	1543969.2359481	100	del	1543969.8604301	nan	nan	nan	nan	nan
897.59375	0.0	100	1838272	71	90	210	0	0	1543962.8817404	1543962.8822764	80	1543966.0342835	1543966.0347569	40	1543969.2354559	1543969.2359481	100	del	1543969.8604301	nan	nan	nan	nan	nan
900.7900390625	0.0	80	1844818	72	83	570	1	0	1543972.4315461	1543972.4317756	80	1543975.9197665	1543975.9200888	40	1543979.1485888	1543979.1491232	100	del	1543979.9566557	1.0	1543981.6766533	1543980.469628	1543980.4702629	120.0
904.27783203125	0.0	40	1851961	72	83	570	1	0	1543972.4315461	1543972.4317756	80	1543975.9197665	1543975.9200888	40	1543979.1485888	1543979.1491232	100	del	1543979.9566557	1.0	1543981.6766533	1543980.469628	1543980.4702629	120.0
907.5068359375	0.0	100	1858574	72	83	570	1	0	1543972.4315461	1543972.4317756	80	1543975.9197665	1543975.9200888	40	1543979.1485888	1543979.1491232	100	del	1543979.9566557	1.0	1543981.6766533	1543980.469628	1543980.4702629	120.0
908.82763671875	0.0	120	1861279	72	83	570	1	0	1543972.4315461	1543972.4317756	80	1543975.9197665	1543975.9200888	40	1543979.1485888	1543979.1491232	100	del	1543979.9566557	1.0	1543981.6766533	1543980.469628	1543980.4702629	120.0
912.0927734375	0.0	80	1867966	73	67	9	1	0	1543983.7349709	1543983.7354815	80	1543987.1010388	1543987.1015792	40	1543990.3677688	1543990.3683319	100	del	1543990.9010163	4.0	1543991.8860977	1543991.4109963	1543991.4113015	120.0
915.458984375	0.0	40	1874860	73	67	9	1	0	1543983.7349709	1543983.7354815	80	1543987.1010388	1543987.1015792	40	1543990.3677688	1543990.3683319	100	del	1543990.9010163	4.0	1543991.8860977	1543991.4109963	1543991.4113015	120.0
918.7255859375	0.0	100	1881550	73	67	9	1	0	1543983.7349709	1543983.7354815	80	1543987.1010388	1543987.1015792	40	1543990.3677688	1543990.3683319	100	del	1543990.9010163	4.0	1543991.8860977	1543991.4109963	1543991.4113015	120.0
919.7685546875	0.0	120	1883686	73	67	9	1	0	1543983.7349709	1543983.7354815	80	1543987.1010388	1543987.1015792	40	1543990.3677688	1543990.3683319	100	del	1543990.9010163	4.0	1543991.8860977	1543991.4109963	1543991.4113015	120.0
922.4228515625	0.0	80	1889122	74	87	9	1	1	1543994.0653016	1543994.0657891	80	1543997.4502714	1543997.4508073	40	1544000.8818533	1544000.8823722	100	del	1544002.0050661	4.0	1544002.8202365	1544002.5143643	1544002.5147118	120.0
925.8076171875	0.0	40	1896054	74	87	9	1	1	1543994.0653016	1543994.0657891	80	1543997.4502714	1543997.4508073	40	1544000.8818533	1544000.8823722	100	del	1544002.0050661	4.0	1544002.8202365	1544002.5143643	1544002.5147118	120.0
929.2392578125	0.0	100	1903082	74	87	9	1	1	1543994.0653016	1543994.0657891	80	1543997.4502714	1543997.4508073	40	1544000.8818533	1544000.8823722	100	del	1544002.0050661	4.0	1544002.8202365	1544002.5143643	1544002.5147118	120.0
930.87158203125	0.0	120	1906425	74	87	9	1	1	1543994.0653016	1543994.0657891	80	1543997.4502714	1543997.4508073	40	1544000.8818533	1544000.8823722	100	del	1544002.0050661	4.0	1544002.8202365	1544002.5143643	1544002.5147118	120.0
933.3203125	0.0	80	1911440	75	73	20	0	0	1544004.9630522	1544004.9635729	80	1544008.2380527	1544008.2385056	40	1544011.4690172	1544011.4694772	100	del	1544012.7740251	nan	nan	nan	nan	nan
936.59521484375	0.0	40	1918147	75	73	20	0	0	1544004.9630522	1544004.9635729	80	1544008.2380527	1544008.2385056	40	1544011.4690172	1544011.4694772	100	del	1544012.7740251	nan	nan	nan	nan	nan
939.826171875	0.0	100	1924764	75	73	20	0	0	1544004.9630522	1544004.9635729	80	1544008.2380527	1544008.2385056	40	1544011.4690172	1544011.4694772	100	del	1544012.7740251	nan	nan	nan	nan	nan
943.72412109375	0.0	80	1932747	76	100	210	0	1	1544015.3668855	1544015.367016	80	1544018.6738902	1544018.6744173	40	1544022.1560788	1544022.1565489	100	del	1544022.6769459	nan	nan	nan	nan	nan
947.03076171875	0.0	40	1939519	76	100	210	0	1	1544015.3668855	1544015.367016	80	1544018.6738902	1544018.6744173	40	1544022.1560788	1544022.1565489	100	del	1544022.6769459	nan	nan	nan	nan	nan
950.51318359375	0.0	100	1946651	76	100	210	0	1	1544015.3668855	1544015.367016	80	1544018.6738902	1544018.6744173	40	1544022.1560788	1544022.1565489	100	del	1544022.6769459	nan	nan	nan	nan	nan
953.6064453125	0.0	80	1952986	77	70	400	0	1	1544025.2495768	1544025.2501158	80	1544028.7071033	1544028.7075918	40	1544031.9953206	1544031.9958205	100	del	1544032.5336583	nan	nan	nan	nan	nan
957.06396484375	0.0	40	1960067	77	70	400	0	1	1544025.2495768	1544025.2501158	80	1544028.7071033	1544028.7075918	40	1544031.9953206	1544031.9958205	100	del	1544032.5336583	nan	nan	nan	nan	nan
960.35205078125	0.0	100	1966801	77	70	400	0	1	1544025.2495768	1544025.2501158	80	1544028.7071033	1544028.7075918	40	1544031.9953206	1544031.9958205	100	del	1544032.5336583	nan	nan	nan	nan	nan
963.62158203125	0.0	80	1973497	78	73	570	1	1	1544035.2652406	1544035.2657312	80	1544038.3493792	1544038.34989	40	1544041.4865929	1544041.4870833	100	del	1544042.6447341	1.0	1544043.5258367	1544043.1542639	1544043.154597	120.0
966.7060546875	0.0	40	1979814	78	73	570	1	1	1544035.2652406	1544035.2657312	80	1544038.3493792	1544038.34989	40	1544041.4865929	1544041.4870833	100	del	1544042.6447341	1.0	1544043.5258367	1544043.1542639	1544043.154597	120.0
969.8427734375	0.0	100	1986238	78	73	570	1	1	1544035.2652406	1544035.2657312	80	1544038.3493792	1544038.34989	40	1544041.4865929	1544041.4870833	100	del	1544042.6447341	1.0	1544043.5258367	1544043.1542639	1544043.154597	120.0
971.51025390625	0.0	120	1989653	78	73	570	1	1	1544035.2652406	1544035.2657312	80	1544038.3493792	1544038.34989	40	1544041.4865929	1544041.4870833	100	del	1544042.6447341	1.0	1544043.5258367	1544043.1542639	1544043.154597	120.0
974.12109375	0.0	80	1995000	79	57	400	0	0	1544045.7649918	1544045.7654737	80	1544049.0388534	1544049.0393642	40	1544052.2300668	1544052.2306186	100	imm	1544052.748725	nan	nan	nan	nan	nan
977.39501953125	0.0	40	2001705	79	57	400	0	0	1544045.7649918	1544045.7654737	80	1544049.0388534	1544049.0393642	40	1544052.2300668	1544052.2306186	100	imm	1544052.748725	nan	nan	nan	nan	nan
980.58642578125	0.0	100	2008241	79	57	400	0	0	1544045.7649918	1544045.7654737	80	1544049.0388534	1544049.0393642	40	1544052.2300668	1544052.2306186	100	imm	1544052.748725	nan	nan	nan	nan	nan
984.00830078125	0.0	80	2015249	80	90	30	1	0	1544055.6525171	1544055.653029	80	1544059.1007666	1544059.101243	40	1544062.4814705	1544062.481933	100	del	1544063.4771843	4.0	1544064.5660087	1544063.9895482	1544063.990028	120.0
987.45654296875	0.0	40	2022311	80	90	30	1	0	1544055.6525171	1544055.653029	80	1544059.1007666	1544059.101243	40	1544062.4814705	1544062.481933	100	del	1544063.4771843	4.0	1544064.5660087	1544063.9895482	1544063.990028	120.0
990.83740234375	0.0	100	2029235	80	90	30	1	0	1544055.6525171	1544055.653029	80	1544059.1007666	1544059.101243	40	1544062.4814705	1544062.481933	100	del	1544063.4771843	4.0	1544064.5660087	1544063.9895482	1544063.990028	120.0
992.34521484375	0.0	120	2032323	80	90	30	1	0	1544055.6525171	1544055.653029	80	1544059.1007666	1544059.101243	40	1544062.4814705	1544062.481933	100	del	1544063.4771843	4.0	1544064.5660087	1544063.9895482	1544063.990028	120.0
1056.4375	0.0	80	2163584	81	97	9	1	0	1544128.0836383	1544128.084122	80	1544131.394363	1544131.3948519	40	1544134.7284167	1544134.7288932	100	del	1544135.5019841	4.0	1544136.3814022	1544136.0112507	1544136.0115753	120.0
1059.748046875	0.0	40	2170364	81	97	9	1	0	1544128.0836383	1544128.084122	80	1544131.394363	1544131.3948519	40	1544134.7284167	1544134.7288932	100	del	1544135.5019841	4.0	1544136.3814022	1544136.0112507	1544136.0115753	120.0
1063.08203125	0.0	100	2177192	81	97	9	1	0	1544128.0836383	1544128.084122	80	1544131.394363	1544131.3948519	40	1544134.7284167	1544134.7288932	100	del	1544135.5019841	4.0	1544136.3814022	1544136.0112507	1544136.0115753	120.0
1064.36474609375	0.0	120	2179819	81	97	9	1	0	1544128.0836383	1544128.084122	80	1544131.394363	1544131.3948519	40	1544134.7284167	1544134.7288932	100	del	1544135.5019841	4.0	1544136.3814022	1544136.0112507	1544136.0115753	120.0
1066.81494140625	0.0	80	2184837	82	90	150	1	1	1544138.4611865	1544138.4616015	80	1544141.7168021	1544141.7173833	40	1544144.8861302	1544144.8866643	100	del	1544145.5406126	2.0	1544146.7966296	1544146.0543771	1544146.0548939	120.0
1070.0703125	0.0	40	2191504	82	90	150	1	1	1544138.4611865	1544138.4616015	80	1544141.7168021	1544141.7173833	40	1544144.8861302	1544144.8866643	100	del	1544145.5406126	2.0	1544146.7966296	1544146.0543771	1544146.0548939	120.0
1073.23974609375	0.0	100	2197995	82	90	150	1	1	1544138.4611865	1544138.4616015	80	1544141.7168021	1544141.7173833	40	1544144.8861302	1544144.8866643	100	del	1544145.5406126	2.0	1544146.7966296	1544146.0543771	1544146.0548939	120.0
1074.40771484375	0.0	120	2200387	82	90	150	1	1	1544138.4611865	1544138.4616015	80	1544141.7168021	1544141.7173833	40	1544144.8861302	1544144.8866643	100	del	1544145.5406126	2.0	1544146.7966296	1544146.0543771	1544146.0548939	120.0
1077.45361328125	0.0	80	2206625	83	57	9	1	0	1544149.1001649	1544149.1008454	80	1544152.5798819	1544152.5803641	40	1544155.8078808	1544155.8083504	100	del	1544156.3019429	4.0	1544157.1250022	1544156.8118715	1544156.8123834	120.0
1080.93310546875	0.0	40	2213751	83	57	9	1	0	1544149.1001649	1544149.1008454	80	1544152.5798819	1544152.5803641	40	1544155.8078808	1544155.8083504	100	del	1544156.3019429	4.0	1544157.1250022	1544156.8118715	1544156.8123834	120.0
1084.1611328125	0.0	100	2220362	83	57	9	1	0	1544149.1001649	1544149.1008454	80	1544152.5798819	1544152.5803641	40	1544155.8078808	1544155.8083504	100	del	1544156.3019429	4.0	1544157.1250022	1544156.8118715	1544156.8123834	120.0
1085.1650390625	0.0	120	2222418	83	57	9	1	0	1544149.1001649	1544149.1008454	80	1544152.5798819	1544152.5803641	40	1544155.8078808	1544155.8083504	100	del	1544156.3019429	4.0	1544157.1250022	1544156.8118715	1544156.8123834	120.0
1087.5087890625	0.0	80	2227218	84	83	270	1	1	1544159.1556425	1544159.1559694	80	1544162.6279564	1544162.6284568	40	1544166.104428	1544166.1049533	100	del	1544167.0766181	2.0	1544168.5412237	1544167.5873173	1544167.5876807	120.0
1090.98095703125	0.0	40	2234329	84	83	270	1	1	1544159.1556425	1544159.1559694	80	1544162.6279564	1544162.6284568	40	1544166.104428	1544166.1049533	100	del	1544167.0766181	2.0	1544168.5412237	1544167.5873173	1544167.5876807	120.0
1094.45751953125	0.0	100	2241449	84	83	270	1	1	1544159.1556425	1544159.1559694	80	1544162.6279564	1544162.6284568	40	1544166.104428	1544166.1049533	100	del	1544167.0766181	2.0	1544168.5412237	1544167.5873173	1544167.5876807	120.0
1095.93994140625	0.0	120	2244485	84	83	270	1	1	1544159.1556425	1544159.1559694	80	1544162.6279564	1544162.6284568	40	1544166.104428	1544166.1049533	100	del	1544167.0766181	2.0	1544168.5412237	1544167.5873173	1544167.5876807	120.0
1099.0888671875	0.0	80	2250934	85	67	270	1	0	1544170.7359774	1544170.7364632	80	1544173.8738248	1544173.8743221	40	1544177.2806186	1544177.2810745	100	del	1544178.0214282	1.0	1544179.5023113	1544178.5318769	1544178.5324882	120.0
1102.2265625	0.0	40	2257360	85	67	270	1	0	1544170.7359774	1544170.7364632	80	1544173.8738248	1544173.8743221	40	1544177.2806186	1544177.2810745	100	del	1544178.0214282	1.0	1544179.5023113	1544178.5318769	1544178.5324882	120.0
1105.63330078125	0.0	100	2264337	85	67	270	1	0	1544170.7359774	1544170.7364632	80	1544173.8738248	1544173.8743221	40	1544177.2806186	1544177.2810745	100	del	1544178.0214282	1.0	1544179.5023113	1544178.5318769	1544178.5324882	120.0
1106.884765625	0.0	120	2266900	85	67	270	1	0	1544170.7359774	1544170.7364632	80	1544173.8738248	1544173.8743221	40	1544177.2806186	1544177.2810745	100	del	1544178.0214282	1.0	1544179.5023113	1544178.5318769	1544178.5324882	120.0
1110.126953125	0.0	80	2273540	86	80	820	0	1	1544181.7743879	1544181.7748979	80	1544185.0647157	1544185.0652825	40	1544188.4172493	1544188.4176245	100	imm	1544189.1171817	nan	nan	nan	nan	nan
1113.4169921875	0.0	40	2280278	86	80	820	0	1	1544181.7743879	1544181.7748979	80	1544185.0647157	1544185.0652825	40	1544188.4172493	1544188.4176245	100	imm	1544189.1171817	nan	nan	nan	nan	nan
1116.76953125	0.0	100	2287144	86	80	820	0	1	1544181.7743879	1544181.7748979	80	1544185.0647157	1544185.0652825	40	1544188.4172493	1544188.4176245	100	imm	1544189.1171817	nan	nan	nan	nan	nan
1120.0322265625	0.0	80	2293826	87	60	820	0	1	1544191.6801652	1544191.6805673	80	1544195.1239046	1544195.1245094	40	1544198.6084402	1544198.6089515	100	imm	1544199.8206281	nan	nan	nan	nan	nan
1123.47607421875	0.0	40	2300879	87	60	820	0	1	1544191.6801652	1544191.6805673	80	1544195.1239046	1544195.1245094	40	1544198.6084402	1544198.6089515	100	imm	1544199.8206281	nan	nan	nan	nan	nan
1126.96044921875	0.0	100	2308015	87	60	820	0	1	1544191.6801652	1544191.6805673	80	1544195.1239046	1544195.1245094	40	1544198.6084402	1544198.6089515	100	imm	1544199.8206281	nan	nan	nan	nan	nan
1130.73974609375	0.0	80	2315755	88	70	30	1	0	1544202.3881751	1544202.3885671	80	1544205.8184919	1544205.8189674	40	1544209.2865458	1544209.2870426	100	del	1544210.1654182	4.0	1544210.9414611	1544210.6785173	1544210.6790443	120.0
1134.17041015625	0.0	40	2322781	88	70	30	1	0	1544202.3881751	1544202.3885671	80	1544205.8184919	1544205.8189674	40	1544209.2865458	1544209.2870426	100	del	1544210.1654182	4.0	1544210.9414611	1544210.6785173	1544210.6790443	120.0
1137.63818359375	0.0	100	2329883	88	70	30	1	0	1544202.3881751	1544202.3885671	80	1544205.8184919	1544205.8189674	40	1544209.2865458	1544209.2870426	100	del	1544210.1654182	4.0	1544210.9414611	1544210.6785173	1544210.6790443	120.0
1139.0302734375	0.0	120	2332734	88	70	30	1	0	1544202.3881751	1544202.3885671	80	1544205.8184919	1544205.8189674	40	1544209.2865458	1544209.2870426	100	del	1544210.1654182	4.0	1544210.9414611	1544210.6785173	1544210.6790443	120.0
1141.314453125	0.0	80	2337412	89	83	210	0	1	1544212.9628513	1544212.9632954	80	1544216.2322333	1544216.2327216	40	1544219.5705	1544219.5710038	100	imm	1544220.5329806	nan	nan	nan	nan	nan
1144.58349609375	0.0	40	2344107	89	83	210	0	1	1544212.9628513	1544212.9632954	80	1544216.2322333	1544216.2327216	40	1544219.5705	1544219.5710038	100	imm	1544220.5329806	nan	nan	nan	nan	nan
1147.921875	0.0	100	2350944	89	83	210	0	1	1544212.9628513	1544212.9632954	80	1544216.2322333	1544216.2327216	40	1544219.5705	1544219.5710038	100	imm	1544220.5329806	nan	nan	nan	nan	nan
1151.5947265625	0.0	80	2358466	90	57	270	1	1	1544223.2435373	1544223.2440103	80	1544226.5764578	1544226.5769682	40	1544229.970788	1544229.9712872	100	del	1544230.5092301	1.0	1544231.4690336	1544231.020052	1544231.0205748	120.0
1154.927734375	0.0	40	2365292	90	57	270	1	1	1544223.2435373	1544223.2440103	80	1544226.5764578	1544226.5769682	40	1544229.970788	1544229.9712872	100	del	1544230.5092301	1.0	1544231.4690336	1544231.020052	1544231.0205748	120.0
1158.32177734375	0.0	100	2372243	90	57	270	1	1	1544223.2435373	1544223.2440103	80	1544226.5764578	1544226.5769682	40	1544229.970788	1544229.9712872	100	del	1544230.5092301	1.0	1544231.4690336	1544231.020052	1544231.0205748	120.0
1159.37109375	0.0	120	2374392	90	57	270	1	1	1544223.2435373	1544223.2440103	80	1544226.5764578	1544226.5769682	40	1544229.970788	1544229.9712872	100	del	1544230.5092301	1.0	1544231.4690336	1544231.020052	1544231.0205748	120.0
1162.12255859375	0.0	80	2380027	91	53	20	0	1	1544233.7717552	1544233.7722188	80	1544237.0960597	1544237.0965829	40	1544240.2451124	1544240.2454982	100	del	1544241.7178426	nan	nan	nan	nan	nan
1165.44677734375	0.0	40	2386835	91	53	20	0	1	1544233.7717552	1544233.7722188	80	1544237.0960597	1544237.0965829	40	1544240.2451124	1544240.2454982	100	del	1544241.7178426	nan	nan	nan	nan	nan
1168.595703125	0.0	100	2393284	91	53	20	0	1	1544233.7717552	1544233.7722188	80	1544237.0960597	1544237.0965829	40	1544240.2451124	1544240.2454982	100	del	1544241.7178426	nan	nan	nan	nan	nan
1173.0009765625	0.0	80	2402306	92	67	150	1	0	1544244.650069	1544244.6502504	80	1544247.8690332	1544247.8694048	40	1544251.198255	1544251.1987556	100	del	1544251.9413692	1.0	1544252.6931467	1544252.4549012	1544252.4554723	120.0
1176.2197265625	0.0	40	2408898	92	67	150	1	0	1544244.650069	1544244.6502504	80	1544247.8690332	1544247.8694048	40	1544251.198255	1544251.1987556	100	del	1544251.9413692	1.0	1544252.6931467	1544252.4549012	1544252.4554723	120.0
1179.548828125	0.0	100	2415716	92	67	150	1	0	1544244.650069	1544244.6502504	80	1544247.8690332	1544247.8694048	40	1544251.198255	1544251.1987556	100	del	1544251.9413692	1.0	1544252.6931467	1544252.4549012	1544252.4554723	120.0
1180.8056640625	0.0	120	2418290	92	67	150	1	0	1544244.650069	1544244.6502504	80	1544247.8690332	1544247.8694048	40	1544251.198255	1544251.1987556	100	del	1544251.9413692	1.0	1544252.6931467	1544252.4549012	1544252.4554723	120.0
1183.47412109375	0.0	80	2423755	93	50	270	1	1	1544255.1234648	1544255.1239681	80	1544258.2659804	1544258.2665397	40	1544261.4798297	1544261.4805428	100	del	1544262.2849075	1.0	1544263.3405073	1544262.7978433	1544262.7983312	120.0
1186.6162109375	0.0	40	2430190	93	50	270	1	1	1544255.1234648	1544255.1239681	80	1544258.2659804	1544258.2665397	40	1544261.4798297	1544261.4805428	100	del	1544262.2849075	1.0	1544263.3405073	1544262.7978433	1544262.7983312	120.0
1189.83056640625	0.0	100	2436773	93	50	270	1	1	1544255.1234648	1544255.1239681	80	1544258.2659804	1544258.2665397	40	1544261.4798297	1544261.4805428	100	del	1544262.2849075	1.0	1544263.3405073	1544262.7978433	1544262.7983312	120.0
1191.14794921875	0.0	120	2439471	93	50	270	1	1	1544255.1234648	1544255.1239681	80	1544258.2659804	1544258.2665397	40	1544261.4798297	1544261.4805428	100	del	1544262.2849075	1.0	1544263.3405073	1544262.7978433	1544262.7983312	120.0
1193.9833984375	0.0	80	2445278	94	87	270	1	1	1544265.6332554	1544265.633678	80	1544268.8628937	1544268.8633496	40	1544271.921616	1544271.9221429	100	del	1544272.684703	2.0	1544274.0374623	1544273.1941859	1544273.1945062	120.0
1197.212890625	0.0	40	2451892	94	87	270	1	1	1544265.6332554	1544265.633678	80	1544268.8628937	1544268.8633496	40	1544271.921616	1544271.9221429	100	del	1544272.684703	2.0	1544274.0374623	1544273.1941859	1544273.1945062	120.0
1200.271484375	0.0	100	2458156	94	87	270	1	1	1544265.6332554	1544265.633678	80	1544268.8628937	1544268.8633496	40	1544271.921616	1544271.9221429	100	del	1544272.684703	2.0	1544274.0374623	1544273.1941859	1544273.1945062	120.0
1201.5439453125	0.0	120	2460762	94	87	270	1	1	1544265.6332554	1544265.633678	80	1544268.8628937	1544268.8633496	40	1544271.921616	1544271.9221429	100	del	1544272.684703	2.0	1544274.0374623	1544273.1941859	1544273.1945062	120.0
1204.77490234375	0.0	80	2467379	95	100	570	1	0	1544276.4252393	1544276.4257481	80	1544279.448945	1544279.4493954	40	1544282.6771874	1544282.6776601	100	del	1544283.5014931	2.0	1544284.6613883	1544284.0117055	1544284.0121015	120.0
1207.798828125	0.0	40	2473572	95	100	570	1	0	1544276.4252393	1544276.4257481	80	1544279.448945	1544279.4493954	40	1544282.6771874	1544282.6776601	100	del	1544283.5014931	2.0	1544284.6613883	1544284.0117055	1544284.0121015	120.0
1211.02685546875	0.0	100	2480183	95	100	570	1	0	1544276.4252393	1544276.4257481	80	1544279.448945	1544279.4493954	40	1544282.6771874	1544282.6776601	100	del	1544283.5014931	2.0	1544284.6613883	1544284.0117055	1544284.0121015	120.0
1212.361328125	0.0	120	2482916	95	100	570	1	0	1544276.4252393	1544276.4257481	80	1544279.448945	1544279.4493954	40	1544282.6771874	1544282.6776601	100	del	1544283.5014931	2.0	1544284.6613883	1544284.0117055	1544284.0121015	120.0
1215.0439453125	0.0	80	2488410	96	50	30	1	1	1544286.6943138	1544286.6947793	80	1544290.1897414	1544290.1902301	40	1544293.4635163	1544293.4639716	100	del	1544293.9972691	4.0	1544294.8533195	1544294.5108533	1544294.5114099	120.0
1218.5390625	0.0	40	2495568	96	50	30	1	1	1544286.6943138	1544286.6947793	80	1544290.1897414	1544290.1902301	40	1544293.4635163	1544293.4639716	100	del	1544293.9972691	4.0	1544294.8533195	1544294.5108533	1544294.5114099	120.0
1221.81298828125	0.0	100	2502273	96	50	30	1	1	1544286.6943138	1544286.6947793	80	1544290.1897414	1544290.1902301	40	1544293.4635163	1544293.4639716	100	del	1544293.9972691	4.0	1544294.8533195	1544294.5108533	1544294.5114099	120.0
1222.8603515625	0.0	120	2504418	96	50	30	1	1	1544286.6943138	1544286.6947793	80	1544290.1897414	1544290.1902301	40	1544293.4635163	1544293.4639716	100	del	1544293.9972691	4.0	1544294.8533195	1544294.5108533	1544294.5114099	120.0
1225.67236328125	0.0	80	2510177	97	70	270	1	0	1544297.3232344	1544297.3237084	80	1544300.5222336	1544300.5227113	40	1544303.9771618	1544303.9776574	100	del	1544304.980512	2.0	1544306.1014821	1544305.4939293	1544305.4944537	120.0
1228.87158203125	0.0	40	2516729	97	70	270	1	0	1544297.3232344	1544297.3237084	80	1544300.5222336	1544300.5227113	40	1544303.9771618	1544303.9776574	100	del	1544304.980512	2.0	1544306.1014821	1544305.4939293	1544305.4944537	120.0
1232.326171875	0.0	100	2523804	97	70	270	1	0	1544297.3232344	1544297.3237084	80	1544300.5222336	1544300.5227113	40	1544303.9771618	1544303.9776574	100	del	1544304.980512	2.0	1544306.1014821	1544305.4939293	1544305.4944537	120.0
1233.8427734375	0.0	120	2526910	97	70	270	1	0	1544297.3232344	1544297.3237084	80	1544300.5222336	1544300.5227113	40	1544303.9771618	1544303.9776574	100	del	1544304.980512	2.0	1544306.1014821	1544305.4939293	1544305.4944537	120.0
1236.59326171875	0.0	80	2532543	98	93	9	1	0	1544308.2442381	1544308.2448119	80	1544311.706286	1544311.7067385	40	1544315.1667862	1544315.1673047	100	del	1544315.9246116	4.0	1544317.1105164	1544316.4349875	1544316.4353239	120.0
1240.05517578125	0.0	40	2539633	98	93	9	1	0	1544308.2442381	1544308.2448119	80	1544311.706286	1544311.7067385	40	1544315.1667862	1544315.1673047	100	del	1544315.9246116	4.0	1544317.1105164	1544316.4349875	1544316.4353239	120.0
1243.515625	0.0	100	2546720	98	93	9	1	0	1544308.2442381	1544308.2448119	80	1544311.706286	1544311.7067385	40	1544315.1667862	1544315.1673047	100	del	1544315.9246116	4.0	1544317.1105164	1544316.4349875	1544316.4353239	120.0
1244.78369140625	0.0	120	2549317	98	93	9	1	0	1544308.2442381	1544308.2448119	80	1544311.706286	1544311.7067385	40	1544315.1667862	1544315.1673047	100	del	1544315.9246116	4.0	1544317.1105164	1544316.4349875	1544316.4353239	120.0
1247.6748046875	0.0	80	2555238	99	93	820	0	0	1544319.3260293	1544319.3265056	80	1544322.6461459	1544322.6467156	40	1544325.9431342	1544325.9436535	100	del	1544326.6535677	nan	nan	nan	nan	nan
1250.99462890625	0.0	40	2562037	99	93	820	0	0	1544319.3260293	1544319.3265056	80	1544322.6461459	1544322.6467156	40	1544325.9431342	1544325.9436535	100	del	1544326.6535677	nan	nan	nan	nan	nan
1254.29150390625	0.0	100	2568789	99	93	820	0	0	1544319.3260293	1544319.3265056	80	1544322.6461459	1544322.6467156	40	1544325.9431342	1544325.9436535	100	del	1544326.6535677	nan	nan	nan	nan	nan
1257.96630859375	0.0	80	2576315	100	97	210	0	0	1544329.6177983	1544329.6183021	80	1544332.7331872	1544332.7336851	40	1544335.7484287	1544335.748959	100	del	1544336.2605731	nan	nan	nan	nan	nan
1261.08154296875	0.0	40	2582695	100	97	210	0	0	1544329.6177983	1544329.6183021	80	1544332.7331872	1544332.7336851	40	1544335.7484287	1544335.748959	100	del	1544336.2605731	nan	nan	nan	nan	nan
1264.0966796875	0.0	100	2588870	100	97	210	0	0	1544329.6177983	1544329.6183021	80	1544332.7331872	1544332.7336851	40	1544335.7484287	1544335.748959	100	del	1544336.2605731	nan	nan	nan	nan	nan
1349.845703125	0.0	80	2764484	101	73	400	0	0	1544421.5000176	1544421.5004929	80	1544424.6255925	1544424.62608	40	1544427.7616609	1544427.7621566	100	imm	1544428.3251739	nan	nan	nan	nan	nan
1352.97119140625	0.0	40	2770885	101	73	400	0	0	1544421.5000176	1544421.5004929	80	1544424.6255925	1544424.62608	40	1544427.7616609	1544427.7621566	100	imm	1544428.3251739	nan	nan	nan	nan	nan
1356.107421875	0.0	100	2777308	101	73	400	0	0	1544421.5000176	1544421.5004929	80	1544424.6255925	1544424.62608	40	1544427.7616609	1544427.7621566	100	imm	1544428.3251739	nan	nan	nan	nan	nan
1359.50830078125	0.0	80	2784273	102	70	820	0	1	1544431.1628539	1544431.1633798	80	1544434.3238387	1544434.3243537	40	1544437.7503677	1544437.7509997	100	imm	1544438.348855	nan	nan	nan	nan	nan
1362.66943359375	0.0	40	2790747	102	70	820	0	1	1544431.1628539	1544431.1633798	80	1544434.3238387	1544434.3243537	40	1544437.7503677	1544437.7509997	100	imm	1544438.348855	nan	nan	nan	nan	nan
1366.095703125	0.0	100	2797764	102	70	820	0	1	1544431.1628539	1544431.1633798	80	1544434.3238387	1544434.3243537	40	1544437.7503677	1544437.7509997	100	imm	1544438.348855	nan	nan	nan	nan	nan
1369.65478515625	0.0	80	2805053	103	57	150	1	1	1544441.3095018	1544441.3099922	80	1544444.7898548	1544444.7903458	40	1544447.9963486	1544447.9967445	100	del	1544449.5734731	2.0	1544450.3732847	1544450.0835834	1544450.0839768	120.0
1373.134765625	0.0	40	2812180	103	57	150	1	1	1544441.3095018	1544441.3099922	80	1544444.7898548	1544444.7903458	40	1544447.9963486	1544447.9967445	100	del	1544449.5734731	2.0	1544450.3732847	1544450.0835834	1544450.0839768	120.0
1376.34130859375	0.0	100	2818747	103	57	150	1	1	1544441.3095018	1544441.3099922	80	1544444.7898548	1544444.7903458	40	1544447.9963486	1544447.9967445	100	del	1544449.5734731	2.0	1544450.3732847	1544450.0835834	1544450.0839768	120.0
1378.4287109375	0.0	120	2823022	103	57	150	1	1	1544441.3095018	1544441.3099922	80	1544444.7898548	1544444.7903458	40	1544447.9963486	1544447.9967445	100	del	1544449.5734731	2.0	1544450.3732847	1544450.0835834	1544450.0839768	120.0
1381.13427734375	0.0	80	2828563	104	90	570	1	0	1544452.7891937	1544452.789694	80	1544455.8751181	1544455.8756034	40	1544459.2010175	1544459.201851	100	del	1544459.9493416	2.0	1544461.061139	1544460.4605673	1544460.4609172	120.0
1384.2197265625	0.0	40	2834882	104	90	570	1	0	1544452.7891937	1544452.789694	80	1544455.8751181	1544455.8756034	40	1544459.2010175	1544459.201851	100	del	1544459.9493416	2.0	1544461.061139	1544460.4605673	1544460.4609172	120.0
1387.5458984375	0.0	100	2841694	104	90	570	1	0	1544452.7891937	1544452.789694	80	1544455.8751181	1544455.8756034	40	1544459.2010175	1544459.201851	100	del	1544459.9493416	2.0	1544461.061139	1544460.4605673	1544460.4609172	120.0
1388.80517578125	0.0	120	2844273	104	90	570	1	0	1544452.7891937	1544452.789694	80	1544455.8751181	1544455.8756034	40	1544459.2010175	1544459.201851	100	del	1544459.9493416	2.0	1544461.061139	1544460.4605673	1544460.4609172	120.0
1391.77099609375	0.0	80	2850347	105	93	210	0	1	1544463.4262491	1544463.4267652	80	1544466.4767199	1544466.4771923	40	1544469.7556995	1544469.7561894	100	del	1544471.8047454	nan	nan	nan	nan	nan
1394.8212890625	0.0	40	2856594	105	93	210	0	1	1544463.4262491	1544463.4267652	80	1544466.4767199	1544466.4771923	40	1544469.7556995	1544469.7561894	100	del	1544471.8047454	nan	nan	nan	nan	nan
1398.10009765625	0.0	100	2863309	105	93	210	0	1	1544463.4262491	1544463.4267652	80	1544466.4767199	1544466.4771923	40	1544469.7556995	1544469.7561894	100	del	1544471.8047454	nan	nan	nan	nan	nan
1403.11181640625	0.0	80	2873573	106	77	210	0	1	1544474.76728	1544474.7677584	80	1544477.9065053	1544477.906971	40	1544481.0378557	1544481.0383058	100	del	1544481.7816324	nan	nan	nan	nan	nan
1406.2509765625	0.0	40	2880002	106	77	210	0	1	1544474.76728	1544474.7677584	80	1544477.9065053	1544477.906971	40	1544481.0378557	1544481.0383058	100	del	1544481.7816324	nan	nan	nan	nan	nan
1409.3818359375	0.0	100	2886414	106	77	210	0	1	1544474.76728	1544474.7677584	80	1544477.9065053	1544477.906971	40	1544481.0378557	1544481.0383058	100	del	1544481.7816324	nan	nan	nan	nan	nan
1413.064453125	0.0	80	2893956	107	53	270	1	0	1544484.7206399	1544484.7211523	80	1544487.9759836	1544487.9764789	40	1544491.0665655	1544491.0671122	100	del	1544491.7654486	2.0	1544492.6215778	1544492.2798424	1544492.2803686	120.0
1416.31982421875	0.0	40	2900623	107	53	270	1	0	1544484.7206399	1544484.7211523	80	1544487.9759836	1544487.9764789	40	1544491.0665655	1544491.0671122	100	del	1544491.7654486	2.0	1544492.6215778	1544492.2798424	1544492.2803686	120.0
1419.41064453125	0.0	100	2906953	107	53	270	1	0	1544484.7206399	1544484.7211523	80	1544487.9759836	1544487.9764789	40	1544491.0665655	1544491.0671122	100	del	1544491.7654486	2.0	1544492.6215778	1544492.2798424	1544492.2803686	120.0
1420.62353515625	0.0	120	2909437	107	53	270	1	0	1544484.7206399	1544484.7211523	80	1544487.9759836	1544487.9764789	40	1544491.0665655	1544491.0671122	100	del	1544491.7654486	2.0	1544492.6215778	1544492.2798424	1544492.2803686	120.0
1423.0966796875	0.0	80	2914502	108	63	20	0	0	1544494.7531609	1544494.7535588	80	1544498.0894711	1544498.0899064	40	1544501.3844448	1544501.3849053	100	del	1544502.7016592	nan	nan	nan	nan	nan
1426.43310546875	0.0	40	2921335	108	63	20	0	0	1544494.7531609	1544494.7535588	80	1544498.0894711	1544498.0899064	40	1544501.3844448	1544501.3849053	100	del	1544502.7016592	nan	nan	nan	nan	nan
1429.72802734375	0.0	100	2928083	108	63	20	0	0	1544494.7531609	1544494.7535588	80	1544498.0894711	1544498.0899064	40	1544501.3844448	1544501.3849053	100	del	1544502.7016592	nan	nan	nan	nan	nan
1433.708984375	0.0	80	2936236	109	80	30	1	0	1544505.3653612	1544505.365857	80	1544508.6843041	1544508.6848276	40	1544512.0557348	1544512.0562245	100	del	1544512.6695606	4.0	1544513.9889844	1544513.1804273	1544513.1809055	120.0
1437.02783203125	0.0	40	2943033	109	80	30	1	0	1544505.3653612	1544505.365857	80	1544508.6843041	1544508.6848276	40	1544512.0557348	1544512.0562245	100	del	1544512.6695606	4.0	1544513.9889844	1544513.1804273	1544513.1809055	120.0
1440.39892578125	0.0	100	2949937	109	80	30	1	0	1544505.3653612	1544505.365857	80	1544508.6843041	1544508.6848276	40	1544512.0557348	1544512.0562245	100	del	1544512.6695606	4.0	1544513.9889844	1544513.1804273	1544513.1809055	120.0
1441.52392578125	0.0	120	2952241	109	80	30	1	0	1544505.3653612	1544505.365857	80	1544508.6843041	1544508.6848276	40	1544512.0557348	1544512.0562245	100	del	1544512.6695606	4.0	1544513.9889844	1544513.1804273	1544513.1809055	120.0
1444.4873046875	0.0	80	2958310	110	60	570	1	1	1544516.1440006	1544516.1444933	80	1544519.3577306	1544519.3582876	40	1544522.5516897	1544522.5522594	100	imm	1544523.1417632	2.0	1544525.0384457	1544523.6520698	1544523.6525827	120.0
1447.70068359375	0.0	40	2964891	110	60	570	1	1	1544516.1440006	1544516.1444933	80	1544519.3577306	1544519.3582876	40	1544522.5516897	1544522.5522594	100	imm	1544523.1417632	2.0	1544525.0384457	1544523.6520698	1544523.6525827	120.0
1450.89453125	0.0	100	2971432	110	60	570	1	1	1544516.1440006	1544516.1444933	80	1544519.3577306	1544519.3582876	40	1544522.5516897	1544522.5522594	100	imm	1544523.1417632	2.0	1544525.0384457	1544523.6520698	1544523.6525827	120.0
1451.9951171875	0.0	120	2973686	110	60	570	1	1	1544516.1440006	1544516.1444933	80	1544519.3577306	1544519.3582876	40	1544522.5516897	1544522.5522594	100	imm	1544523.1417632	2.0	1544525.0384457	1544523.6520698	1544523.6525827	120.0
1455.78466796875	0.0	80	2981447	111	60	210	0	0	1544527.4419106	1544527.4422841	80	1544530.5169677	1544530.51747	40	1544533.9816978	1544533.9822144	100	del	1544534.5097646	nan	nan	nan	nan	nan
1458.85986328125	0.0	40	2987745	111	60	210	0	0	1544527.4419106	1544527.4422841	80	1544530.5169677	1544530.51747	40	1544533.9816978	1544533.9822144	100	del	1544534.5097646	nan	nan	nan	nan	nan
1462.32421875	0.0	100	2994840	111	60	210	0	0	1544527.4419106	1544527.4422841	80	1544530.5169677	1544530.51747	40	1544533.9816978	1544533.9822144	100	del	1544534.5097646	nan	nan	nan	nan	nan
1465.51416015625	0.0	80	3001373	112	70	210	0	1	1544537.1715958	1544537.1720876	80	1544540.4288441	1544540.4293161	40	1544543.8332186	1544543.8336759	100	del	1544544.677588	nan	nan	nan	nan	nan
1468.771484375	0.0	40	3008044	112	70	210	0	1	1544537.1715958	1544537.1720876	80	1544540.4288441	1544540.4293161	40	1544543.8332186	1544543.8336759	100	del	1544544.677588	nan	nan	nan	nan	nan
1472.17578125	0.0	100	3015016	112	70	210	0	1	1544537.1715958	1544537.1720876	80	1544540.4288441	1544540.4293161	40	1544543.8332186	1544543.8336759	100	del	1544544.677588	nan	nan	nan	nan	nan
1475.87548828125	0.0	80	3022593	113	67	400	0	1	1544547.5330593	1544547.5335547	80	1544550.6152997	1544550.6157897	40	1544553.9771793	1544553.9777158	100	imm	1544554.7257731	nan	nan	nan	nan	nan
1478.95751953125	0.0	40	3028905	113	67	400	0	1	1544547.5330593	1544547.5335547	80	1544550.6152997	1544550.6157897	40	1544553.9771793	1544553.9777158	100	imm	1544554.7257731	nan	nan	nan	nan	nan
1482.3193359375	0.0	100	3035790	113	67	400	0	1	1544547.5330593	1544547.5335547	80	1544550.6152997	1544550.6157897	40	1544553.9771793	1544553.9777158	100	imm	1544554.7257731	nan	nan	nan	nan	nan
1485.64892578125	0.0	80	3042609	114	77	400	0	0	1544557.3070354	1544557.3075619	80	1544560.7889714	1544560.7894659	40	1544564.2456881	1544564.2461205	100	imm	1544565.2066757	nan	nan	nan	nan	nan
1489.130859375	0.0	40	3049740	114	77	400	0	0	1544557.3070354	1544557.3075619	80	1544560.7889714	1544560.7894659	40	1544564.2456881	1544564.2461205	100	imm	1544565.2066757	nan	nan	nan	nan	nan
1492.58740234375	0.0	100	3056819	114	77	400	0	0	1544557.3070354	1544557.3075619	80	1544560.7889714	1544560.7894659	40	1544564.2456881	1544564.2461205	100	imm	1544565.2066757	nan	nan	nan	nan	nan
1496.3232421875	0.0	80	3064470	115	80	210	0	1	1544567.981351	1544567.981885	80	1544571.3286334	1544571.3290234	40	1544574.8298063	1544574.8303111	100	del	1544576.5415918	nan	nan	nan	nan	nan
1499.67041015625	0.0	40	3071325	115	80	210	0	1	1544567.981351	1544567.981885	80	1544571.3286334	1544571.3290234	40	1544574.8298063	1544574.8303111	100	del	1544576.5415918	nan	nan	nan	nan	nan
1503.17138671875	0.0	100	3078495	115	80	210	0	1	1544567.981351	1544567.981885	80	1544571.3286334	1544571.3290234	40	1544574.8298063	1544574.8303111	100	del	1544576.5415918	nan	nan	nan	nan	nan
1507.46240234375	0.0	80	3087283	116	87	400	0	0	1544579.120844	1544579.1213468	80	1544582.5050687	1544582.5055062	40	1544585.9322746	1544585.9327676	100	imm	1544586.3974761	nan	nan	nan	nan	nan
1510.84619140625	0.0	40	3094213	116	87	400	0	0	1544579.120844	1544579.1213468	80	1544582.5050687	1544582.5055062	40	1544585.9322746	1544585.9327676	100	imm	1544586.3974761	nan	nan	nan	nan	nan
1514.2734375	0.0	100	3101232	116	87	400	0	0	1544579.120844	1544579.1213468	80	1544582.5050687	1544582.5055062	40	1544585.9322746	1544585.9327676	100	imm	1544586.3974761	nan	nan	nan	nan	nan
1517.64697265625	0.0	80	3108141	117	53	150	1	0	1544589.3056625	1544589.3061841	80	1544592.4085383	1544592.4089932	40	1544595.6358788	1544595.6363997	100	del	1544596.7175018	1.0	1544598.0288686	1544597.2276654	1544597.2280129	120.0
1520.74951171875	0.0	40	3114495	117	53	150	1	0	1544589.3056625	1544589.3061841	80	1544592.4085383	1544592.4089932	40	1544595.6358788	1544595.6363997	100	del	1544596.7175018	1.0	1544598.0288686	1544597.2276654	1544597.2280129	120.0
1523.97705078125	0.0	100	3121105	117	53	150	1	0	1544589.3056625	1544589.3061841	80	1544592.4085383	1544592.4089932	40	1544595.6358788	1544595.6363997	100	del	1544596.7175018	1.0	1544598.0288686	1544597.2276654	1544597.2280129	120.0
1525.568359375	0.0	120	3124364	117	53	150	1	0	1544589.3056625	1544589.3061841	80	1544592.4085383	1544592.4089932	40	1544595.6358788	1544595.6363997	100	del	1544596.7175018	1.0	1544598.0288686	1544597.2276654	1544597.2280129	120.0
1528.39208984375	0.0	80	3130147	118	80	150	1	0	1544600.0511191	1544600.0514643	80	1544603.2209121	1544603.221399	40	1544606.3016394	1544606.3021606	100	del	1544606.9737098	2.0	1544607.9897909	1544607.482913	1544607.4832647	120.0
1531.5615234375	0.0	40	3136638	118	80	150	1	0	1544600.0511191	1544600.0514643	80	1544603.2209121	1544603.221399	40	1544606.3016394	1544606.3021606	100	del	1544606.9737098	2.0	1544607.9897909	1544607.482913	1544607.4832647	120.0
1534.64208984375	0.0	100	3142947	118	80	150	1	0	1544600.0511191	1544600.0514643	80	1544603.2209121	1544603.221399	40	1544606.3016394	1544606.3021606	100	del	1544606.9737098	2.0	1544607.9897909	1544607.482913	1544607.4832647	120.0
1535.8232421875	0.0	120	3145366	118	80	150	1	0	1544600.0511191	1544600.0514643	80	1544603.2209121	1544603.221399	40	1544606.3016394	1544606.3021606	100	del	1544606.9737098	2.0	1544607.9897909	1544607.482913	1544607.4832647	120.0
1538.57080078125	0.0	80	3150993	119	60	30	1	1	1544610.2300901	1544610.2305412	80	1544613.5235843	1544613.5240187	40	1544616.9323759	1544616.9328527	100	del	1544617.7185782	4.0	1544618.5093296	1544618.2320256	1544618.2325563	120.0
1541.8642578125	0.0	40	3157738	119	60	30	1	1	1544610.2300901	1544610.2305412	80	1544613.5235843	1544613.5240187	40	1544616.9323759	1544616.9328527	100	del	1544617.7185782	4.0	1544618.5093296	1544618.2320256	1544618.2325563	120.0
1545.27294921875	0.0	100	3164719	119	60	30	1	1	1544610.2300901	1544610.2305412	80	1544613.5235843	1544613.5240187	40	1544616.9323759	1544616.9328527	100	del	1544617.7185782	4.0	1544618.5093296	1544618.2320256	1544618.2325563	120.0
1546.572265625	0.0	120	3167380	119	60	30	1	1	1544610.2300901	1544610.2305412	80	1544613.5235843	1544613.5240187	40	1544616.9323759	1544616.9328527	100	del	1544617.7185782	4.0	1544618.5093296	1544618.2320256	1544618.2325563	120.0
1549.0751953125	0.0	80	3172506	120	77	570	1	0	1544620.7351109	1544620.7356039	80	1544624.0089234	1544624.0094206	40	1544627.485625	1544627.4860494	100	del	1544628.0610439	2.0	1544629.4464187	1544628.5722654	1544628.5726928	120.0
1552.34912109375	0.0	40	3179211	120	77	570	1	0	1544620.7351109	1544620.7356039	80	1544624.0089234	1544624.0094206	40	1544627.485625	1544627.4860494	100	del	1544628.0610439	2.0	1544629.4464187	1544628.5722654	1544628.5726928	120.0
1555.82568359375	0.0	100	3186331	120	77	570	1	0	1544620.7351109	1544620.7356039	80	1544624.0089234	1544624.0094206	40	1544627.485625	1544627.4860494	100	del	1544628.0610439	2.0	1544629.4464187	1544628.5722654	1544628.5726928	120.0
1556.912109375	0.0	120	3188556	120	77	570	1	0	1544620.7351109	1544620.7356039	80	1544624.0089234	1544624.0094206	40	1544627.485625	1544627.4860494	100	del	1544628.0610439	2.0	1544629.4464187	1544628.5722654	1544628.5726928	120.0
1626.30029296875	0.0	80	3330663	121	73	210	0	1	1544697.9622489	1544697.9626039	80	1544701.240242	1544701.2405797	40	1544704.7005967	1544704.7010995	100	del	1544706.5657861	nan	nan	nan	nan	nan
1629.578125	0.0	40	3337376	121	73	210	0	1	1544697.9622489	1544697.9626039	80	1544701.240242	1544701.2405797	40	1544704.7005967	1544704.7010995	100	del	1544706.5657861	nan	nan	nan	nan	nan
1633.03857421875	0.0	100	3344463	121	73	210	0	1	1544697.9622489	1544697.9626039	80	1544701.240242	1544701.2405797	40	1544704.7005967	1544704.7010995	100	del	1544706.5657861	nan	nan	nan	nan	nan
1637.44580078125	0.0	80	3353489	122	90	20	0	1	1544709.1081822	1544709.1086526	80	1544712.5205529	1544712.5210707	40	1544715.7011767	1544715.7018383	100	del	1544716.2610159	nan	nan	nan	nan	nan
1640.8583984375	0.0	40	3360478	122	90	20	0	1	1544709.1081822	1544709.1086526	80	1544712.5205529	1544712.5210707	40	1544715.7011767	1544715.7018383	100	del	1544716.2610159	nan	nan	nan	nan	nan
1644.0390625	0.0	100	3366992	122	90	20	0	1	1544709.1081822	1544709.1086526	80	1544712.5205529	1544712.5210707	40	1544715.7011767	1544715.7018383	100	del	1544716.2610159	nan	nan	nan	nan	nan
1647.2314453125	0.0	80	3373530	123	90	400	0	1	1544718.8939236	1544718.8944269	80	1544722.3127392	1544722.31322	40	1544725.499519	1544725.5000129	100	na	1544727.3188381	nan	nan	nan	nan	nan
1650.650390625	0.0	40	3380532	123	90	400	0	1	1544718.8939236	1544718.8944269	80	1544722.3127392	1544722.31322	40	1544725.499519	1544725.5000129	100	na	1544727.3188381	nan	nan	nan	nan	nan
1653.8369140625	0.0	100	3387058	123	90	400	0	1	1544718.8939236	1544718.8944269	80	1544722.3127392	1544722.31322	40	1544725.499519	1544725.5000129	100	na	1544727.3188381	nan	nan	nan	nan	nan
1658.25341796875	0.0	80	3396103	124	60	270	1	0	1544729.9161888	1544729.9166496	80	1544732.9378985	1544732.9383524	40	1544736.4284492	1544736.4289268	100	del	1544737.5497891	2.0	1544738.5730097	1544738.0603348	1544738.0607965	120.0
1661.27490234375	0.0	40	3402291	124	60	270	1	0	1544729.9161888	1544729.9166496	80	1544732.9378985	1544732.9383524	40	1544736.4284492	1544736.4289268	100	del	1544737.5497891	2.0	1544738.5730097	1544738.0603348	1544738.0607965	120.0
1664.765625	0.0	100	3409440	124	60	270	1	0	1544729.9161888	1544729.9166496	80	1544732.9378985	1544732.9383524	40	1544736.4284492	1544736.4289268	100	del	1544737.5497891	2.0	1544738.5730097	1544738.0603348	1544738.0607965	120.0
1666.3974609375	0.0	120	3412782	124	60	270	1	0	1544729.9161888	1544729.9166496	80	1544732.9378985	1544732.9383524	40	1544736.4284492	1544736.4289268	100	del	1544737.5497891	2.0	1544738.5730097	1544738.0603348	1544738.0607965	120.0
1669.26611328125	0.0	80	3418657	125	80	70	0	0	1544740.9293729	1544740.9298721	80	1544744.3689698	1544744.3694523	40	1544747.8509557	1544747.8514989	100	del	1544749.3172071	nan	nan	nan	nan	nan
1672.7060546875	0.0	40	3425702	125	80	70	0	0	1544740.9293729	1544740.9298721	80	1544744.3689698	1544744.3694523	40	1544747.8509557	1544747.8514989	100	del	1544749.3172071	nan	nan	nan	nan	nan
1676.18798828125	0.0	100	3432833	125	80	70	0	0	1544740.9293729	1544740.9298721	80	1544744.3689698	1544744.3694523	40	1544747.8509557	1544747.8514989	100	del	1544749.3172071	nan	nan	nan	nan	nan
1680.51171875	0.0	80	3441688	126	70	9	1	0	1544752.1751303	1544752.1755893	80	1544755.641204	1544755.6416727	40	1544758.783027	1544758.7835632	100	del	1544759.6374735	4.0	1544760.469311	1544760.1482179	1544760.1485947	120.0
1683.9775390625	0.0	40	3448786	126	70	9	1	0	1544752.1751303	1544752.1755893	80	1544755.641204	1544755.6416727	40	1544758.783027	1544758.7835632	100	del	1544759.6374735	4.0	1544760.469311	1544760.1482179	1544760.1485947	120.0
1687.11962890625	0.0	100	3455221	126	70	9	1	0	1544752.1751303	1544752.1755893	80	1544755.641204	1544755.6416727	40	1544758.783027	1544758.7835632	100	del	1544759.6374735	4.0	1544760.469311	1544760.1482179	1544760.1485947	120.0
1688.484375	0.0	120	3458016	126	70	9	1	0	1544752.1751303	1544752.1755893	80	1544755.641204	1544755.6416727	40	1544758.783027	1544758.7835632	100	del	1544759.6374735	4.0	1544760.469311	1544760.1482179	1544760.1485947	120.0
1691.2626953125	0.0	80	3463706	127	77	150	1	1	1544762.9261304	1544762.9266112	80	1544766.393634	1544766.3941038	40	1544769.5570906	1544769.5576	100	del	1544770.2691925	2.0	1544771.2934075	1544770.7822697	1544770.7827567	120.0
1694.72998046875	0.0	40	3470807	127	77	150	1	1	1544762.9261304	1544762.9266112	80	1544766.393634	1544766.3941038	40	1544769.5570906	1544769.5576	100	del	1544770.2691925	2.0	1544771.2934075	1544770.7822697	1544770.7827567	120.0
1697.89306640625	0.0	100	3477285	127	77	150	1	1	1544762.9261304	1544762.9266112	80	1544766.393634	1544766.3941038	40	1544769.5570906	1544769.5576	100	del	1544770.2691925	2.0	1544771.2934075	1544770.7822697	1544770.7827567	120.0
1699.1181640625	0.0	120	3479794	127	77	150	1	1	1544762.9261304	1544762.9266112	80	1544766.393634	1544766.3941038	40	1544769.5570906	1544769.5576	100	del	1544770.2691925	2.0	1544771.2934075	1544770.7822697	1544770.7827567	120.0
1701.681640625	0.0	80	3485044	128	57	70	0	0	1544773.3453674	1544773.3458624	80	1544776.7364076	1544776.7368889	40	1544779.7916708	1544779.7921637	100	del	1544780.3979517	nan	nan	nan	nan	nan
1705.072265625	0.0	40	3491988	128	57	70	0	0	1544773.3453674	1544773.3458624	80	1544776.7364076	1544776.7368889	40	1544779.7916708	1544779.7921637	100	del	1544780.3979517	nan	nan	nan	nan	nan
1708.12744140625	0.0	100	3498245	128	57	70	0	0	1544773.3453674	1544773.3458624	80	1544776.7364076	1544776.7368889	40	1544779.7916708	1544779.7921637	100	del	1544780.3979517	nan	nan	nan	nan	nan
1711.6162109375	0.0	80	3505390	129	63	9	1	1	1544783.2805619	1544783.2810917	80	1544786.5126739	1544786.513173	40	1544789.8518149	1544789.8522874	100	del	1544790.3570666	4.0	1544791.1328599	1544790.8682537	1544790.8686371	120.0
1714.84814453125	0.0	40	3512009	129	63	9	1	1	1544783.2805619	1544783.2810917	80	1544786.5126739	1544786.513173	40	1544789.8518149	1544789.8522874	100	del	1544790.3570666	4.0	1544791.1328599	1544790.8682537	1544790.8686371	120.0
1718.1875	0.0	100	3518848	129	63	9	1	1	1544783.2805619	1544783.2810917	80	1544786.5126739	1544786.513173	40	1544789.8518149	1544789.8522874	100	del	1544790.3570666	4.0	1544791.1328599	1544790.8682537	1544790.8686371	120.0
1719.20361328125	0.0	120	3520929	129	63	9	1	1	1544783.2805619	1544783.2810917	80	1544786.5126739	1544786.513173	40	1544789.8518149	1544789.8522874	100	del	1544790.3570666	4.0	1544791.1328599	1544790.8682537	1544790.8686371	120.0
1721.57080078125	0.0	80	3525777	130	83	9	1	1	1544793.2352463	1544793.2357004	80	1544796.5082934	1544796.5087203	40	1544799.8384962	1544799.8390175	100	del	1544800.3417587	2.0	1544801.2060313	1544800.8519	1544800.8524383	120.0
1724.84375	0.0	40	3532480	130	83	9	1	1	1544793.2352463	1544793.2357004	80	1544796.5082934	1544796.5087203	40	1544799.8384962	1544799.8390175	100	del	1544800.3417587	2.0	1544801.2060313	1544800.8519	1544800.8524383	120.0
1728.173828125	0.0	100	3539300	130	83	9	1	1	1544793.2352463	1544793.2357004	80	1544796.5082934	1544796.5087203	40	1544799.8384962	1544799.8390175	100	del	1544800.3417587	2.0	1544801.2060313	1544800.8519	1544800.8524383	120.0
1729.18701171875	0.0	120	3541375	130	83	9	1	1	1544793.2352463	1544793.2357004	80	1544796.5082934	1544796.5087203	40	1544799.8384962	1544799.8390175	100	del	1544800.3417587	2.0	1544801.2060313	1544800.8519	1544800.8524383	120.0
1731.56494140625	0.0	80	3546245	131	70	20	0	1	1544803.2297266	1544803.2302002	80	1544806.4733532	1544806.4739206	40	1544809.9305159	1544809.9311383	100	del	1544810.3650943	nan	nan	nan	nan	nan
1734.80859375	0.0	40	3552888	131	70	20	0	1	1544803.2297266	1544803.2302002	80	1544806.4733532	1544806.4739206	40	1544809.9305159	1544809.9311383	100	del	1544810.3650943	nan	nan	nan	nan	nan
1738.265625	0.0	100	3559968	131	70	20	0	1	1544803.2297266	1544803.2302002	80	1544806.4733532	1544806.4739206	40	1544809.9305159	1544809.9311383	100	del	1544810.3650943	nan	nan	nan	nan	nan
1741.2744140625	0.0	80	3566130	132	77	30	1	1	1544812.9393938	1544812.9399407	80	1544816.1687262	1544816.1692163	40	1544819.5121263	1544819.5126413	100	del	1544820.0630646	4.0	1544820.8375647	1544820.5728009	1544820.5732297	120.0
1744.50341796875	0.0	40	3572743	132	77	30	1	1	1544812.9393938	1544812.9399407	80	1544816.1687262	1544816.1692163	40	1544819.5121263	1544819.5126413	100	del	1544820.0630646	4.0	1544820.8375647	1544820.5728009	1544820.5732297	120.0
1747.8466796875	0.0	100	3579590	132	77	30	1	1	1544812.9393938	1544812.9399407	80	1544816.1687262	1544816.1692163	40	1544819.5121263	1544819.5126413	100	del	1544820.0630646	4.0	1544820.8375647	1544820.5728009	1544820.5732297	120.0
1748.90771484375	0.0	120	3581763	132	77	30	1	1	1544812.9393938	1544812.9399407	80	1544816.1687262	1544816.1692163	40	1544819.5121263	1544819.5126413	100	del	1544820.0630646	4.0	1544820.8375647	1544820.5728009	1544820.5732297	120.0
1751.3359375	0.0	80	3586736	133	87	570	1	0	1544823.0012344	1544823.0016758	80	1544826.4839742	1544826.4844865	40	1544829.8447839	1544829.8452914	100	del	1544830.317238	4.0	1544831.0697626	1544830.8295796	1544830.8300426	120.0
1754.818359375	0.0	40	3593868	133	87	570	1	0	1544823.0012344	1544823.0016758	80	1544826.4839742	1544826.4844865	40	1544829.8447839	1544829.8452914	100	del	1544830.317238	4.0	1544831.0697626	1544830.8295796	1544830.8300426	120.0
1758.17919921875	0.0	100	3600751	133	87	570	1	0	1544823.0012344	1544823.0016758	80	1544826.4839742	1544826.4844865	40	1544829.8447839	1544829.8452914	100	del	1544830.317238	4.0	1544831.0697626	1544830.8295796	1544830.8300426	120.0
1759.1640625	0.0	120	3602768	133	87	570	1	0	1544823.0012344	1544823.0016758	80	1544826.4839742	1544826.4844865	40	1544829.8447839	1544829.8452914	100	del	1544830.317238	4.0	1544831.0697626	1544830.8295796	1544830.8300426	120.0
1761.52392578125	0.0	80	3607601	134	77	820	0	1	1544833.1896346	1544833.1901788	80	1544836.4758819	1544836.4763906	40	1544839.9308343	1544839.9313273	100	imm	1544840.8139376	nan	nan	nan	nan	nan
1764.81005859375	0.0	40	3614331	134	77	820	0	1	1544833.1896346	1544833.1901788	80	1544836.4758819	1544836.4763906	40	1544839.9308343	1544839.9313273	100	imm	1544840.8139376	nan	nan	nan	nan	nan
1768.26513671875	0.0	100	3621407	134	77	820	0	1	1544833.1896346	1544833.1901788	80	1544836.4758819	1544836.4763906	40	1544839.9308343	1544839.9313273	100	imm	1544840.8139376	nan	nan	nan	nan	nan
1771.94482421875	0.0	80	3628943	135	100	150	1	0	1544843.6105099	1544843.6109352	80	1544846.9942253	1544846.9947016	40	1544850.4554778	1544850.4559303	100	del	1544850.9657854	3.0	1544852.8854069	1544851.4790294	1544851.4796205	120.0
1775.328125	0.0	40	3635872	135	100	150	1	0	1544843.6105099	1544843.6109352	80	1544846.9942253	1544846.9947016	40	1544850.4554778	1544850.4559303	100	del	1544850.9657854	3.0	1544852.8854069	1544851.4790294	1544851.4796205	120.0
1778.78955078125	0.0	100	3642961	135	100	150	1	0	1544843.6105099	1544843.6109352	80	1544846.9942253	1544846.9947016	40	1544850.4554778	1544850.4559303	100	del	1544850.9657854	3.0	1544852.8854069	1544851.4790294	1544851.4796205	120.0
1779.81298828125	0.0	120	3645057	135	100	150	1	0	1544843.6105099	1544843.6109352	80	1544846.9942253	1544846.9947016	40	1544850.4554778	1544850.4559303	100	del	1544850.9657854	3.0	1544852.8854069	1544851.4790294	1544851.4796205	120.0