onset	duration	value	sample	trial_idx	val	del	is_cued	rev_opts	del_pres_displaytime	del_pres_triggertime	del_pres_triggercode	val_pres_displaytime	val_pres_triggertime	val_pres_triggercode	choice_displaytime	choice_triggertime	choice_triggercode	choice	choice_time	viv_displaytime	viv_triggertime	viv_triggercode	viv	viv_time
27.20556640625	0.0	80	55717	1	93	365	1	0	1080635.0636977	1080635.0642078	80	1080638.1843044	1080638.1848136	40	1080641.4119753	1080641.4125174	100	imm	1080644.8515638	1080645.3701086	1080645.3705697	120.0	3.0	1080649.4599327
30.326171875	0.0	40	62108	1	93	365	1	0	1080635.0636977	1080635.0642078	80	1080638.1843044	1080638.1848136	40	1080641.4119753	1080641.4125174	100	imm	1080644.8515638	1080645.3701086	1080645.3705697	120.0	3.0	1080649.4599327
33.5537109375	0.0	100	68718	1	93	365	1	0	1080635.0636977	1080635.0642078	80	1080638.1843044	1080638.1848136	40	1080641.4119753	1080641.4125174	100	imm	1080644.8515638	1080645.3701086	1080645.3705697	120.0	3.0	1080649.4599327
37.51171875	0.0	120	76824	1	93	365	1	0	1080635.0636977	1080635.0642078	80	1080638.1843044	1080638.1848136	40	1080641.4119753	1080641.4125174	100	imm	1080644.8515638	1080645.3701086	1080645.3705697	120.0	3.0	1080649.4599327
44.064453125	0.0	80	90244	2	83	110	0	1	1080651.9232529	1080651.9237727	80	1080655.0588876	1080655.0594048	40	1080658.555444	1080658.5559414	100	imm	1080660.8766153	nan	nan	nan	nan	nan
47.2001953125	0.0	40	96666	2	83	110	0	1	1080651.9232529	1080651.9237727	80	1080655.0588876	1080655.0594048	40	1080658.555444	1080658.5559414	100	imm	1080660.8766153	nan	nan	nan	nan	nan
50.69677734375	0.0	100	103827	2	83	110	0	1	1080651.9232529	1080651.9237727	80	1080655.0588876	1080655.0594048	40	1080658.555444	1080658.5559414	100	imm	1080660.8766153	nan	nan	nan	nan	nan
55.84619140625	0.0	80	114373	3	70	20	0	0	1080663.7052846	1080663.7057551	80	1080666.7950205	1080666.7955526	40	1080670.2218411	1080670.2223033	100	del	1080672.9159308	nan	nan	nan	nan	nan
58.93603515625	0.0	40	120701	3	70	20	0	0	1080663.7052846	1080663.7057551	80	1080666.7950205	1080666.7955526	40	1080670.2218411	1080670.2223033	100	del	1080672.9159308	nan	nan	nan	nan	nan
62.36279296875	0.0	100	127719	3	70	20	0	0	1080663.7052846	1080663.7057551	80	1080666.7950205	1080666.7955526	40	1080670.2218411	1080670.2223033	100	del	1080672.9159308	nan	nan	nan	nan	nan
67.90234375	0.0	80	139064	4	87	700	1	1	1080675.7617046	1080675.7623497	80	1080679.0426228	1080679.043135	40	1080682.182678	1080682.1832036	100	imm	1080686.4195159	1080686.9296694	1080686.9300474	120.0	2.0	1080690.8604997
71.18310546875	0.0	40	145783	4	87	700	1	1	1080675.7617046	1080675.7623497	80	1080679.0426228	1080679.043135	40	1080682.182678	1080682.1832036	100	imm	1080686.4195159	1080686.9296694	1080686.9300474	120.0	2.0	1080690.8604997
74.3232421875	0.0	100	152214	4	87	700	1	1	1080675.7617046	1080675.7623497	80	1080679.0426228	1080679.043135	40	1080682.182678	1080682.1832036	100	imm	1080686.4195159	1080686.9296694	1080686.9300474	120.0	2.0	1080690.8604997
79.06982421875	0.0	120	161935	4	87	700	1	1	1080675.7617046	1080675.7623497	80	1080679.0426228	1080679.043135	40	1080682.182678	1080682.1832036	100	imm	1080686.4195159	1080686.9296694	1080686.9300474	120.0	2.0	1080690.8604997
85.037109375	0.0	80	174156	5	97	110	0	1	1080692.8970355	1080692.8975429	80	1080696.021005	1080696.0214963	40	1080699.2161773	1080699.2166911	100	imm	1080701.3632313	nan	nan	nan	nan	nan
88.1611328125	0.0	40	180554	5	97	110	0	1	1080692.8970355	1080692.8975429	80	1080696.021005	1080696.0214963	40	1080699.2161773	1080699.2166911	100	imm	1080701.3632313	nan	nan	nan	nan	nan
91.3564453125	0.0	100	187098	5	97	110	0	1	1080692.8970355	1080692.8975429	80	1080696.021005	1080696.0214963	40	1080699.2161773	1080699.2166911	100	imm	1080701.3632313	nan	nan	nan	nan	nan
96.337890625	0.0	80	197300	6	80	20	0	1	1080704.1978685	1080704.1983732	80	1080707.698527	1080707.699014	40	1080710.8155721	1080710.8159778	100	del	1080712.1871503	nan	nan	nan	nan	nan
99.83837890625	0.0	40	204469	6	80	20	0	1	1080704.1978685	1080704.1983732	80	1080707.698527	1080707.699014	40	1080710.8155721	1080710.8159778	100	del	1080712.1871503	nan	nan	nan	nan	nan
102.95556640625	0.0	100	210853	6	80	20	0	1	1080704.1978685	1080704.1983732	80	1080707.698527	1080707.699014	40	1080710.8155721	1080710.8159778	100	del	1080712.1871503	nan	nan	nan	nan	nan
107.22509765625	0.0	80	219597	7	53	510	0	1	1080715.0853285	1080715.0858105	80	1080718.5361258	1080718.5366068	40	1080721.7853756	1080721.7858757	100	imm	1080727.7556137	nan	nan	nan	nan	nan
110.67578125	0.0	40	226664	7	53	510	0	1	1080715.0853285	1080715.0858105	80	1080718.5361258	1080718.5366068	40	1080721.7853756	1080721.7858757	100	imm	1080727.7556137	nan	nan	nan	nan	nan
113.9248046875	0.0	100	233318	7	53	510	0	1	1080715.0853285	1080715.0858105	80	1080718.5361258	1080718.5366068	40	1080721.7853756	1080721.7858757	100	imm	1080727.7556137	nan	nan	nan	nan	nan
122.49169921875	0.0	80	250863	8	57	20	0	1	1080730.3525162	1080730.3530447	80	1080733.7663264	1080733.7667723	40	1080737.0177136	1080737.018258	100	imm	1080738.6990602	nan	nan	nan	nan	nan
125.90576171875	0.0	40	257855	8	57	20	0	1	1080730.3525162	1080730.3530447	80	1080733.7663264	1080733.7667723	40	1080737.0177136	1080737.018258	100	imm	1080738.6990602	nan	nan	nan	nan	nan
129.15673828125	0.0	100	264513	8	57	20	0	1	1080730.3525162	1080730.3530447	80	1080733.7663264	1080733.7667723	40	1080737.0177136	1080737.018258	100	imm	1080738.6990602	nan	nan	nan	nan	nan
133.416015625	0.0	80	273236	9	57	700	1	0	1080741.2768212	1080741.2773558	80	1080744.723189	1080744.72364	40	1080748.0544941	1080748.0550412	100	imm	1080750.2846142	1080750.7945864	1080750.7948989	120.0	2.0	1080753.5632436
136.8623046875	0.0	40	280294	9	57	700	1	0	1080741.2768212	1080741.2773558	80	1080744.723189	1080744.72364	40	1080748.0544941	1080748.0550412	100	imm	1080750.2846142	1080750.7945864	1080750.7948989	120.0	2.0	1080753.5632436
140.193359375	0.0	100	287116	9	57	700	1	0	1080741.2768212	1080741.2773558	80	1080744.723189	1080744.72364	40	1080748.0544941	1080748.0550412	100	imm	1080750.2846142	1080750.7945864	1080750.7948989	120.0	2.0	1080753.5632436
142.93359375	0.0	120	292728	9	57	700	1	0	1080741.2768212	1080741.2773558	80	1080744.723189	1080744.72364	40	1080748.0544941	1080748.0550412	100	imm	1080750.2846142	1080750.7945864	1080750.7948989	120.0	2.0	1080753.5632436
147.7666015625	0.0	80	302626	10	77	20	0	1	1080755.6276419	1080755.6281446	80	1080759.0898154	1080759.0903231	40	1080762.1211726	1080762.1217081	100	del	1080763.3549265	nan	nan	nan	nan	nan
151.228515625	0.0	40	309716	10	77	20	0	1	1080755.6276419	1080755.6281446	80	1080759.0898154	1080759.0903231	40	1080762.1211726	1080762.1217081	100	del	1080763.3549265	nan	nan	nan	nan	nan
154.259765625	0.0	100	315924	10	77	20	0	1	1080755.6276419	1080755.6281446	80	1080759.0898154	1080759.0903231	40	1080762.1211726	1080762.1217081	100	del	1080763.3549265	nan	nan	nan	nan	nan
158.03173828125	0.0	80	323649	11	50	970	0	1	1080765.8930387	1080765.8935117	80	1080769.3951265	1080769.3956078	40	1080772.7521981	1080772.7527017	100	imm	1080775.5393159	nan	nan	nan	nan	nan
161.53369140625	0.0	40	330821	11	50	970	0	1	1080765.8930387	1080765.8935117	80	1080769.3951265	1080769.3956078	40	1080772.7521981	1080772.7527017	100	imm	1080775.5393159	nan	nan	nan	nan	nan
164.890625	0.0	100	337696	11	50	970	0	1	1080765.8930387	1080765.8935117	80	1080769.3951265	1080769.3956078	40	1080772.7521981	1080772.7527017	100	imm	1080775.5393159	nan	nan	nan	nan	nan
170.38330078125	0.0	80	348945	12	67	180	1	1	1080778.2452583	1080778.2457633	80	1080781.5052645	1080781.5058095	40	1080784.9008417	1080784.9013213	100	imm	1080787.3070077	1080787.8210863	1080787.821579	120.0	4.0	1080789.4914852
173.6435546875	0.0	40	355622	12	67	180	1	1	1080778.2452583	1080778.2457633	80	1080781.5052645	1080781.5058095	40	1080784.9008417	1080784.9013213	100	imm	1080787.3070077	1080787.8210863	1080787.821579	120.0	4.0	1080789.4914852
177.0390625	0.0	100	362576	12	67	180	1	1	1080778.2452583	1080778.2457633	80	1080781.5052645	1080781.5058095	40	1080784.9008417	1080784.9013213	100	imm	1080787.3070077	1080787.8210863	1080787.821579	120.0	4.0	1080789.4914852
179.958984375	0.0	120	368556	12	67	180	1	1	1080778.2452583	1080778.2457633	80	1080781.5052645	1080781.5058095	40	1080784.9008417	1080784.9013213	100	imm	1080787.3070077	1080787.8210863	1080787.821579	120.0	4.0	1080789.4914852
183.66943359375	0.0	80	376155	13	57	2	1	0	1080791.5314438	1080791.5319768	80	1080794.9022217	1080794.9026783	40	1080798.2659776	1080798.2664558	100	del	1080799.8595472	1080800.3731134	1080800.3736095	120.0	2.0	1080801.7473707
187.0400390625	0.0	40	383058	13	57	2	1	0	1080791.5314438	1080791.5319768	80	1080794.9022217	1080794.9026783	40	1080798.2659776	1080798.2664558	100	del	1080799.8595472	1080800.3731134	1080800.3736095	120.0	2.0	1080801.7473707
190.40380859375	0.0	100	389947	13	57	2	1	0	1080791.5314438	1080791.5319768	80	1080794.9022217	1080794.9026783	40	1080798.2659776	1080798.2664558	100	del	1080799.8595472	1080800.3731134	1080800.3736095	120.0	2.0	1080801.7473707
192.5107421875	0.0	120	394262	13	57	2	1	0	1080791.5314438	1080791.5319768	80	1080794.9022217	1080794.9026783	40	1080798.2659776	1080798.2664558	100	del	1080799.8595472	1080800.3731134	1080800.3736095	120.0	2.0	1080801.7473707
196.130859375	0.0	80	401676	14	70	365	1	0	1080803.9932079	1080803.9936559	80	1080807.2922001	1080807.2926934	40	1080810.4720976	1080810.4724821	100	imm	1080814.1406783	1080814.6542957	1080814.6547981	120.0	3.0	1080816.2116407
199.4296875	0.0	40	408432	14	70	365	1	0	1080803.9932079	1080803.9936559	80	1080807.2922001	1080807.2926934	40	1080810.4720976	1080810.4724821	100	imm	1080814.1406783	1080814.6542957	1080814.6547981	120.0	3.0	1080816.2116407
202.609375	0.0	100	414944	14	70	365	1	0	1080803.9932079	1080803.9936559	80	1080807.2922001	1080807.2926934	40	1080810.4720976	1080810.4724821	100	imm	1080814.1406783	1080814.6542957	1080814.6547981	120.0	3.0	1080816.2116407
206.79150390625	0.0	120	423509	14	70	365	1	0	1080803.9932079	1080803.9936559	80	1080807.2922001	1080807.2926934	40	1080810.4720976	1080810.4724821	100	imm	1080814.1406783	1080814.6542957	1080814.6547981	120.0	3.0	1080816.2116407
210.45068359375	0.0	80	431003	15	93	20	0	0	1080818.3134805	1080818.3139881	80	1080821.5208798	1080821.5213756	40	1080824.9939929	1080824.9946227	100	del	1080826.7646358	nan	nan	nan	nan	nan
213.658203125	0.0	40	437572	15	93	20	0	0	1080818.3134805	1080818.3139881	80	1080821.5208798	1080821.5213756	40	1080824.9939929	1080824.9946227	100	del	1080826.7646358	nan	nan	nan	nan	nan
217.13134765625	0.0	100	444685	15	93	20	0	0	1080818.3134805	1080818.3139881	80	1080821.5208798	1080821.5213756	40	1080824.9939929	1080824.9946227	100	del	1080826.7646358	nan	nan	nan	nan	nan
221.5322265625	0.0	80	453698	16	70	110	0	0	1080829.3954242	1080829.3959172	80	1080832.5833857	1080832.5838764	40	1080835.7550587	1080835.755395	100	imm	1080837.8846615	nan	nan	nan	nan	nan
224.72021484375	0.0	40	460227	16	70	110	0	0	1080829.3954242	1080829.3959172	80	1080832.5833857	1080832.5838764	40	1080835.7550587	1080835.755395	100	imm	1080837.8846615	nan	nan	nan	nan	nan
227.8916015625	0.0	100	466722	16	70	110	0	0	1080829.3954242	1080829.3959172	80	1080832.5833857	1080832.5838764	40	1080835.7550587	1080835.755395	100	imm	1080837.8846615	nan	nan	nan	nan	nan
232.5791015625	0.0	80	476322	17	57	365	1	0	1080840.4424622	1080840.4430542	80	1080843.7062336	1080843.7066977	40	1080847.1371129	1080847.1376181	100	imm	1080850.0516564	1080850.5657317	1080850.5662586	120.0	3.0	1080852.7549607
235.8427734375	0.0	40	483006	17	57	365	1	0	1080840.4424622	1080840.4430542	80	1080843.7062336	1080843.7066977	40	1080847.1371129	1080847.1376181	100	imm	1080850.0516564	1080850.5657317	1080850.5662586	120.0	3.0	1080852.7549607
239.2734375	0.0	100	490032	17	57	365	1	0	1080840.4424622	1080840.4430542	80	1080843.7062336	1080843.7066977	40	1080847.1371129	1080847.1376181	100	imm	1080850.0516564	1080850.5657317	1080850.5662586	120.0	3.0	1080852.7549607
242.7021484375	0.0	120	497054	17	57	365	1	0	1080840.4424622	1080840.4430542	80	1080843.7062336	1080843.7066977	40	1080847.1371129	1080847.1376181	100	imm	1080850.0516564	1080850.5657317	1080850.5662586	120.0	3.0	1080852.7549607
247.3603515625	0.0	80	506594	18	97	180	1	1	1080855.2241882	1080855.2249599	80	1080858.5941834	1080858.5947151	40	1080861.7995893	1080861.8000864	100	del	1080863.6188472	1080864.1329922	1080864.1334971	120.0	4.0	1080865.8509217
250.73046875	0.0	40	513496	18	97	180	1	1	1080855.2241882	1080855.2249599	80	1080858.5941834	1080858.5947151	40	1080861.7995893	1080861.8000864	100	del	1080863.6188472	1080864.1329922	1080864.1334971	120.0	4.0	1080865.8509217
253.935546875	0.0	100	520060	18	97	180	1	1	1080855.2241882	1080855.2249599	80	1080858.5941834	1080858.5947151	40	1080861.7995893	1080861.8000864	100	del	1080863.6188472	1080864.1329922	1080864.1334971	120.0	4.0	1080865.8509217
256.26904296875	0.0	120	524839	18	97	180	1	1	1080855.2241882	1080855.2249599	80	1080858.5941834	1080858.5947151	40	1080861.7995893	1080861.8000864	100	del	1080863.6188472	1080864.1329922	1080864.1334971	120.0	4.0	1080865.8509217
260.15185546875	0.0	80	532791	19	53	970	0	0	1080868.0158154	1080868.0162765	80	1080871.3692835	1080871.3697783	40	1080874.8236616	1080874.8242255	100	imm	1080875.9950168	nan	nan	nan	nan	nan
263.50537109375	0.0	40	539659	19	53	970	0	0	1080868.0158154	1080868.0162765	80	1080871.3692835	1080871.3697783	40	1080874.8236616	1080874.8242255	100	imm	1080875.9950168	nan	nan	nan	nan	nan
266.95947265625	0.0	100	546733	19	53	970	0	0	1080868.0158154	1080868.0162765	80	1080871.3692835	1080871.3697783	40	1080874.8236616	1080874.8242255	100	imm	1080875.9950168	nan	nan	nan	nan	nan
271.1103515625	0.0	80	555234	20	73	60	1	1	1080878.9748879	1080878.9753944	80	1080882.0233463	1080882.023824	40	1080885.2781137	1080885.2786254	100	imm	1080887.7869403	1080888.2999925	1080888.3005061	120.0	4.0	1080889.8991726
274.1591796875	0.0	40	561478	20	73	60	1	1	1080878.9748879	1080878.9753944	80	1080882.0233463	1080882.023824	40	1080885.2781137	1080885.2786254	100	imm	1080887.7869403	1080888.2999925	1080888.3005061	120.0	4.0	1080889.8991726
277.41357421875	0.0	100	568143	20	73	60	1	1	1080878.9748879	1080878.9753944	80	1080882.0233463	1080882.023824	40	1080885.2781137	1080885.2786254	100	imm	1080887.7869403	1080888.2999925	1080888.3005061	120.0	4.0	1080889.8991726
280.435546875	0.0	120	574332	20	73	60	1	1	1080878.9748879	1080878.9753944	80	1080882.0233463	1080882.023824	40	1080885.2781137	1080885.2786254	100	imm	1080887.7869403	1080888.2999925	1080888.3005061	120.0	4.0	1080889.8991726
301.74755859375	0.0	80	617979	21	67	110	0	0	1080909.6123752	1080909.6128867	80	1080912.7465272	1080912.7469904	40	1080916.2021321	1080916.2026066	100	imm	1080917.5405187	nan	nan	nan	nan	nan
304.88134765625	0.0	40	624397	21	67	110	0	0	1080909.6123752	1080909.6128867	80	1080912.7465272	1080912.7469904	40	1080916.2021321	1080916.2026066	100	imm	1080917.5405187	nan	nan	nan	nan	nan
308.3369140625	0.0	100	631474	21	67	110	0	0	1080909.6123752	1080909.6128867	80	1080912.7465272	1080912.7469904	40	1080916.2021321	1080916.2026066	100	imm	1080917.5405187	nan	nan	nan	nan	nan
312.29052734375	0.0	80	639571	22	100	60	1	0	1080920.1558822	1080920.1563021	80	1080923.2243619	1080923.2248638	40	1080926.5094242	1080926.5099147	100	del	1080927.7633214	1080928.2748231	1080928.275228	120.0	4.0	1080929.7160941
315.35888671875	0.0	40	645855	22	100	60	1	0	1080920.1558822	1080920.1563021	80	1080923.2243619	1080923.2248638	40	1080926.5094242	1080926.5099147	100	del	1080927.7633214	1080928.2748231	1080928.275228	120.0	4.0	1080929.7160941
318.64404296875	0.0	100	652583	22	100	60	1	0	1080920.1558822	1080920.1563021	80	1080923.2243619	1080923.2248638	40	1080926.5094242	1080926.5099147	100	del	1080927.7633214	1080928.2748231	1080928.275228	120.0	4.0	1080929.7160941
320.4091796875	0.0	120	656198	22	100	60	1	0	1080920.1558822	1080920.1563021	80	1080923.2243619	1080923.2248638	40	1080926.5094242	1080926.5099147	100	del	1080927.7633214	1080928.2748231	1080928.275228	120.0	4.0	1080929.7160941
324.02490234375	0.0	80	663603	23	63	2	1	0	1080931.8904489	1080931.8908917	80	1080935.0889725	1080935.0894299	40	1080938.4983765	1080938.4989091	100	del	1080939.9234813	1080940.4371536	1080940.437616	120.0	3.0	1080941.6266837
327.22314453125	0.0	40	670153	23	63	2	1	0	1080931.8904489	1080931.8908917	80	1080935.0889725	1080935.0894299	40	1080938.4983765	1080938.4989091	100	del	1080939.9234813	1080940.4371536	1080940.437616	120.0	3.0	1080941.6266837
330.6328125	0.0	100	677136	23	63	2	1	0	1080931.8904489	1080931.8908917	80	1080935.0889725	1080935.0894299	40	1080938.4983765	1080938.4989091	100	del	1080939.9234813	1080940.4371536	1080940.437616	120.0	3.0	1080941.6266837
332.5712890625	0.0	120	681106	23	63	2	1	0	1080931.8904489	1080931.8908917	80	1080935.0889725	1080935.0894299	40	1080938.4983765	1080938.4989091	100	del	1080939.9234813	1080940.4371536	1080940.437616	120.0	3.0	1080941.6266837
336.19580078125	0.0	80	688529	24	73	260	0	0	1080944.061728	1080944.0622524	80	1080947.4099885	1080947.4105461	40	1080950.6322918	1080950.6327543	100	imm	1080952.4027127	nan	nan	nan	nan	nan
339.5439453125	0.0	40	695386	24	73	260	0	0	1080944.061728	1080944.0622524	80	1080947.4099885	1080947.4105461	40	1080950.6322918	1080950.6327543	100	imm	1080952.4027127	nan	nan	nan	nan	nan
342.76611328125	0.0	100	701985	24	73	260	0	0	1080944.061728	1080944.0622524	80	1080947.4099885	1080947.4105461	40	1080950.6322918	1080950.6327543	100	imm	1080952.4027127	nan	nan	nan	nan	nan
347.375	0.0	80	711424	25	50	180	1	0	1080955.2409448	1080955.2413803	80	1080958.3555243	1080958.3560228	40	1080961.6769271	1080961.6774827	100	imm	1080962.6751646	1080963.1889115	1080963.1894174	120.0	2.0	1080964.8189151
350.4892578125	0.0	40	717802	25	50	180	1	0	1080955.2409448	1080955.2413803	80	1080958.3555243	1080958.3560228	40	1080961.6769271	1080961.6774827	100	imm	1080962.6751646	1080963.1889115	1080963.1894174	120.0	2.0	1080964.8189151
353.810546875	0.0	100	724604	25	50	180	1	0	1080955.2409448	1080955.2413803	80	1080958.3555243	1080958.3560228	40	1080961.6769271	1080961.6774827	100	imm	1080962.6751646	1080963.1889115	1080963.1894174	120.0	2.0	1080964.8189151
355.32275390625	0.0	120	727701	25	50	180	1	0	1080955.2409448	1080955.2413803	80	1080958.3555243	1080958.3560228	40	1080961.6769271	1080961.6774827	100	imm	1080962.6751646	1080963.1889115	1080963.1894174	120.0	2.0	1080964.8189151
359.30615234375	0.0	80	735859	26	63	180	1	1	1080967.1723921	1080967.1728998	80	1080970.4809423	1080970.4814454	40	1080973.668092	1080973.6686059	100	imm	1080977.9792014	1080978.4881726	1080978.4884335	120.0	3.0	1080979.1146781
362.6142578125	0.0	40	742634	26	63	180	1	1	1080967.1723921	1080967.1728998	80	1080970.4809423	1080970.4814454	40	1080973.668092	1080973.6686059	100	imm	1080977.9792014	1080978.4881726	1080978.4884335	120.0	3.0	1080979.1146781
365.80126953125	0.0	100	749161	26	63	180	1	1	1080967.1723921	1080967.1728998	80	1080970.4809423	1080970.4814454	40	1080973.668092	1080973.6686059	100	imm	1080977.9792014	1080978.4881726	1080978.4884335	120.0	3.0	1080979.1146781
370.62109375	0.0	120	759032	26	63	180	1	1	1080967.1723921	1080967.1728998	80	1080970.4809423	1080970.4814454	40	1080973.668092	1080973.6686059	100	imm	1080977.9792014	1080978.4881726	1080978.4884335	120.0	3.0	1080979.1146781
373.4443359375	0.0	80	764814	27	70	970	0	1	1080981.3109928	1080981.3114861	80	1080984.4041032	1080984.4045257	40	1080987.8155531	1080987.8160168	100	imm	1080989.4745952	nan	nan	nan	nan	nan
376.537109375	0.0	40	771148	27	70	970	0	1	1080981.3109928	1080981.3114861	80	1080984.4041032	1080984.4045257	40	1080987.8155531	1080987.8160168	100	imm	1080989.4745952	nan	nan	nan	nan	nan
379.94873046875	0.0	100	778135	27	70	970	0	1	1080981.3109928	1080981.3114861	80	1080984.4041032	1080984.4045257	40	1080987.8155531	1080987.8160168	100	imm	1080989.4745952	nan	nan	nan	nan	nan
384.37158203125	0.0	80	787193	28	90	2	1	0	1080992.2385948	1080992.239017	80	1080995.4258022	1080995.4262813	40	1080998.826583	1080998.8270594	100	del	1081000.3626695	1081000.8760508	1081000.8765642	120.0	3.0	1081002.0587348
387.55859375	0.0	40	793720	28	90	2	1	0	1080992.2385948	1080992.239017	80	1080995.4258022	1080995.4262813	40	1080998.826583	1080998.8270594	100	del	1081000.3626695	1081000.8760508	1081000.8765642	120.0	3.0	1081002.0587348
390.95947265625	0.0	100	800685	28	90	2	1	0	1080992.2385948	1080992.239017	80	1080995.4258022	1080995.4262813	40	1080998.826583	1080998.8270594	100	del	1081000.3626695	1081000.8760508	1081000.8765642	120.0	3.0	1081002.0587348
393.0087890625	0.0	120	804882	28	90	2	1	0	1080992.2385948	1080992.239017	80	1080995.4258022	1080995.4262813	40	1080998.826583	1080998.8270594	100	del	1081000.3626695	1081000.8760508	1081000.8765642	120.0	3.0	1081002.0587348
396.32568359375	0.0	80	811675	29	70	180	1	1	1081004.1929323	1081004.1934262	80	1081007.6231624	1081007.6240207	40	1081011.045493	1081011.0459884	100	imm	1081014.9388072	1081015.4519584	1081015.4524175	120.0	4.0	1081016.4684078
399.75537109375	0.0	40	818699	29	70	180	1	1	1081004.1929323	1081004.1934262	80	1081007.6231624	1081007.6240207	40	1081011.045493	1081011.0459884	100	imm	1081014.9388072	1081015.4519584	1081015.4524175	120.0	4.0	1081016.4684078
403.177734375	0.0	100	825708	29	70	180	1	1	1081004.1929323	1081004.1934262	80	1081007.6231624	1081007.6240207	40	1081011.045493	1081011.0459884	100	imm	1081014.9388072	1081015.4519584	1081015.4524175	120.0	4.0	1081016.4684078
407.58447265625	0.0	120	834733	29	70	180	1	1	1081004.1929323	1081004.1934262	80	1081007.6231624	1081007.6240207	40	1081011.045493	1081011.0459884	100	imm	1081014.9388072	1081015.4519584	1081015.4524175	120.0	4.0	1081016.4684078
411.041015625	0.0	80	841812	30	53	60	1	1	1081018.9086609	1081018.9091564	80	1081022.101187	1081022.1016248	40	1081025.3065421	1081025.3070177	100	imm	1081028.3944669	1081028.9053247	1081028.9056362	120.0	4.0	1081030.0583148
414.2333984375	0.0	40	848350	30	53	60	1	1	1081018.9086609	1081018.9091564	80	1081022.101187	1081022.1016248	40	1081025.3065421	1081025.3070177	100	imm	1081028.3944669	1081028.9053247	1081028.9056362	120.0	4.0	1081030.0583148
417.4384765625	0.0	100	854914	30	53	60	1	1	1081018.9086609	1081018.9091564	80	1081022.101187	1081022.1016248	40	1081025.3065421	1081025.3070177	100	imm	1081028.3944669	1081028.9053247	1081028.9056362	120.0	4.0	1081030.0583148
421.037109375	0.0	120	862284	30	53	60	1	1	1081018.9086609	1081018.9091564	80	1081022.101187	1081022.1016248	40	1081025.3065421	1081025.3070177	100	imm	1081028.3944669	1081028.9053247	1081028.9056362	120.0	4.0	1081030.0583148
424.63671875	0.0	80	869656	31	53	20	0	1	1081032.5049048	1081032.5054833	80	1081035.7442035	1081035.7447161	40	1081039.0431029	1081039.0436116	100	imm	1081040.7226106	nan	nan	nan	nan	nan
427.8759765625	0.0	40	876290	31	53	20	0	1	1081032.5049048	1081032.5054833	80	1081035.7442035	1081035.7447161	40	1081039.0431029	1081039.0436116	100	imm	1081040.7226106	nan	nan	nan	nan	nan
431.1748046875	0.0	100	883046	31	53	20	0	1	1081032.5049048	1081032.5054833	80	1081035.7442035	1081035.7447161	40	1081039.0431029	1081039.0436116	100	imm	1081040.7226106	nan	nan	nan	nan	nan
435.7197265625	0.0	80	892354	32	97	60	1	1	1081043.5881282	1081043.5885873	80	1081047.076097	1081047.076611	40	1081050.3628026	1081050.363331	100	del	1081053.9311476	1081054.4447911	1081054.4453028	120.0	3.0	1081055.7063741
439.20751953125	0.0	40	899497	32	97	60	1	1	1081043.5881282	1081043.5885873	80	1081047.076097	1081047.076611	40	1081050.3628026	1081050.363331	100	del	1081053.9311476	1081054.4447911	1081054.4453028	120.0	3.0	1081055.7063741
442.494140625	0.0	100	906228	32	97	60	1	1	1081043.5881282	1081043.5885873	80	1081047.076097	1081047.076611	40	1081050.3628026	1081050.363331	100	del	1081053.9311476	1081054.4447911	1081054.4453028	120.0	3.0	1081055.7063741
446.576171875	0.0	120	914588	32	97	60	1	1	1081043.5881282	1081043.5885873	80	1081047.076097	1081047.076611	40	1081050.3628026	1081050.363331	100	del	1081053.9311476	1081054.4447911	1081054.4453028	120.0	3.0	1081055.7063741
450.17333984375	0.0	80	921955	33	67	510	0	0	1081058.0422064	1081058.0426662	80	1081061.3356788	1081061.336146	40	1081064.812541	1081064.8130516	100	del	1081068.3068094	nan	nan	nan	nan	nan
453.466796875	0.0	40	928700	33	67	510	0	0	1081058.0422064	1081058.0426662	80	1081061.3356788	1081061.336146	40	1081064.812541	1081064.8130516	100	del	1081068.3068094	nan	nan	nan	nan	nan
456.94384765625	0.0	100	935821	33	67	510	0	0	1081058.0422064	1081058.0426662	80	1081061.3356788	1081061.336146	40	1081064.812541	1081064.8130516	100	del	1081068.3068094	nan	nan	nan	nan	nan
463.38818359375	0.0	80	949019	34	100	2	1	0	1081071.2572631	1081071.257887	80	1081074.3504608	1081074.3509486	40	1081077.4529835	1081077.4534864	100	del	1081079.018695	1081079.5284187	1081079.5287249	120.0	4.0	1081081.1062271
466.4814453125	0.0	40	955354	34	100	2	1	0	1081071.2572631	1081071.257887	80	1081074.3504608	1081074.3509486	40	1081077.4529835	1081077.4534864	100	del	1081079.018695	1081079.5284187	1081079.5287249	120.0	4.0	1081081.1062271
469.583984375	0.0	100	961708	34	100	2	1	0	1081071.2572631	1081071.257887	80	1081074.3504608	1081074.3509486	40	1081077.4529835	1081077.4534864	100	del	1081079.018695	1081079.5284187	1081079.5287249	120.0	4.0	1081081.1062271
471.6591796875	0.0	120	965958	34	100	2	1	0	1081071.2572631	1081071.257887	80	1081074.3504608	1081074.3509486	40	1081077.4529835	1081077.4534864	100	del	1081079.018695	1081079.5284187	1081079.5287249	120.0	4.0	1081081.1062271
475.3701171875	0.0	80	973558	35	70	260	0	0	1081083.2396788	1081083.2399473	80	1081086.6228496	1081086.6232704	40	1081089.7366737	1081089.7372498	100	imm	1081091.1870422	nan	nan	nan	nan	nan
478.75341796875	0.0	40	980487	35	70	260	0	0	1081083.2396788	1081083.2399473	80	1081086.6228496	1081086.6232704	40	1081089.7366737	1081089.7372498	100	imm	1081091.1870422	nan	nan	nan	nan	nan
481.8671875	0.0	100	986864	35	70	260	0	0	1081083.2396788	1081083.2399473	80	1081086.6228496	1081086.6232704	40	1081089.7366737	1081089.7372498	100	imm	1081091.1870422	nan	nan	nan	nan	nan
486.32568359375	0.0	80	995995	36	93	970	0	0	1081094.1952383	1081094.1971392	80	1081097.5591637	1081097.5596582	40	1081100.6601057	1081100.6606176	100	imm	1081104.15475	nan	nan	nan	nan	nan
489.689453125	0.0	40	1002884	36	93	970	0	0	1081094.1952383	1081094.1971392	80	1081097.5591637	1081097.5596582	40	1081100.6601057	1081100.6606176	100	imm	1081104.15475	nan	nan	nan	nan	nan
492.79052734375	0.0	100	1009235	36	93	970	0	0	1081094.1952383	1081094.1971392	80	1081097.5591637	1081097.5596582	40	1081100.6601057	1081100.6606176	100	imm	1081104.15475	nan	nan	nan	nan	nan
499.23291015625	0.0	80	1022429	37	83	970	0	0	1081107.1030281	1081107.1035025	80	1081110.5657617	1081110.5662155	40	1081114.0603959	1081114.061054	100	imm	1081117.5543984	nan	nan	nan	nan	nan
502.69580078125	0.0	40	1029521	37	83	970	0	0	1081107.1030281	1081107.1035025	80	1081110.5657617	1081110.5662155	40	1081114.0603959	1081114.061054	100	imm	1081117.5543984	nan	nan	nan	nan	nan
506.1904296875	0.0	100	1036678	37	83	970	0	0	1081107.1030281	1081107.1035025	80	1081110.5657617	1081110.5662155	40	1081114.0603959	1081114.061054	100	imm	1081117.5543984	nan	nan	nan	nan	nan
512.4853515625	0.0	80	1049570	38	93	60	1	0	1081120.3558235	1081120.3563503	80	1081123.6462273	1081123.6466247	40	1081126.7484169	1081126.7489297	100	del	1081128.0196836	1081128.52991	1081128.5302702	120.0	3.0	1081129.6745982
515.77587890625	0.0	40	1056309	38	93	60	1	0	1081120.3558235	1081120.3563503	80	1081123.6462273	1081123.6466247	40	1081126.7484169	1081126.7489297	100	del	1081128.0196836	1081128.52991	1081128.5302702	120.0	3.0	1081129.6745982
518.8779296875	0.0	100	1062662	38	93	60	1	0	1081120.3558235	1081120.3563503	80	1081123.6462273	1081123.6466247	40	1081126.7484169	1081126.7489297	100	del	1081128.0196836	1081128.52991	1081128.5302702	120.0	3.0	1081129.6745982
520.6591796875	0.0	120	1066310	38	93	60	1	0	1081120.3558235	1081120.3563503	80	1081123.6462273	1081123.6466247	40	1081126.7484169	1081126.7489297	100	del	1081128.0196836	1081128.52991	1081128.5302702	120.0	3.0	1081129.6745982
524.07666015625	0.0	80	1073309	39	100	110	0	0	1081131.9473465	1081131.9478358	80	1081135.2295909	1081135.2301457	40	1081138.3258322	1081138.326399	100	del	1081142.9548307	nan	nan	nan	nan	nan
527.35888671875	0.0	40	1080031	39	100	110	0	0	1081131.9473465	1081131.9478358	80	1081135.2295909	1081135.2301457	40	1081138.3258322	1081138.326399	100	del	1081142.9548307	nan	nan	nan	nan	nan
530.455078125	0.0	100	1086372	39	100	110	0	0	1081131.9473465	1081131.9478358	80	1081135.2295909	1081135.2301457	40	1081138.3258322	1081138.326399	100	del	1081142.9548307	nan	nan	nan	nan	nan
537.84814453125	0.0	80	1101513	40	83	365	1	1	1081145.7188202	1081145.7193106	80	1081148.9940256	1081148.9944013	40	1081152.1077874	1081152.1082873	100	imm	1081153.795741	1081154.3091065	1081154.3096018	120.0	4.0	1081155.2583007
541.123046875	0.0	40	1108220	40	83	365	1	1	1081145.7188202	1081145.7193106	80	1081148.9940256	1081148.9944013	40	1081152.1077874	1081152.1082873	100	imm	1081153.795741	1081154.3091065	1081154.3096018	120.0	4.0	1081155.2583007
544.23681640625	0.0	100	1114597	40	83	365	1	1	1081145.7188202	1081145.7193106	80	1081148.9940256	1081148.9944013	40	1081152.1077874	1081152.1082873	100	imm	1081153.795741	1081154.3091065	1081154.3096018	120.0	4.0	1081155.2583007
546.43798828125	0.0	120	1119105	40	83	365	1	1	1081145.7188202	1081145.7193106	80	1081148.9940256	1081148.9944013	40	1081152.1077874	1081152.1082873	100	imm	1081153.795741	1081154.3091065	1081154.3096018	120.0	4.0	1081155.2583007
571.55615234375	0.0	80	1170547	41	97	20	0	1	1081179.4280096	1081179.4284676	80	1081182.4487917	1081182.4492802	40	1081185.622093	1081185.622522	100	del	1081187.1787249	nan	nan	nan	nan	nan
574.5771484375	0.0	40	1176734	41	97	20	0	1	1081179.4280096	1081179.4284676	80	1081182.4487917	1081182.4492802	40	1081185.622093	1081185.622522	100	del	1081187.1787249	nan	nan	nan	nan	nan
577.75	0.0	100	1183232	41	97	20	0	1	1081179.4280096	1081179.4284676	80	1081182.4487917	1081182.4492802	40	1081185.622093	1081185.622522	100	del	1081187.1787249	nan	nan	nan	nan	nan
582.0908203125	0.0	80	1192122	42	90	110	0	0	1081189.9629857	1081189.9634224	80	1081193.1341813	1081193.1347066	40	1081196.4485898	1081196.4491697	100	imm	1081197.5942649	nan	nan	nan	nan	nan
585.26220703125	0.0	40	1198617	42	90	110	0	0	1081189.9629857	1081189.9634224	80	1081193.1341813	1081193.1347066	40	1081196.4485898	1081196.4491697	100	imm	1081197.5942649	nan	nan	nan	nan	nan
588.57666015625	0.0	100	1205405	42	90	110	0	0	1081189.9629857	1081189.9634224	80	1081193.1341813	1081193.1347066	40	1081196.4485898	1081196.4491697	100	imm	1081197.5942649	nan	nan	nan	nan	nan
592.42138671875	0.0	80	1213279	43	90	970	0	1	1081200.2936048	1081200.2940973	80	1081203.369171	1081203.3697084	40	1081206.840309	1081206.8408222	100	imm	1081208.8423751	nan	nan	nan	nan	nan
595.4970703125	0.0	40	1219578	43	90	970	0	1	1081200.2936048	1081200.2940973	80	1081203.369171	1081203.3697084	40	1081206.840309	1081206.8408222	100	imm	1081208.8423751	nan	nan	nan	nan	nan
598.9677734375	0.0	100	1226686	43	90	970	0	1	1081200.2936048	1081200.2940973	80	1081203.369171	1081203.3697084	40	1081206.840309	1081206.8408222	100	imm	1081208.8423751	nan	nan	nan	nan	nan
603.8076171875	0.0	80	1236598	44	57	110	0	0	1081211.6803327	1081211.6807661	80	1081215.0180183	1081215.0184671	40	1081218.3695269	1081218.3700168	100	imm	1081220.0025922	nan	nan	nan	nan	nan
607.1455078125	0.0	40	1243434	44	57	110	0	0	1081211.6803327	1081211.6807661	80	1081215.0180183	1081215.0184671	40	1081218.3695269	1081218.3700168	100	imm	1081220.0025922	nan	nan	nan	nan	nan
610.4970703125	0.0	100	1250298	44	57	110	0	0	1081211.6803327	1081211.6807661	80	1081215.0180183	1081215.0184671	40	1081218.3695269	1081218.3700168	100	imm	1081220.0025922	nan	nan	nan	nan	nan
615.01953125	0.0	80	1259560	45	93	180	1	0	1081222.8923176	1081222.8928054	80	1081226.3210537	1081226.3214464	40	1081229.5929206	1081229.5934248	100	imm	1081233.1396482	1081233.6535145	1081233.6540298	120.0	3.0	1081234.7708978
618.4482421875	0.0	40	1266582	45	93	180	1	0	1081222.8923176	1081222.8928054	80	1081226.3210537	1081226.3214464	40	1081229.5929206	1081229.5934248	100	imm	1081233.1396482	1081233.6535145	1081233.6540298	120.0	3.0	1081234.7708978
621.72021484375	0.0	100	1273283	45	93	180	1	0	1081222.8923176	1081222.8928054	80	1081226.3210537	1081226.3214464	40	1081229.5929206	1081229.5934248	100	imm	1081233.1396482	1081233.6535145	1081233.6540298	120.0	3.0	1081234.7708978
625.78076171875	0.0	120	1281599	45	93	180	1	0	1081222.8923176	1081222.8928054	80	1081226.3210537	1081226.3214464	40	1081229.5929206	1081229.5934248	100	imm	1081233.1396482	1081233.6535145	1081233.6540298	120.0	3.0	1081234.7708978
628.98974609375	0.0	80	1288171	46	60	700	1	0	1081236.8626164	1081236.863097	80	1081240.0604615	1081240.0609574	40	1081243.4848887	1081243.4853924	100	imm	1081245.8346204	1081246.3449488	1081246.3453295	120.0	2.0	1081247.0659968
632.1875	0.0	40	1294720	46	60	700	1	0	1081236.8626164	1081236.863097	80	1081240.0604615	1081240.0609574	40	1081243.4848887	1081243.4853924	100	imm	1081245.8346204	1081246.3449488	1081246.3453295	120.0	2.0	1081247.0659968
635.61181640625	0.0	100	1301733	46	60	700	1	0	1081236.8626164	1081236.863097	80	1081240.0604615	1081240.0609574	40	1081243.4848887	1081243.4853924	100	imm	1081245.8346204	1081246.3449488	1081246.3453295	120.0	2.0	1081247.0659968
638.4716796875	0.0	120	1307590	46	60	700	1	0	1081236.8626164	1081236.863097	80	1081240.0604615	1081240.0609574	40	1081243.4848887	1081243.4853924	100	imm	1081245.8346204	1081246.3449488	1081246.3453295	120.0	2.0	1081247.0659968
641.29638671875	0.0	80	1313375	47	50	700	1	1	1081249.1699412	1081249.1704068	80	1081252.3413773	1081252.3417956	40	1081255.8346269	1081255.8349564	100	imm	1081258.4586362	1081258.9715281	1081258.9720308	120.0	2.0	1081261.3778303
644.4677734375	0.0	40	1319870	47	50	700	1	1	1081249.1699412	1081249.1704068	80	1081252.3413773	1081252.3417956	40	1081255.8346269	1081255.8349564	100	imm	1081258.4586362	1081258.9715281	1081258.9720308	120.0	2.0	1081261.3778303
647.9609375	0.0	100	1327024	47	50	700	1	1	1081249.1699412	1081249.1704068	80	1081252.3413773	1081252.3417956	40	1081255.8346269	1081255.8349564	100	imm	1081258.4586362	1081258.9715281	1081258.9720308	120.0	2.0	1081261.3778303
651.09765625	0.0	120	1333448	47	50	700	1	1	1081249.1699412	1081249.1704068	80	1081252.3413773	1081252.3417956	40	1081255.8346269	1081255.8349564	100	imm	1081258.4586362	1081258.9715281	1081258.9720308	120.0	2.0	1081261.3778303
655.92041015625	0.0	80	1343325	48	97	700	1	0	1081263.7941417	1081263.7944439	80	1081266.9129077	1081266.9133779	40	1081270.4266701	1081270.4272416	100	imm	1081272.8437893	1081273.3526911	1081273.3530096	120.0	1.0	1081274.9299975
659.0390625	0.0	40	1349712	48	97	700	1	0	1081263.7941417	1081263.7944439	80	1081266.9129077	1081266.9133779	40	1081270.4266701	1081270.4272416	100	imm	1081272.8437893	1081273.3526911	1081273.3530096	120.0	1.0	1081274.9299975
662.552734375	0.0	100	1356908	48	97	700	1	0	1081263.7941417	1081263.7944439	80	1081266.9129077	1081266.9133779	40	1081270.4266701	1081270.4272416	100	imm	1081272.8437893	1081273.3526911	1081273.3530096	120.0	1.0	1081274.9299975
665.478515625	0.0	120	1362900	48	97	700	1	0	1081263.7941417	1081263.7944439	80	1081266.9129077	1081266.9133779	40	1081270.4266701	1081270.4272416	100	imm	1081272.8437893	1081273.3526911	1081273.3530096	120.0	1.0	1081274.9299975
669.1044921875	0.0	80	1370326	49	90	365	1	0	1081276.9783926	1081276.9788946	80	1081280.1986083	1081280.1990805	40	1081283.4146101	1081283.4151444	100	imm	1081285.0826449	1081285.5963744	1081285.5968834	120.0	4.0	1081286.4826059
672.32421875	0.0	40	1376920	49	90	365	1	0	1081276.9783926	1081276.9788946	80	1081280.1986083	1081280.1990805	40	1081283.4146101	1081283.4151444	100	imm	1081285.0826449	1081285.5963744	1081285.5968834	120.0	4.0	1081286.4826059
675.54052734375	0.0	100	1383507	49	90	365	1	0	1081276.9783926	1081276.9788946	80	1081280.1986083	1081280.1990805	40	1081283.4146101	1081283.4151444	100	imm	1081285.0826449	1081285.5963744	1081285.5968834	120.0	4.0	1081286.4826059
677.72216796875	0.0	120	1387975	49	90	365	1	0	1081276.9783926	1081276.9788946	80	1081280.1986083	1081280.1990805	40	1081283.4146101	1081283.4151444	100	imm	1081285.0826449	1081285.5963744	1081285.5968834	120.0	4.0	1081286.4826059
680.82421875	0.0	80	1394328	50	97	510	0	0	1081288.698552	1081288.6989707	80	1081291.7619879	1081291.7625049	40	1081294.9869493	1081294.9874851	100	imm	1081296.5538033	nan	nan	nan	nan	nan
683.8876953125	0.0	40	1400602	50	97	510	0	0	1081288.698552	1081288.6989707	80	1081291.7619879	1081291.7625049	40	1081294.9869493	1081294.9874851	100	imm	1081296.5538033	nan	nan	nan	nan	nan
687.1123046875	0.0	100	1407206	50	97	510	0	0	1081288.698552	1081288.6989707	80	1081291.7619879	1081291.7625049	40	1081294.9869493	1081294.9874851	100	imm	1081296.5538033	nan	nan	nan	nan	nan
691.50390625	0.0	80	1416200	51	73	180	1	0	1081299.378425	1081299.3788827	80	1081302.8798262	1081302.8803174	40	1081306.0029015	1081306.0036168	100	imm	1081307.4663216	1081307.9799228	1081307.9804077	120.0	4.0	1081309.9859971
695.0048828125	0.0	40	1423370	51	73	180	1	0	1081299.378425	1081299.3788827	80	1081302.8798262	1081302.8803174	40	1081306.0029015	1081306.0036168	100	imm	1081307.4663216	1081307.9799228	1081307.9804077	120.0	4.0	1081309.9859971
698.12841796875	0.0	100	1429767	51	73	180	1	0	1081299.378425	1081299.3788827	80	1081302.8798262	1081302.8803174	40	1081306.0029015	1081306.0036168	100	imm	1081307.4663216	1081307.9799228	1081307.9804077	120.0	4.0	1081309.9859971
700.10498046875	0.0	120	1433815	51	73	180	1	0	1081299.378425	1081299.3788827	80	1081302.8798262	1081302.8803174	40	1081306.0029015	1081306.0036168	100	imm	1081307.4663216	1081307.9799228	1081307.9804077	120.0	4.0	1081309.9859971
704.30419921875	0.0	80	1442415	52	67	700	1	0	1081312.1789736	1081312.1794296	80	1081315.320697	1081315.3211825	40	1081318.4796655	1081318.4801413	100	imm	1081320.5783597	1081321.0919655	1081321.0924778	120.0	2.0	1081321.8018127
707.44580078125	0.0	40	1448849	52	67	700	1	0	1081312.1789736	1081312.1794296	80	1081315.320697	1081315.3211825	40	1081318.4796655	1081318.4801413	100	imm	1081320.5783597	1081321.0919655	1081321.0924778	120.0	2.0	1081321.8018127
710.6044921875	0.0	100	1455318	52	67	700	1	0	1081312.1789736	1081312.1794296	80	1081315.320697	1081315.3211825	40	1081318.4796655	1081318.4801413	100	imm	1081320.5783597	1081321.0919655	1081321.0924778	120.0	2.0	1081321.8018127
713.216796875	0.0	120	1460668	52	67	700	1	0	1081312.1789736	1081312.1794296	80	1081315.320697	1081315.3211825	40	1081318.4796655	1081318.4801413	100	imm	1081320.5783597	1081321.0919655	1081321.0924778	120.0	2.0	1081321.8018127
716.03515625	0.0	80	1466440	53	73	110	0	1	1081323.9102622	1081323.9106173	80	1081326.9290667	1081326.9295489	40	1081330.1665208	1081330.1670285	100	imm	1081332.4755367	nan	nan	nan	nan	nan
719.0537109375	0.0	40	1472622	53	73	110	0	1	1081323.9102622	1081323.9106173	80	1081326.9290667	1081326.9295489	40	1081330.1665208	1081330.1670285	100	imm	1081332.4755367	nan	nan	nan	nan	nan
722.291015625	0.0	100	1479252	53	73	110	0	1	1081323.9102622	1081323.9106173	80	1081326.9290667	1081326.9295489	40	1081330.1665208	1081330.1670285	100	imm	1081332.4755367	nan	nan	nan	nan	nan
727.23876953125	0.0	80	1489385	54	60	970	0	1	1081335.1142863	1081335.1146744	80	1081338.5564538	1081338.5569448	40	1081341.8336533	1081341.8344813	100	imm	1081344.6178807	nan	nan	nan	nan	nan
730.6806640625	0.0	40	1496434	54	60	970	0	1	1081335.1142863	1081335.1146744	80	1081338.5564538	1081338.5569448	40	1081341.8336533	1081341.8344813	100	imm	1081344.6178807	nan	nan	nan	nan	nan
733.9580078125	0.0	100	1503146	54	60	970	0	1	1081335.1142863	1081335.1146744	80	1081338.5564538	1081338.5569448	40	1081341.8336533	1081341.8344813	100	imm	1081344.6178807	nan	nan	nan	nan	nan
739.71728515625	0.0	80	1514941	55	97	2	1	0	1081347.5933546	1081347.5938465	80	1081351.0880397	1081351.0884652	40	1081354.3944529	1081354.3949318	100	del	1081355.8914883	1081356.4034675	1081356.4038939	120.0	3.0	1081357.72232
743.2119140625	0.0	40	1522098	55	97	2	1	0	1081347.5933546	1081347.5938465	80	1081351.0880397	1081351.0884652	40	1081354.3944529	1081354.3949318	100	del	1081355.8914883	1081356.4034675	1081356.4038939	120.0	3.0	1081357.72232
746.5185546875	0.0	100	1528870	55	97	2	1	0	1081347.5933546	1081347.5938465	80	1081351.0880397	1081351.0884652	40	1081354.3944529	1081354.3949318	100	del	1081355.8914883	1081356.4034675	1081356.4038939	120.0	3.0	1081357.72232
748.52734375	0.0	120	1532984	55	97	2	1	0	1081347.5933546	1081347.5938465	80	1081351.0880397	1081351.0884652	40	1081354.3944529	1081354.3949318	100	del	1081355.8914883	1081356.4034675	1081356.4038939	120.0	3.0	1081357.72232
751.92138671875	0.0	80	1539935	56	93	2	1	1	1081359.7975319	1081359.7979794	80	1081363.2685581	1081363.2690159	40	1081366.578215	1081366.5786698	100	del	1081368.0095869	1081368.5236357	1081368.5241409	120.0	3.0	1081369.7221826
755.39208984375	0.0	40	1547043	56	93	2	1	1	1081359.7975319	1081359.7979794	80	1081363.2685581	1081363.2690159	40	1081366.578215	1081366.5786698	100	del	1081368.0095869	1081368.5236357	1081368.5241409	120.0	3.0	1081369.7221826
758.7021484375	0.0	100	1553822	56	93	2	1	1	1081359.7975319	1081359.7979794	80	1081363.2685581	1081363.2690159	40	1081366.578215	1081366.5786698	100	del	1081368.0095869	1081368.5236357	1081368.5241409	120.0	3.0	1081369.7221826
760.6474609375	0.0	120	1557806	56	93	2	1	1	1081359.7975319	1081359.7979794	80	1081363.2685581	1081363.2690159	40	1081366.578215	1081366.5786698	100	del	1081368.0095869	1081368.5236357	1081368.5241409	120.0	3.0	1081369.7221826
764.2998046875	0.0	80	1565286	57	50	365	1	0	1081372.1760772	1081372.1765223	80	1081375.3961746	1081375.3966684	40	1081378.7139215	1081378.7143819	100	imm	1081381.0497956	1081381.5642581	1081381.5646931	120.0	4.0	1081383.8342575
767.51953125	0.0	40	1571880	57	50	365	1	0	1081372.1760772	1081372.1765223	80	1081375.3961746	1081375.3966684	40	1081378.7139215	1081378.7143819	100	imm	1081381.0497956	1081381.5642581	1081381.5646931	120.0	4.0	1081383.8342575
770.83740234375	0.0	100	1578675	57	50	365	1	0	1081372.1760772	1081372.1765223	80	1081375.3961746	1081375.3966684	40	1081378.7139215	1081378.7143819	100	imm	1081381.0497956	1081381.5642581	1081381.5646931	120.0	4.0	1081383.8342575
773.6875	0.0	120	1584512	57	50	365	1	0	1081372.1760772	1081372.1765223	80	1081375.3961746	1081375.3966684	40	1081378.7139215	1081378.7143819	100	imm	1081381.0497956	1081381.5642581	1081381.5646931	120.0	4.0	1081383.8342575
778.01123046875	0.0	80	1593367	58	70	510	0	0	1081385.8880643	1081385.8884585	80	1081389.3579805	1081389.3584731	40	1081392.6919941	1081392.6927633	100	imm	1081394.5615685	nan	nan	nan	nan	nan
781.48095703125	0.0	40	1600473	58	70	510	0	0	1081385.8880643	1081385.8884585	80	1081389.3579805	1081389.3584731	40	1081392.6919941	1081392.6927633	100	imm	1081394.5615685	nan	nan	nan	nan	nan
784.814453125	0.0	100	1607300	58	70	510	0	0	1081385.8880643	1081385.8884585	80	1081389.3579805	1081389.3584731	40	1081392.6919941	1081392.6927633	100	imm	1081394.5615685	nan	nan	nan	nan	nan
789.25390625	0.0	80	1616392	59	67	60	1	0	1081397.1311753	1081397.1316582	80	1081400.4889316	1081400.4893794	40	1081403.7006822	1081403.7011415	100	imm	1081406.0579955	1081406.5709073	1081406.5714082	120.0	4.0	1081407.5314469
792.61181640625	0.0	40	1623269	59	67	60	1	0	1081397.1311753	1081397.1316582	80	1081400.4889316	1081400.4893794	40	1081403.7006822	1081403.7011415	100	imm	1081406.0579955	1081406.5709073	1081406.5714082	120.0	4.0	1081407.5314469
795.8232421875	0.0	100	1629846	59	67	60	1	0	1081397.1311753	1081397.1316582	80	1081400.4889316	1081400.4893794	40	1081403.7006822	1081403.7011415	100	imm	1081406.0579955	1081406.5709073	1081406.5714082	120.0	4.0	1081407.5314469
798.693359375	0.0	120	1635724	59	67	60	1	0	1081397.1311753	1081397.1316582	80	1081400.4889316	1081400.4893794	40	1081403.7006822	1081403.7011415	100	imm	1081406.0579955	1081406.5709073	1081406.5714082	120.0	4.0	1081407.5314469
801.7119140625	0.0	80	1641906	60	83	700	1	1	1081409.5894496	1081409.589911	80	1081412.7050402	1081412.7056017	40	1081415.8434729	1081415.8439771	100	imm	1081417.7696197	1081418.2844137	1081418.2849617	120.0	2.0	1081420.7456962
804.82763671875	0.0	40	1648287	60	83	700	1	1	1081409.5894496	1081409.589911	80	1081412.7050402	1081412.7056017	40	1081415.8434729	1081415.8439771	100	imm	1081417.7696197	1081418.2844137	1081418.2849617	120.0	2.0	1081420.7456962
807.9658203125	0.0	100	1654714	60	83	700	1	1	1081409.5894496	1081409.589911	80	1081412.7050402	1081412.7056017	40	1081415.8434729	1081415.8439771	100	imm	1081417.7696197	1081418.2844137	1081418.2849617	120.0	2.0	1081420.7456962
810.40673828125	0.0	120	1659713	60	83	700	1	1	1081409.5894496	1081409.589911	80	1081412.7050402	1081412.7056017	40	1081415.8434729	1081415.8439771	100	imm	1081417.7696197	1081418.2844137	1081418.2849617	120.0	2.0	1081420.7456962
838.037109375	0.0	80	1716300	61	80	180	1	0	1081445.9154366	1081445.9159104	80	1081449.2750242	1081449.2754786	40	1081452.6654511	1081452.6659557	100	imm	1081454.5459918	1081455.0598366	1081455.0603066	120.0	3.0	1081456.8274009
841.396484375	0.0	40	1723180	61	80	180	1	0	1081445.9154366	1081445.9159104	80	1081449.2750242	1081449.2754786	40	1081452.6654511	1081452.6659557	100	imm	1081454.5459918	1081455.0598366	1081455.0603066	120.0	3.0	1081456.8274009
844.787109375	0.0	100	1730124	61	80	180	1	0	1081445.9154366	1081445.9159104	80	1081449.2750242	1081449.2754786	40	1081452.6654511	1081452.6659557	100	imm	1081454.5459918	1081455.0598366	1081455.0603066	120.0	3.0	1081456.8274009
847.18115234375	0.0	120	1735027	61	80	180	1	0	1081445.9154366	1081445.9159104	80	1081449.2750242	1081449.2754786	40	1081452.6654511	1081452.6659557	100	imm	1081454.5459918	1081455.0598366	1081455.0603066	120.0	3.0	1081456.8274009
851.23779296875	0.0	80	1743335	62	80	365	1	1	1081459.1165647	1081459.117017	80	1081462.4010329	1081462.4015962	40	1081465.7296529	1081465.7301245	100	imm	1081467.0979175	1081467.6112557	1081467.6117157	120.0	4.0	1081468.4496539
854.5224609375	0.0	40	1750062	62	80	365	1	1	1081459.1165647	1081459.117017	80	1081462.4010329	1081462.4015962	40	1081465.7296529	1081465.7301245	100	imm	1081467.0979175	1081467.6112557	1081467.6117157	120.0	4.0	1081468.4496539
857.85107421875	0.0	100	1756879	62	80	365	1	1	1081459.1165647	1081459.117017	80	1081462.4010329	1081462.4015962	40	1081465.7296529	1081465.7301245	100	imm	1081467.0979175	1081467.6112557	1081467.6117157	120.0	4.0	1081468.4496539
859.732421875	0.0	120	1760732	62	80	365	1	1	1081459.1165647	1081459.117017	80	1081462.4010329	1081462.4015962	40	1081465.7296529	1081465.7301245	100	imm	1081467.0979175	1081467.6112557	1081467.6117157	120.0	4.0	1081468.4496539
863.08154296875	0.0	80	1767591	63	87	180	1	1	1081470.9604347	1081470.9609311	80	1081474.2865013	1081474.2869618	40	1081477.601364	1081477.6025105	100	imm	1081480.0096881	1081480.523301	1081480.5237733	120.0	4.0	1081482.7059941
866.40771484375	0.0	40	1774403	63	87	180	1	1	1081470.9604347	1081470.9609311	80	1081474.2865013	1081474.2869618	40	1081477.601364	1081477.6025105	100	imm	1081480.0096881	1081480.523301	1081480.5237733	120.0	4.0	1081482.7059941
869.72265625	0.0	100	1781192	63	87	180	1	1	1081470.9604347	1081470.9609311	80	1081474.2865013	1081474.2869618	40	1081477.601364	1081477.6025105	100	imm	1081480.0096881	1081480.523301	1081480.5237733	120.0	4.0	1081482.7059941
872.64404296875	0.0	120	1787175	63	87	180	1	1	1081470.9604347	1081470.9609311	80	1081474.2865013	1081474.2869618	40	1081477.601364	1081477.6025105	100	imm	1081480.0096881	1081480.523301	1081480.5237733	120.0	4.0	1081482.7059941
877.2978515625	0.0	80	1796706	64	97	365	1	1	1081485.1772102	1081485.1776954	80	1081488.4676384	1081488.4679352	40	1081491.6450503	1081491.6454265	100	imm	1081492.922146	1081493.4356761	1081493.4363233	120.0	4.0	1081495.681845
880.58837890625	0.0	40	1803445	64	97	365	1	1	1081485.1772102	1081485.1776954	80	1081488.4676384	1081488.4679352	40	1081491.6450503	1081491.6454265	100	imm	1081492.922146	1081493.4356761	1081493.4363233	120.0	4.0	1081495.681845
883.765625	0.0	100	1809952	64	97	365	1	1	1081485.1772102	1081485.1776954	80	1081488.4676384	1081488.4679352	40	1081491.6450503	1081491.6454265	100	imm	1081492.922146	1081493.4356761	1081493.4363233	120.0	4.0	1081495.681845
885.55615234375	0.0	120	1813619	64	97	365	1	1	1081485.1772102	1081485.1776954	80	1081488.4676384	1081488.4679352	40	1081491.6450503	1081491.6454265	100	imm	1081492.922146	1081493.4356761	1081493.4363233	120.0	4.0	1081495.681845
890.29736328125	0.0	80	1823329	65	60	510	0	0	1081498.1766787	1081498.1771833	80	1081501.4042624	1081501.404764	40	1081504.7183341	1081504.7188173	100	imm	1081506.8659933	nan	nan	nan	nan	nan
893.5244140625	0.0	40	1829938	65	60	510	0	0	1081498.1766787	1081498.1771833	80	1081501.4042624	1081501.404764	40	1081504.7183341	1081504.7188173	100	imm	1081506.8659933	nan	nan	nan	nan	nan
896.83837890625	0.0	100	1836725	65	60	510	0	0	1081498.1766787	1081498.1771833	80	1081501.4042624	1081501.404764	40	1081504.7183341	1081504.7188173	100	imm	1081506.8659933	nan	nan	nan	nan	nan
901.86328125	0.0	80	1847016	66	50	110	0	0	1081509.7432512	1081509.7437047	80	1081513.0905022	1081513.0909496	40	1081516.2097779	1081516.2102844	100	imm	1081518.4899221	nan	nan	nan	nan	nan
905.21044921875	0.0	40	1853871	66	50	110	0	0	1081509.7432512	1081509.7437047	80	1081513.0905022	1081513.0909496	40	1081516.2097779	1081516.2102844	100	imm	1081518.4899221	nan	nan	nan	nan	nan
908.32958984375	0.0	100	1860259	66	50	110	0	0	1081509.7432512	1081509.7437047	80	1081513.0905022	1081513.0909496	40	1081516.2097779	1081516.2102844	100	imm	1081518.4899221	nan	nan	nan	nan	nan
913.16748046875	0.0	80	1870167	67	60	365	1	0	1081521.0476412	1081521.048175	80	1081524.1926467	1081524.1931501	40	1081527.640113	1081527.6406138	100	imm	1081530.3695562	1081530.8800001	1081530.8803876	120.0	2.0	1081532.2016335
916.3125	0.0	40	1876608	67	60	365	1	0	1081521.0476412	1081521.048175	80	1081524.1926467	1081524.1931501	40	1081527.640113	1081527.6406138	100	imm	1081530.3695562	1081530.8800001	1081530.8803876	120.0	2.0	1081532.2016335
919.759765625	0.0	100	1883668	67	60	365	1	0	1081521.0476412	1081521.048175	80	1081524.1926467	1081524.1931501	40	1081527.640113	1081527.6406138	100	imm	1081530.3695562	1081530.8800001	1081530.8803876	120.0	2.0	1081532.2016335
922.99951171875	0.0	120	1890303	67	60	365	1	0	1081521.0476412	1081521.048175	80	1081524.1926467	1081524.1931501	40	1081527.640113	1081527.6406138	100	imm	1081530.3695562	1081530.8800001	1081530.8803876	120.0	2.0	1081532.2016335
926.6171875	0.0	80	1897712	68	73	2	1	0	1081534.4976691	1081534.4981492	80	1081537.737454	1081537.7379206	40	1081540.9664637	1081540.9669745	100	del	1081543.6499774	1081544.1636914	1081544.1641632	120.0	4.0	1081545.1616848
929.85693359375	0.0	40	1904347	68	73	2	1	0	1081534.4976691	1081534.4981492	80	1081537.737454	1081537.7379206	40	1081540.9664637	1081540.9669745	100	del	1081543.6499774	1081544.1636914	1081544.1641632	120.0	4.0	1081545.1616848
933.0859375	0.0	100	1910960	68	73	2	1	0	1081534.4976691	1081534.4981492	80	1081537.737454	1081537.7379206	40	1081540.9664637	1081540.9669745	100	del	1081543.6499774	1081544.1636914	1081544.1641632	120.0	4.0	1081545.1616848
936.283203125	0.0	120	1917508	68	73	2	1	0	1081534.4976691	1081534.4981492	80	1081537.737454	1081537.7379206	40	1081540.9664637	1081540.9669745	100	del	1081543.6499774	1081544.1636914	1081544.1641632	120.0	4.0	1081545.1616848
939.68359375	0.0	80	1924472	69	100	510	0	1	1081547.5643371	1081547.5648428	80	1081550.8988952	1081550.8993455	40	1081554.241035	1081554.2414913	100	imm	1081556.0499048	nan	nan	nan	nan	nan
943.01806640625	0.0	40	1931301	69	100	510	0	1	1081547.5643371	1081547.5648428	80	1081550.8988952	1081550.8993455	40	1081554.241035	1081554.2414913	100	imm	1081556.0499048	nan	nan	nan	nan	nan
946.35986328125	0.0	100	1938145	69	100	510	0	1	1081547.5643371	1081547.5648428	80	1081550.8988952	1081550.8993455	40	1081554.241035	1081554.2414913	100	imm	1081556.0499048	nan	nan	nan	nan	nan
950.76708984375	0.0	80	1947171	70	87	970	0	0	1081558.6482286	1081558.6487385	80	1081561.8721176	1081561.8725144	40	1081565.1384788	1081565.1389477	100	imm	1081567.7617721	nan	nan	nan	nan	nan
953.99072265625	0.0	40	1953773	70	87	970	0	0	1081558.6482286	1081558.6487385	80	1081561.8721176	1081561.8725144	40	1081565.1384788	1081565.1389477	100	imm	1081567.7617721	nan	nan	nan	nan	nan
957.25732421875	0.0	100	1960463	70	87	970	0	0	1081558.6482286	1081558.6487385	80	1081561.8721176	1081561.8725144	40	1081565.1384788	1081565.1389477	100	imm	1081567.7617721	nan	nan	nan	nan	nan
962.58642578125	0.0	80	1971377	71	90	60	1	1	1081570.4679536	1081570.4684437	80	1081573.7157118	1081573.7162099	40	1081576.89977	1081576.9002852	100	del	1081580.5294468	1081581.0423914	1081581.0427647	120.0	3.0	1081582.0337951
965.83447265625	0.0	40	1978029	71	90	60	1	1	1081570.4679536	1081570.4684437	80	1081573.7157118	1081573.7162099	40	1081576.89977	1081576.9002852	100	del	1081580.5294468	1081581.0423914	1081581.0427647	120.0	3.0	1081582.0337951
969.01806640625	0.0	100	1984549	71	90	60	1	1	1081570.4679536	1081570.4684437	80	1081573.7157118	1081573.7162099	40	1081576.89977	1081576.9002852	100	del	1081580.5294468	1081581.0423914	1081581.0427647	120.0	3.0	1081582.0337951
973.16064453125	0.0	120	1993033	71	90	60	1	1	1081570.4679536	1081570.4684437	80	1081573.7157118	1081573.7162099	40	1081576.89977	1081576.9002852	100	del	1081580.5294468	1081581.0423914	1081581.0427647	120.0	3.0	1081582.0337951
976.55615234375	0.0	80	1999987	72	93	110	0	1	1081584.4377924	1081584.4382789	80	1081587.6373529	1081587.63777	40	1081591.0061334	1081591.006665	100	imm	1081596.4828369	nan	nan	nan	nan	nan
979.75537109375	0.0	40	2006539	72	93	110	0	1	1081584.4377924	1081584.4382789	80	1081587.6373529	1081587.63777	40	1081591.0061334	1081591.006665	100	imm	1081596.4828369	nan	nan	nan	nan	nan
983.12451171875	0.0	100	2013439	72	93	110	0	1	1081584.4377924	1081584.4382789	80	1081587.6373529	1081587.63777	40	1081591.0061334	1081591.006665	100	imm	1081596.4828369	nan	nan	nan	nan	nan
991.35986328125	0.0	80	2030305	73	50	20	0	1	1081599.2416682	1081599.2422207	80	1081602.6138453	1081602.6143202	40	1081606.0957217	1081606.0962414	100	imm	1081607.7852883	nan	nan	nan	nan	nan
994.7314453125	0.0	40	2037210	73	50	20	0	1	1081599.2416682	1081599.2422207	80	1081602.6138453	1081602.6143202	40	1081606.0957217	1081606.0962414	100	imm	1081607.7852883	nan	nan	nan	nan	nan
998.21337890625	0.0	100	2044341	73	50	20	0	1	1081599.2416682	1081599.2422207	80	1081602.6138453	1081602.6143202	40	1081606.0957217	1081606.0962414	100	imm	1081607.7852883	nan	nan	nan	nan	nan
1002.68017578125	0.0	80	2053489	74	87	2	1	1	1081610.5627209	1081610.5632177	80	1081614.0223114	1081614.0227375	40	1081617.1407245	1081617.1410658	100	del	1081619.0731327	1081619.5877305	1081619.588275	120.0	4.0	1081621.0011746
1006.1396484375	0.0	40	2060574	74	87	2	1	1	1081610.5627209	1081610.5632177	80	1081614.0223114	1081614.0227375	40	1081617.1407245	1081617.1410658	100	del	1081619.0731327	1081619.5877305	1081619.588275	120.0	4.0	1081621.0011746
1009.25830078125	0.0	100	2066961	74	87	2	1	1	1081610.5627209	1081610.5632177	80	1081614.0223114	1081614.0227375	40	1081617.1407245	1081617.1410658	100	del	1081619.0731327	1081619.5877305	1081619.588275	120.0	4.0	1081621.0011746
1011.705078125	0.0	120	2071972	74	87	2	1	1	1081610.5627209	1081610.5632177	80	1081614.0223114	1081614.0227375	40	1081617.1407245	1081617.1410658	100	del	1081619.0731327	1081619.5877305	1081619.588275	120.0	4.0	1081621.0011746
1015.56982421875	0.0	80	2079887	75	73	20	0	0	1081623.4524726	1081623.4529593	80	1081626.5028704	1081626.5033241	40	1081629.7485916	1081629.7490861	100	del	1081631.2741068	nan	nan	nan	nan	nan
1018.6201171875	0.0	40	2086134	75	73	20	0	0	1081623.4524726	1081623.4529593	80	1081626.5028704	1081626.5033241	40	1081629.7485916	1081629.7490861	100	del	1081631.2741068	nan	nan	nan	nan	nan
1021.86572265625	0.0	100	2092781	75	73	20	0	0	1081623.4524726	1081623.4529593	80	1081626.5028704	1081626.5033241	40	1081629.7485916	1081629.7490861	100	del	1081631.2741068	nan	nan	nan	nan	nan
1025.92236328125	0.0	80	2101089	76	77	510	0	0	1081633.8053333	1081633.805797	80	1081637.2171021	1081637.2175368	40	1081640.320373	1081640.3208444	100	imm	1081641.5374846	nan	nan	nan	nan	nan
1029.333984375	0.0	40	2108076	76	77	510	0	0	1081633.8053333	1081633.805797	80	1081637.2171021	1081637.2175368	40	1081640.320373	1081640.3208444	100	imm	1081641.5374846	nan	nan	nan	nan	nan
1032.4375	0.0	100	2114432	76	77	510	0	0	1081633.8053333	1081633.805797	80	1081637.2171021	1081637.2175368	40	1081640.320373	1081640.3208444	100	imm	1081641.5374846	nan	nan	nan	nan	nan
1036.2548828125	0.0	80	2122250	77	73	365	1	0	1081644.1381054	1081644.1386053	80	1081647.2363698	1081647.2368442	40	1081650.5950885	1081650.5955448	100	imm	1081653.2013148	1081653.7156584	1081653.7161602	120.0	4.0	1081654.4500418
1039.35302734375	0.0	40	2128595	77	73	365	1	0	1081644.1381054	1081644.1386053	80	1081647.2363698	1081647.2368442	40	1081650.5950885	1081650.5955448	100	imm	1081653.2013148	1081653.7156584	1081653.7161602	120.0	4.0	1081654.4500418
1042.7119140625	0.0	100	2135474	77	73	365	1	0	1081644.1381054	1081644.1386053	80	1081647.2363698	1081647.2368442	40	1081650.5950885	1081650.5955448	100	imm	1081653.2013148	1081653.7156584	1081653.7161602	120.0	4.0	1081654.4500418
1045.83251953125	0.0	120	2141865	77	73	365	1	0	1081644.1381054	1081644.1386053	80	1081647.2363698	1081647.2368442	40	1081650.5950885	1081650.5955448	100	imm	1081653.2013148	1081653.7156584	1081653.7161602	120.0	4.0	1081654.4500418
1048.689453125	0.0	80	2147716	78	97	260	0	1	1081656.5727264	1081656.5732228	80	1081659.7302093	1081659.7306816	40	1081663.1273792	1081663.1278432	100	imm	1081664.7854964	nan	nan	nan	nan	nan
1051.8466796875	0.0	40	2154182	78	97	260	0	1	1081656.5727264	1081656.5732228	80	1081659.7302093	1081659.7306816	40	1081663.1273792	1081663.1278432	100	imm	1081664.7854964	nan	nan	nan	nan	nan
1055.24365234375	0.0	100	2161139	78	97	260	0	1	1081656.5727264	1081656.5732228	80	1081659.7302093	1081659.7306816	40	1081663.1273792	1081663.1278432	100	imm	1081664.7854964	nan	nan	nan	nan	nan
1059.66552734375	0.0	80	2170195	79	77	180	1	1	1081667.5491392	1081667.5494933	80	1081671.0115874	1081671.0120002	40	1081674.0535819	1081674.0540419	100	imm	1081675.4736754	1081675.9851224	1081675.9855626	120.0	4.0	1081676.8976681
1063.1279296875	0.0	40	2177286	79	77	180	1	1	1081667.5491392	1081667.5494933	80	1081671.0115874	1081671.0120002	40	1081674.0535819	1081674.0540419	100	imm	1081675.4736754	1081675.9851224	1081675.9855626	120.0	4.0	1081676.8976681
1066.16943359375	0.0	100	2183515	79	77	180	1	1	1081667.5491392	1081667.5494933	80	1081671.0115874	1081671.0120002	40	1081674.0535819	1081674.0540419	100	imm	1081675.4736754	1081675.9851224	1081675.9855626	120.0	4.0	1081676.8976681
1068.10107421875	0.0	120	2187471	79	77	180	1	1	1081667.5491392	1081667.5494933	80	1081671.0115874	1081671.0120002	40	1081674.0535819	1081674.0540419	100	imm	1081675.4736754	1081675.9851224	1081675.9855626	120.0	4.0	1081676.8976681
1071.24755859375	0.0	80	2193915	80	93	700	1	1	1081679.1318375	1081679.1323389	80	1081682.4257069	1081682.426219	40	1081685.7215417	1081685.721973	100	imm	1081688.7612718	1081689.2703617	1081689.270728	120.0	1.0	1081689.6650126
1074.54150390625	0.0	40	2200661	80	93	700	1	1	1081679.1318375	1081679.1323389	80	1081682.4257069	1081682.426219	40	1081685.7215417	1081685.721973	100	imm	1081688.7612718	1081689.2703617	1081689.270728	120.0	1.0	1081689.6650126
1077.83740234375	0.0	100	2207411	80	93	700	1	1	1081679.1318375	1081679.1323389	80	1081682.4257069	1081682.426219	40	1081685.7215417	1081685.721973	100	imm	1081688.7612718	1081689.2703617	1081689.270728	120.0	1.0	1081689.6650126
1081.38623046875	0.0	120	2214679	80	93	700	1	1	1081679.1318375	1081679.1323389	80	1081682.4257069	1081682.426219	40	1081685.7215417	1081685.721973	100	imm	1081688.7612718	1081689.2703617	1081689.270728	120.0	1.0	1081689.6650126
1104.2607421875	0.0	80	2261526	81	50	60	1	1	1081712.1453798	1081712.1458309	80	1081715.215827	1081715.2163157	40	1081718.3794703	1081718.3799447	100	imm	1081720.4733759	1081720.9829093	1081720.9832291	120.0	4.0	1081722.2265548
1107.3310546875	0.0	40	2267814	81	50	60	1	1	1081712.1453798	1081712.1458309	80	1081715.215827	1081715.2163157	40	1081718.3794703	1081718.3799447	100	imm	1081720.4733759	1081720.9829093	1081720.9832291	120.0	4.0	1081722.2265548
1110.49462890625	0.0	100	2274293	81	50	60	1	1	1081712.1453798	1081712.1458309	80	1081715.215827	1081715.2163157	40	1081718.3794703	1081718.3799447	100	imm	1081720.4733759	1081720.9829093	1081720.9832291	120.0	4.0	1081722.2265548
1113.09765625	0.0	120	2279624	81	50	60	1	1	1081712.1453798	1081712.1458309	80	1081715.215827	1081715.2163157	40	1081718.3794703	1081718.3799447	100	imm	1081720.4733759	1081720.9829093	1081720.9832291	120.0	4.0	1081722.2265548
1116.3583984375	0.0	80	2286302	82	90	510	0	1	1081724.243431	1081724.243969	80	1081727.7263852	1081727.7269243	40	1081731.123084	1081731.1235829	100	imm	1081732.8172353	nan	nan	nan	nan	nan
1119.84130859375	0.0	40	2293435	82	90	510	0	1	1081724.243431	1081724.243969	80	1081727.7263852	1081727.7269243	40	1081731.123084	1081731.1235829	100	imm	1081732.8172353	nan	nan	nan	nan	nan
1123.23779296875	0.0	100	2300391	82	90	510	0	1	1081724.243431	1081724.243969	80	1081727.7263852	1081727.7269243	40	1081731.123084	1081731.1235829	100	imm	1081732.8172353	nan	nan	nan	nan	nan
1127.82177734375	0.0	80	2309779	83	53	2	1	0	1081735.7070147	1081735.70716	80	1081738.7835613	1081738.7840573	40	1081741.9720107	1081741.9724082	100	del	1081744.3308565	1081744.8444639	1081744.8449647	120.0	3.0	1081746.5296041
1130.89794921875	0.0	40	2316079	83	53	2	1	0	1081735.7070147	1081735.70716	80	1081738.7835613	1081738.7840573	40	1081741.9720107	1081741.9724082	100	del	1081744.3308565	1081744.8444639	1081744.8449647	120.0	3.0	1081746.5296041
1134.08642578125	0.0	100	2322609	83	53	2	1	0	1081735.7070147	1081735.70716	80	1081738.7835613	1081738.7840573	40	1081741.9720107	1081741.9724082	100	del	1081744.3308565	1081744.8444639	1081744.8449647	120.0	3.0	1081746.5296041
1136.958984375	0.0	120	2328492	83	53	2	1	0	1081735.7070147	1081735.70716	80	1081738.7835613	1081738.7840573	40	1081741.9720107	1081741.9724082	100	del	1081744.3308565	1081744.8444639	1081744.8449647	120.0	3.0	1081746.5296041
1140.7314453125	0.0	80	2336218	84	83	2	1	0	1081748.6173523	1081748.6177811	80	1081751.8738516	1081751.8743242	40	1081755.2916284	1081755.2920939	100	del	1081757.9609679	1081758.4755544	1081758.4760299	120.0	4.0	1081759.6178642
1143.98779296875	0.0	40	2342887	84	83	2	1	0	1081748.6173523	1081748.6177811	80	1081751.8738516	1081751.8743242	40	1081755.2916284	1081755.2920939	100	del	1081757.9609679	1081758.4755544	1081758.4760299	120.0	4.0	1081759.6178642
1147.40576171875	0.0	100	2349887	84	83	2	1	0	1081748.6173523	1081748.6177811	80	1081751.8738516	1081751.8743242	40	1081755.2916284	1081755.2920939	100	del	1081757.9609679	1081758.4755544	1081758.4760299	120.0	4.0	1081759.6178642
1150.58935546875	0.0	120	2356407	84	83	2	1	0	1081748.6173523	1081748.6177811	80	1081751.8738516	1081751.8743242	40	1081755.2916284	1081755.2920939	100	del	1081757.9609679	1081758.4755544	1081758.4760299	120.0	4.0	1081759.6178642
1154.0634765625	0.0	80	2363522	85	73	510	0	0	1081761.949365	1081761.9499081	80	1081765.3022005	1081765.3026272	40	1081768.6355299	1081768.6360398	100	imm	1081771.2573284	nan	nan	nan	nan	nan
1157.416015625	0.0	40	2370388	85	73	510	0	0	1081761.949365	1081761.9499081	80	1081765.3022005	1081765.3026272	40	1081768.6355299	1081768.6360398	100	imm	1081771.2573284	nan	nan	nan	nan	nan
1160.74951171875	0.0	100	2377215	85	73	510	0	0	1081761.949365	1081761.9499081	80	1081765.3022005	1081765.3026272	40	1081768.6355299	1081768.6360398	100	imm	1081771.2573284	nan	nan	nan	nan	nan
1166.2529296875	0.0	80	2388486	86	83	60	1	1	1081774.1393513	1081774.1398124	80	1081777.5768047	1081777.5772976	40	1081780.9063482	1081780.9067995	100	imm	1081782.297408	1081782.8103962	1081782.8108874	120.0	4.0	1081783.7546986
1169.6904296875	0.0	40	2395526	86	83	60	1	1	1081774.1393513	1081774.1398124	80	1081777.5768047	1081777.5772976	40	1081780.9063482	1081780.9067995	100	imm	1081782.297408	1081782.8103962	1081782.8108874	120.0	4.0	1081783.7546986
1173.02001953125	0.0	100	2402345	86	83	60	1	1	1081774.1393513	1081774.1398124	80	1081777.5768047	1081777.5772976	40	1081780.9063482	1081780.9067995	100	imm	1081782.297408	1081782.8103962	1081782.8108874	120.0	4.0	1081783.7546986
1174.923828125	0.0	120	2406244	86	83	60	1	1	1081774.1393513	1081774.1398124	80	1081777.5768047	1081777.5772976	40	1081780.9063482	1081780.9067995	100	imm	1081782.297408	1081782.8103962	1081782.8108874	120.0	4.0	1081783.7546986
1177.9716796875	0.0	80	2412486	87	57	970	0	0	1081785.8582839	1081785.8587376	80	1081789.1508874	1081789.1512053	40	1081792.2462361	1081792.2467362	100	imm	1081797.7529422	nan	nan	nan	nan	nan
1181.26416015625	0.0	40	2419229	87	57	970	0	0	1081785.8582839	1081785.8587376	80	1081789.1508874	1081789.1512053	40	1081792.2462361	1081792.2467362	100	imm	1081797.7529422	nan	nan	nan	nan	nan
1184.359375	0.0	100	2425568	87	57	970	0	0	1081785.8582839	1081785.8587376	80	1081789.1508874	1081789.1512053	40	1081792.2462361	1081792.2467362	100	imm	1081797.7529422	nan	nan	nan	nan	nan
1192.837890625	0.0	80	2442932	88	53	700	1	1	1081800.7247413	1081800.725274	80	1081803.7712849	1081803.7718089	40	1081806.9539711	1081806.9544816	100	imm	1081808.5776036	1081809.0914563	1081809.0919978	120.0	2.0	1081809.9623649
1195.88427734375	0.0	40	2449171	88	53	700	1	1	1081800.7247413	1081800.725274	80	1081803.7712849	1081803.7718089	40	1081806.9539711	1081806.9544816	100	imm	1081808.5776036	1081809.0914563	1081809.0919978	120.0	2.0	1081809.9623649
1199.06689453125	0.0	100	2455689	88	53	700	1	1	1081800.7247413	1081800.725274	80	1081803.7712849	1081803.7718089	40	1081806.9539711	1081806.9544816	100	imm	1081808.5776036	1081809.0914563	1081809.0919978	120.0	2.0	1081809.9623649
1201.2041015625	0.0	120	2460066	88	53	700	1	1	1081800.7247413	1081800.725274	80	1081803.7712849	1081803.7718089	40	1081806.9539711	1081806.9544816	100	imm	1081808.5776036	1081809.0914563	1081809.0919978	120.0	2.0	1081809.9623649
1204.38330078125	0.0	80	2466577	89	77	110	0	1	1081812.2704014	1081812.2709042	80	1081815.5157925	1081815.5161976	40	1081818.9313642	1081818.9318235	100	imm	1081820.8655848	nan	nan	nan	nan	nan
1207.62841796875	0.0	40	2473223	89	77	110	0	1	1081812.2704014	1081812.2709042	80	1081815.5157925	1081815.5161976	40	1081818.9313642	1081818.9318235	100	imm	1081820.8655848	nan	nan	nan	nan	nan
1211.0439453125	0.0	100	2480218	89	77	110	0	1	1081812.2704014	1081812.2709042	80	1081815.5157925	1081815.5161976	40	1081818.9313642	1081818.9318235	100	imm	1081820.8655848	nan	nan	nan	nan	nan
1215.75732421875	0.0	80	2489871	90	77	2	1	0	1081823.6446853	1081823.6449169	80	1081826.7632384	1081826.7633794	40	1081830.1310847	1081830.1315822	100	del	1081831.225396	1081831.7383517	1081831.7388642	120.0	3.0	1081832.9612712
1218.8759765625	0.0	40	2496258	90	77	2	1	0	1081823.6446853	1081823.6449169	80	1081826.7632384	1081826.7633794	40	1081830.1310847	1081830.1315822	100	del	1081831.225396	1081831.7383517	1081831.7388642	120.0	3.0	1081832.9612712
1222.2431640625	0.0	100	2503154	90	77	2	1	0	1081823.6446853	1081823.6449169	80	1081826.7632384	1081826.7633794	40	1081830.1310847	1081830.1315822	100	del	1081831.225396	1081831.7383517	1081831.7388642	120.0	3.0	1081832.9612712
1223.8505859375	0.0	120	2506446	90	77	2	1	0	1081823.6446853	1081823.6449169	80	1081826.7632384	1081826.7633794	40	1081830.1310847	1081830.1315822	100	del	1081831.225396	1081831.7383517	1081831.7388642	120.0	3.0	1081832.9612712
1227.1630859375	0.0	80	2513230	91	80	260	0	1	1081835.0510712	1081835.0515543	80	1081838.3876243	1081838.3880961	40	1081841.7180012	1081841.7185126	100	imm	1081843.8171789	nan	nan	nan	nan	nan
1230.49951171875	0.0	40	2520063	91	80	260	0	1	1081835.0510712	1081835.0515543	80	1081838.3876243	1081838.3880961	40	1081841.7180012	1081841.7185126	100	imm	1081843.8171789	nan	nan	nan	nan	nan
1233.830078125	0.0	100	2526884	91	80	260	0	1	1081835.0510712	1081835.0515543	80	1081838.3876243	1081838.3880961	40	1081841.7180012	1081841.7185126	100	imm	1081843.8171789	nan	nan	nan	nan	nan
1238.55859375	0.0	80	2536568	92	80	60	1	0	1081846.4470265	1081846.4473006	80	1081849.545504	1081849.5457601	40	1081852.6375876	1081852.6379398	100	del	1081854.1289538	1081854.6425526	1081854.6430657	120.0	3.0	1081855.5455703
1241.6572265625	0.0	40	2542914	92	80	60	1	0	1081846.4470265	1081846.4473006	80	1081849.545504	1081849.5457601	40	1081852.6375876	1081852.6379398	100	del	1081854.1289538	1081854.6425526	1081854.6430657	120.0	3.0	1081855.5455703
1244.7490234375	0.0	100	2549246	92	80	60	1	0	1081846.4470265	1081846.4473006	80	1081849.545504	1081849.5457601	40	1081852.6375876	1081852.6379398	100	del	1081854.1289538	1081854.6425526	1081854.6430657	120.0	3.0	1081855.5455703
1246.75439453125	0.0	120	2553353	92	80	60	1	0	1081846.4470265	1081846.4473006	80	1081849.545504	1081849.5457601	40	1081852.6375876	1081852.6379398	100	del	1081854.1289538	1081854.6425526	1081854.6430657	120.0	3.0	1081855.5455703
1249.7470703125	0.0	80	2559482	93	77	970	0	0	1081857.6356318	1081857.6360916	80	1081860.7446763	1081860.7451297	40	1081864.2370047	1081864.2376094	100	imm	1081865.8566124	nan	nan	nan	nan	nan
1252.85595703125	0.0	40	2565849	93	77	970	0	0	1081857.6356318	1081857.6360916	80	1081860.7446763	1081860.7451297	40	1081864.2370047	1081864.2376094	100	imm	1081865.8566124	nan	nan	nan	nan	nan
1256.3486328125	0.0	100	2573002	93	77	970	0	0	1081857.6356318	1081857.6360916	80	1081860.7446763	1081860.7451297	40	1081864.2370047	1081864.2376094	100	imm	1081865.8566124	nan	nan	nan	nan	nan
1260.494140625	0.0	80	2581492	94	50	260	0	1	1081868.3830189	1081868.3835165	80	1081871.8694007	1081871.8698281	40	1081874.8962004	1081874.8967312	100	del	1081876.874384	nan	nan	nan	nan	nan
1263.98046875	0.0	40	2588632	94	50	260	0	1	1081868.3830189	1081868.3835165	80	1081871.8694007	1081871.8698281	40	1081874.8962004	1081874.8967312	100	del	1081876.874384	nan	nan	nan	nan	nan
1267.00732421875	0.0	100	2594831	94	50	260	0	1	1081868.3830189	1081868.3835165	80	1081871.8694007	1081871.8698281	40	1081874.8962004	1081874.8967312	100	del	1081876.874384	nan	nan	nan	nan	nan
1271.98974609375	0.0	80	2605035	95	83	180	1	0	1081879.8789567	1081879.8794429	80	1081883.0351842	1081883.0356525	40	1081886.3117657	1081886.3122186	100	imm	1081888.8170315	1081889.3287459	1081889.3291362	120.0	3.0	1081890.5526172
1275.14599609375	0.0	40	2611499	95	83	180	1	0	1081879.8789567	1081879.8794429	80	1081883.0351842	1081883.0356525	40	1081886.3117657	1081886.3122186	100	imm	1081888.8170315	1081889.3287459	1081889.3291362	120.0	3.0	1081890.5526172
1278.4228515625	0.0	100	2618210	95	83	180	1	0	1081879.8789567	1081879.8794429	80	1081883.0351842	1081883.0356525	40	1081886.3117657	1081886.3122186	100	imm	1081888.8170315	1081889.3287459	1081889.3291362	120.0	3.0	1081890.5526172
1281.439453125	0.0	120	2624388	95	83	180	1	0	1081879.8789567	1081879.8794429	80	1081883.0351842	1081883.0356525	40	1081886.3117657	1081886.3122186	100	imm	1081888.8170315	1081889.3287459	1081889.3291362	120.0	3.0	1081890.5526172
1285.10986328125	0.0	80	2631905	96	87	110	0	1	1081892.9990332	1081892.9995389	80	1081896.4540702	1081896.4543269	40	1081899.5617461	1081899.5622347	100	imm	1081901.280612	nan	nan	nan	nan	nan
1288.564453125	0.0	40	2638980	96	87	110	0	1	1081892.9990332	1081892.9995389	80	1081896.4540702	1081896.4543269	40	1081899.5617461	1081899.5622347	100	imm	1081901.280612	nan	nan	nan	nan	nan
1291.67236328125	0.0	100	2645345	96	87	110	0	1	1081892.9990332	1081892.9995389	80	1081896.4540702	1081896.4543269	40	1081899.5617461	1081899.5622347	100	imm	1081901.280612	nan	nan	nan	nan	nan
1296.23974609375	0.0	80	2654699	97	100	180	1	1	1081904.1293225	1081904.1298064	80	1081907.6074518	1081907.6079565	40	1081911.1088154	1081911.1092977	100	del	1081915.2490324	1081915.7601596	1081915.7605281	120.0	4.0	1081916.6970726
1299.7177734375	0.0	40	2661822	97	100	180	1	1	1081904.1293225	1081904.1298064	80	1081907.6074518	1081907.6079565	40	1081911.1088154	1081911.1092977	100	del	1081915.2490324	1081915.7601596	1081915.7605281	120.0	4.0	1081916.6970726
1303.21923828125	0.0	100	2668993	97	100	180	1	1	1081904.1293225	1081904.1298064	80	1081907.6074518	1081907.6079565	40	1081911.1088154	1081911.1092977	100	del	1081915.2490324	1081915.7601596	1081915.7605281	120.0	4.0	1081916.6970726
1307.8701171875	0.0	120	2678518	97	100	180	1	1	1081904.1293225	1081904.1298064	80	1081907.6074518	1081907.6079565	40	1081911.1088154	1081911.1092977	100	del	1081915.2490324	1081915.7601596	1081915.7605281	120.0	4.0	1081916.6970726
1310.8779296875	0.0	80	2684678	98	60	60	1	0	1081918.7676721	1081918.7681896	80	1081921.8646623	1081921.8650872	40	1081925.2514013	1081925.2518788	100	imm	1081926.8008303	1081927.3136982	1081927.3141742	120.0	4.0	1081929.5455282
1313.974609375	0.0	40	2691020	98	60	60	1	0	1081918.7676721	1081918.7681896	80	1081921.8646623	1081921.8650872	40	1081925.2514013	1081925.2518788	100	imm	1081926.8008303	1081927.3136982	1081927.3141742	120.0	4.0	1081929.5455282
1317.361328125	0.0	100	2697956	98	60	60	1	0	1081918.7676721	1081918.7681896	80	1081921.8646623	1081921.8650872	40	1081925.2514013	1081925.2518788	100	imm	1081926.8008303	1081927.3136982	1081927.3141742	120.0	4.0	1081929.5455282
1319.42333984375	0.0	120	2702179	98	60	60	1	0	1081918.7676721	1081918.7681896	80	1081921.8646623	1081921.8650872	40	1081925.2514013	1081925.2518788	100	imm	1081926.8008303	1081927.3136982	1081927.3141742	120.0	4.0	1081929.5455282
1323.69677734375	0.0	80	2710931	99	73	970	0	1	1081931.5871502	1081931.587603	80	1081934.6304144	1081934.6308791	40	1081937.8881875	1081937.8886738	100	imm	1081940.4088256	nan	nan	nan	nan	nan
1326.740234375	0.0	40	2717164	99	73	970	0	1	1081931.5871502	1081931.587603	80	1081934.6304144	1081934.6308791	40	1081937.8881875	1081937.8886738	100	imm	1081940.4088256	nan	nan	nan	nan	nan
1329.99755859375	0.0	100	2723835	99	73	970	0	1	1081931.5871502	1081931.587603	80	1081934.6304144	1081934.6308791	40	1081937.8881875	1081937.8886738	100	imm	1081940.4088256	nan	nan	nan	nan	nan
1335.4609375	0.0	80	2735024	100	87	20	0	0	1081943.3513748	1081943.3519468	80	1081946.8575616	1081946.8580596	40	1081949.8729249	1081949.8734192	100	del	1081951.3693587	nan	nan	nan	nan	nan
1338.966796875	0.0	40	2742204	100	87	20	0	0	1081943.3513748	1081943.3519468	80	1081946.8575616	1081946.8580596	40	1081949.8729249	1081949.8734192	100	del	1081951.3693587	nan	nan	nan	nan	nan
1341.982421875	0.0	100	2748380	100	87	20	0	0	1081943.3513748	1081943.3519468	80	1081946.8575616	1081946.8580596	40	1081949.8729249	1081949.8734192	100	del	1081951.3693587	nan	nan	nan	nan	nan
1372.4619140625	0.0	80	2810802	101	100	20	0	0	1081980.3531615	1081980.3536275	80	1081983.7922648	1081983.7928172	40	1081987.2602512	1081987.2607419	100	del	1081988.5213422	nan	nan	nan	nan	nan
1375.90087890625	0.0	40	2817845	101	100	20	0	0	1081980.3531615	1081980.3536275	80	1081983.7922648	1081983.7928172	40	1081987.2602512	1081987.2607419	100	del	1081988.5213422	nan	nan	nan	nan	nan
1379.36865234375	0.0	100	2824947	101	100	20	0	0	1081980.3531615	1081980.3536275	80	1081983.7922648	1081983.7928172	40	1081987.2602512	1081987.2607419	100	del	1081988.5213422	nan	nan	nan	nan	nan
1383.57080078125	0.0	80	2833553	102	90	700	1	0	1081991.4623091	1081991.4628119	80	1081994.909723	1081994.9102141	40	1081998.2966971	1081998.2971795	100	imm	1081999.9366932	1082000.4467863	1082000.4470789	120.0	3.0	1082001.672531
1387.01806640625	0.0	40	2840613	102	90	700	1	0	1081991.4623091	1081991.4628119	80	1081994.909723	1081994.9102141	40	1081998.2966971	1081998.2971795	100	imm	1081999.9366932	1082000.4467863	1082000.4470789	120.0	3.0	1082001.672531
1390.40478515625	0.0	100	2847549	102	90	700	1	0	1081991.4623091	1081991.4628119	80	1081994.909723	1081994.9102141	40	1081998.2966971	1081998.2971795	100	imm	1081999.9366932	1082000.4467863	1082000.4470789	120.0	3.0	1082001.672531
1392.5546875	0.0	120	2851952	102	90	700	1	0	1081991.4623091	1081991.4628119	80	1081994.909723	1081994.9102141	40	1081998.2966971	1081998.2971795	100	imm	1081999.9366932	1082000.4467863	1082000.4470789	120.0	3.0	1082001.672531
1395.85546875	0.0	80	2858712	103	90	20	0	0	1082003.747575	1082003.7480458	80	1082007.0106666	1082007.0111413	40	1082010.1083164	1082010.1087832	100	del	1082011.672942	nan	nan	nan	nan	nan
1399.11865234375	0.0	40	2865395	103	90	20	0	0	1082003.747575	1082003.7480458	80	1082007.0106666	1082007.0111413	40	1082010.1083164	1082010.1087832	100	del	1082011.672942	nan	nan	nan	nan	nan
1402.21630859375	0.0	100	2871739	103	90	20	0	0	1082003.747575	1082003.7480458	80	1082007.0106666	1082007.0111413	40	1082010.1083164	1082010.1087832	100	del	1082011.672942	nan	nan	nan	nan	nan
1406.71435546875	0.0	80	2880951	104	97	970	0	1	1082014.6065139	1082014.6069852	80	1082018.0780825	1082018.0785683	40	1082021.1764342	1082021.1769645	100	imm	1082024.4486366	nan	nan	nan	nan	nan
1410.185546875	0.0	40	2888060	104	97	970	0	1	1082014.6065139	1082014.6069852	80	1082018.0780825	1082018.0785683	40	1082021.1764342	1082021.1769645	100	imm	1082024.4486366	nan	nan	nan	nan	nan
1413.2841796875	0.0	100	2894406	104	97	970	0	1	1082014.6065139	1082014.6069852	80	1082018.0780825	1082018.0785683	40	1082021.1764342	1082021.1769645	100	imm	1082024.4486366	nan	nan	nan	nan	nan
1419.515625	0.0	80	2907168	105	67	260	0	1	1082027.4080262	1082027.4084444	80	1082030.6093029	1082030.6097881	40	1082033.8101169	1082033.8104317	100	imm	1082035.4084031	nan	nan	nan	nan	nan
1422.716796875	0.0	40	2913724	105	67	260	0	1	1082027.4080262	1082027.4084444	80	1082030.6093029	1082030.6097881	40	1082033.8101169	1082033.8104317	100	imm	1082035.4084031	nan	nan	nan	nan	nan
1425.91748046875	0.0	100	2920279	105	67	260	0	1	1082027.4080262	1082027.4084444	80	1082030.6093029	1082030.6097881	40	1082033.8101169	1082033.8104317	100	imm	1082035.4084031	nan	nan	nan	nan	nan
1430.169921875	0.0	80	2928988	106	67	20	0	0	1082038.0627601	1082038.0632475	80	1082041.5046898	1082041.5052251	40	1082044.8885154	1082044.8890334	100	del	1082046.5449455	nan	nan	nan	nan	nan
1433.61181640625	0.0	40	2936037	106	67	20	0	0	1082038.0627601	1082038.0632475	80	1082041.5046898	1082041.5052251	40	1082044.8885154	1082044.8890334	100	del	1082046.5449455	nan	nan	nan	nan	nan
1436.99560546875	0.0	100	2942967	106	67	20	0	0	1082038.0627601	1082038.0632475	80	1082041.5046898	1082041.5052251	40	1082044.8885154	1082044.8890334	100	del	1082046.5449455	nan	nan	nan	nan	nan
1441.39404296875	0.0	80	2951975	107	80	2	1	0	1082049.2872044	1082049.2876169	80	1082052.649434	1082052.6499317	40	1082056.1351216	1082056.135632	100	del	1082057.161165	1082057.674676	1082057.6751481	120.0	2.0	1082059.1609011
1444.75634765625	0.0	40	2958861	107	80	2	1	0	1082049.2872044	1082049.2876169	80	1082052.649434	1082052.6499317	40	1082056.1351216	1082056.135632	100	del	1082057.161165	1082057.674676	1082057.6751481	120.0	2.0	1082059.1609011
1448.24169921875	0.0	100	2965999	107	80	2	1	0	1082049.2872044	1082049.2876169	80	1082052.649434	1082052.6499317	40	1082056.1351216	1082056.135632	100	del	1082057.161165	1082057.674676	1082057.6751481	120.0	2.0	1082059.1609011
1449.78125	0.0	120	2969152	107	80	2	1	0	1082049.2872044	1082049.2876169	80	1082052.649434	1082052.6499317	40	1082056.1351216	1082056.135632	100	del	1082057.161165	1082057.674676	1082057.6751481	120.0	2.0	1082059.1609011
1453.36962890625	0.0	80	2976501	108	83	510	0	1	1082061.263021	1082061.2634402	80	1082064.3935801	1082064.3941092	40	1082067.7268796	1082067.7273912	100	imm	1082070.4249025	nan	nan	nan	nan	nan
1456.5	0.0	40	2982912	108	83	510	0	1	1082061.263021	1082061.2634402	80	1082064.3935801	1082064.3941092	40	1082067.7268796	1082067.7273912	100	imm	1082070.4249025	nan	nan	nan	nan	nan
1459.83349609375	0.0	100	2989739	108	83	510	0	1	1082061.263021	1082061.2634402	80	1082064.3935801	1082064.3941092	40	1082067.7268796	1082067.7273912	100	imm	1082070.4249025	nan	nan	nan	nan	nan
1465.453125	0.0	80	3001248	109	87	510	0	1	1082073.3468041	1082073.347385	80	1082076.7821387	1082076.7826096	40	1082079.9940092	1082079.9945438	100	imm	1082081.8411733	nan	nan	nan	nan	nan
1468.88818359375	0.0	40	3008283	109	87	510	0	1	1082073.3468041	1082073.347385	80	1082076.7821387	1082076.7826096	40	1082079.9940092	1082079.9945438	100	imm	1082081.8411733	nan	nan	nan	nan	nan
1472.10009765625	0.0	100	3014861	109	87	510	0	1	1082073.3468041	1082073.347385	80	1082076.7821387	1082076.7826096	40	1082079.9940092	1082079.9945438	100	imm	1082081.8411733	nan	nan	nan	nan	nan
1476.52294921875	0.0	80	3023919	110	67	2	1	0	1082084.4167837	1082084.4171834	80	1082087.4653051	1082087.4658088	40	1082090.6584471	1082090.6588915	100	del	1082091.633011	1082092.1469267	1082092.1474052	120.0	4.0	1082092.880699
1479.5712890625	0.0	40	3030162	110	67	2	1	0	1082084.4167837	1082084.4171834	80	1082087.4653051	1082087.4658088	40	1082090.6584471	1082090.6588915	100	del	1082091.633011	1082092.1469267	1082092.1474052	120.0	4.0	1082092.880699
1482.76416015625	0.0	100	3036701	110	67	2	1	0	1082084.4167837	1082084.4171834	80	1082087.4653051	1082087.4658088	40	1082090.6584471	1082090.6588915	100	del	1082091.633011	1082092.1469267	1082092.1474052	120.0	4.0	1082092.880699
1484.2529296875	0.0	120	3039750	110	67	2	1	0	1082084.4167837	1082084.4171834	80	1082087.4653051	1082087.4658088	40	1082090.6584471	1082090.6588915	100	del	1082091.633011	1082092.1469267	1082092.1474052	120.0	4.0	1082092.880699
1487.416015625	0.0	80	3046228	111	80	700	1	1	1082095.3101896	1082095.3106345	80	1082098.4255677	1082098.4260139	40	1082101.835033	1082101.8355811	100	imm	1082102.9207413	1082103.4334498	1082103.4339222	120.0	3.0	1082104.1855234
1490.53125	0.0	40	3052608	111	80	700	1	1	1082095.3101896	1082095.3106345	80	1082098.4255677	1082098.4260139	40	1082101.835033	1082101.8355811	100	imm	1082102.9207413	1082103.4334498	1082103.4339222	120.0	3.0	1082104.1855234
1493.9404296875	0.0	100	3059590	111	80	700	1	1	1082095.3101896	1082095.3106345	80	1082098.4255677	1082098.4260139	40	1082101.835033	1082101.8355811	100	imm	1082102.9207413	1082103.4334498	1082103.4339222	120.0	3.0	1082104.1855234
1495.5390625	0.0	120	3062864	111	80	700	1	1	1082095.3101896	1082095.3106345	80	1082098.4255677	1082098.4260139	40	1082101.835033	1082101.8355811	100	imm	1082102.9207413	1082103.4334498	1082103.4339222	120.0	3.0	1082104.1855234
1498.634765625	0.0	80	3069204	112	100	260	0	0	1082106.5292206	1082106.5297483	80	1082109.5498826	1082109.5503843	40	1082112.9556301	1082112.9561635	100	imm	1082115.1766101	nan	nan	nan	nan	nan
1501.6552734375	0.0	40	3075390	112	100	260	0	0	1082106.5292206	1082106.5297483	80	1082109.5498826	1082109.5503843	40	1082112.9556301	1082112.9561635	100	imm	1082115.1766101	nan	nan	nan	nan	nan
1505.06103515625	0.0	100	3082365	112	100	260	0	0	1082106.5292206	1082106.5297483	80	1082109.5498826	1082109.5503843	40	1082112.9556301	1082112.9561635	100	imm	1082115.1766101	nan	nan	nan	nan	nan
1510.2587890625	0.0	80	3093010	113	57	260	0	0	1082118.1538435	1082118.1541781	80	1082121.4077221	1082121.4082834	40	1082124.8376078	1082124.8381636	100	imm	1082125.7220295	nan	nan	nan	nan	nan
1513.5126953125	0.0	40	3099674	113	57	260	0	0	1082118.1538435	1082118.1541781	80	1082121.4077221	1082121.4082834	40	1082124.8376078	1082124.8381636	100	imm	1082125.7220295	nan	nan	nan	nan	nan
1516.94287109375	0.0	100	3106699	113	57	260	0	0	1082118.1538435	1082118.1541781	80	1082121.4077221	1082121.4082834	40	1082124.8376078	1082124.8381636	100	imm	1082125.7220295	nan	nan	nan	nan	nan
1520.41015625	0.0	80	3113800	114	83	20	0	1	1082128.3053037	1082128.3058019	80	1082131.6941622	1082131.6946604	40	1082135.1708225	1082135.1712685	100	del	1082136.7444244	nan	nan	nan	nan	nan
1523.798828125	0.0	40	3120740	114	83	20	0	1	1082128.3053037	1082128.3058019	80	1082131.6941622	1082131.6946604	40	1082135.1708225	1082135.1712685	100	del	1082136.7444244	nan	nan	nan	nan	nan
1527.275390625	0.0	100	3127860	114	83	20	0	1	1082128.3053037	1082128.3058019	80	1082131.6941622	1082131.6946604	40	1082135.1708225	1082135.1712685	100	del	1082136.7444244	nan	nan	nan	nan	nan
1531.78369140625	0.0	80	3137093	115	83	260	0	1	1082139.678961	1082139.6794172	80	1082142.8166588	1082142.8170971	40	1082145.9359615	1082145.9364852	100	imm	1082147.4805392	nan	nan	nan	nan	nan
1534.92138671875	0.0	40	3143519	115	83	260	0	1	1082139.678961	1082139.6794172	80	1082142.8166588	1082142.8170971	40	1082145.9359615	1082145.9364852	100	imm	1082147.4805392	nan	nan	nan	nan	nan
1538.04052734375	0.0	100	3149907	115	83	260	0	1	1082139.678961	1082139.6794172	80	1082142.8166588	1082142.8170971	40	1082145.9359615	1082145.9364852	100	imm	1082147.4805392	nan	nan	nan	nan	nan
1542.36328125	0.0	80	3158760	116	63	700	1	0	1082150.2589521	1082150.2594644	80	1082153.4653236	1082153.465813	40	1082156.718589	1082156.719134	100	imm	1082157.6487971	1082158.162548	1082158.1630667	120.0	3.0	1082159.7209469
1545.56982421875	0.0	40	3165327	116	63	700	1	0	1082150.2589521	1082150.2594644	80	1082153.4653236	1082153.465813	40	1082156.718589	1082156.719134	100	imm	1082157.6487971	1082158.162548	1082158.1630667	120.0	3.0	1082159.7209469
1548.82275390625	0.0	100	3171989	116	63	700	1	0	1082150.2589521	1082150.2594644	80	1082153.4653236	1082153.465813	40	1082156.718589	1082156.719134	100	imm	1082157.6487971	1082158.162548	1082158.1630667	120.0	3.0	1082159.7209469
1550.2666015625	0.0	120	3174946	116	63	700	1	0	1082150.2589521	1082150.2594644	80	1082153.4653236	1082153.465813	40	1082156.718589	1082156.719134	100	imm	1082157.6487971	1082158.162548	1082158.1630667	120.0	3.0	1082159.7209469
1554.33837890625	0.0	80	3183285	117	50	510	0	0	1082162.2341385	1082162.2346135	80	1082165.5442292	1082165.5446575	40	1082169.0304135	1082169.0308739	100	imm	1082169.9606315	nan	nan	nan	nan	nan
1557.6484375	0.0	40	3190064	117	50	510	0	0	1082162.2341385	1082162.2346135	80	1082165.5442292	1082165.5446575	40	1082169.0304135	1082169.0308739	100	imm	1082169.9606315	nan	nan	nan	nan	nan
1561.13427734375	0.0	100	3197203	117	50	510	0	0	1082162.2341385	1082162.2346135	80	1082165.5442292	1082165.5446575	40	1082169.0304135	1082169.0308739	100	imm	1082169.9606315	nan	nan	nan	nan	nan
1564.8271484375	0.0	80	3204766	118	80	970	0	1	1082172.7234143	1082172.7238576	80	1082175.9499059	1082175.9504029	40	1082179.3509658	1082179.3516038	100	imm	1082181.176384	nan	nan	nan	nan	nan
1568.0537109375	0.0	40	3211374	118	80	970	0	1	1082172.7234143	1082172.7238576	80	1082175.9499059	1082175.9504029	40	1082179.3509658	1082179.3516038	100	imm	1082181.176384	nan	nan	nan	nan	nan
1571.45458984375	0.0	100	3218339	118	80	970	0	1	1082172.7234143	1082172.7238576	80	1082175.9499059	1082175.9504029	40	1082179.3509658	1082179.3516038	100	imm	1082181.176384	nan	nan	nan	nan	nan
1576.16845703125	0.0	80	3227993	119	63	510	0	1	1082184.0650091	1082184.0654495	80	1082187.2944276	1082187.2948728	40	1082190.3340706	1082190.3346674	100	imm	1082191.5128624	nan	nan	nan	nan	nan
1579.39794921875	0.0	40	3234607	119	63	510	0	1	1082184.0650091	1082184.0654495	80	1082187.2944276	1082187.2948728	40	1082190.3340706	1082190.3346674	100	imm	1082191.5128624	nan	nan	nan	nan	nan
1582.4375	0.0	100	3240832	119	63	510	0	1	1082184.0650091	1082184.0654495	80	1082187.2944276	1082187.2948728	40	1082190.3340706	1082190.3346674	100	imm	1082191.5128624	nan	nan	nan	nan	nan
1586.1787109375	0.0	80	3248494	120	90	260	0	0	1082194.0756758	1082194.07618	80	1082197.4823906	1082197.4828457	40	1082200.8234541	1082200.8239381	100	imm	1082202.6084255	nan	nan	nan	nan	nan
1589.58544921875	0.0	40	3255471	120	90	260	0	0	1082194.0756758	1082194.07618	80	1082197.4823906	1082197.4828457	40	1082200.8234541	1082200.8239381	100	imm	1082202.6084255	nan	nan	nan	nan	nan
1592.9267578125	0.0	100	3262314	120	90	260	0	0	1082194.0756758	1082194.07618	80	1082197.4823906	1082197.4828457	40	1082200.8234541	1082200.8239381	100	imm	1082202.6084255	nan	nan	nan	nan	nan
1618.3349609375	0.0	80	3314350	121	73	700	1	1	1082226.232462	1082226.2329483	80	1082229.5185617	1082229.5190714	40	1082232.8915404	1082232.8920543	100	imm	1082235.1761763	1082235.689291	1082235.689788	120.0	3.0	1082236.9679034
1621.62109375	0.0	40	3321080	121	73	700	1	1	1082226.232462	1082226.2329483	80	1082229.5185617	1082229.5190714	40	1082232.8915404	1082232.8920543	100	imm	1082235.1761763	1082235.689291	1082235.689788	120.0	3.0	1082236.9679034
1624.99365234375	0.0	100	3327987	121	73	700	1	1	1082226.232462	1082226.2329483	80	1082229.5185617	1082229.5190714	40	1082232.8915404	1082232.8920543	100	imm	1082235.1761763	1082235.689291	1082235.689788	120.0	3.0	1082236.9679034
1627.79150390625	0.0	120	3333717	121	73	700	1	1	1082226.232462	1082226.2329483	80	1082229.5185617	1082229.5190714	40	1082232.8915404	1082232.8920543	100	imm	1082235.1761763	1082235.689291	1082235.689788	120.0	3.0	1082236.9679034
1631.1416015625	0.0	80	3340578	122	60	20	0	0	1082239.0396643	1082239.0401253	80	1082242.1531742	1082242.1533544	40	1082245.5711887	1082245.571667	100	del	1082248.3840903	nan	nan	nan	nan	nan
1634.25537109375	0.0	40	3346955	122	60	20	0	0	1082239.0396643	1082239.0401253	80	1082242.1531742	1082242.1533544	40	1082245.5711887	1082245.571667	100	del	1082248.3840903	nan	nan	nan	nan	nan
1637.67333984375	0.0	100	3353955	122	60	20	0	0	1082239.0396643	1082239.0401253	80	1082242.1531742	1082242.1533544	40	1082245.5711887	1082245.571667	100	del	1082248.3840903	nan	nan	nan	nan	nan
1643.07373046875	0.0	80	3365015	123	60	110	0	0	1082250.9716714	1082250.9721234	80	1082254.4203293	1082254.4207822	40	1082257.891514	1082257.8919161	100	imm	1082264.1055853	nan	nan	nan	nan	nan
1646.52197265625	0.0	40	3372077	123	60	110	0	0	1082250.9716714	1082250.9721234	80	1082254.4203293	1082254.4207822	40	1082257.891514	1082257.8919161	100	imm	1082264.1055853	nan	nan	nan	nan	nan
1649.9931640625	0.0	100	3379186	123	60	110	0	0	1082250.9716714	1082250.9721234	80	1082254.4203293	1082254.4207822	40	1082257.891514	1082257.8919161	100	imm	1082264.1055853	nan	nan	nan	nan	nan
1658.73193359375	0.0	80	3397083	124	60	260	0	1	1082266.630428	1082266.6308572	80	1082269.8268212	1082269.8273112	40	1082272.9240849	1082272.9246024	100	imm	1082275.6006138	nan	nan	nan	nan	nan
1661.92822265625	0.0	40	3403629	124	60	260	0	1	1082266.630428	1082266.6308572	80	1082269.8268212	1082269.8273112	40	1082272.9240849	1082272.9246024	100	imm	1082275.6006138	nan	nan	nan	nan	nan
1665.025390625	0.0	100	3409972	124	60	260	0	1	1082266.630428	1082266.6308572	80	1082269.8268212	1082269.8273112	40	1082272.9240849	1082272.9246024	100	imm	1082275.6006138	nan	nan	nan	nan	nan
1670.4853515625	0.0	80	3421154	125	70	60	1	1	1082278.3842515	1082278.3845473	80	1082281.4429548	1082281.4434045	40	1082284.475974	1082284.4764583	100	del	1082286.0564204	1082286.5662857	1082286.5666356	120.0	4.0	1082287.656756
1673.5439453125	0.0	40	3427418	125	70	60	1	1	1082278.3842515	1082278.3845473	80	1082281.4429548	1082281.4434045	40	1082284.475974	1082284.4764583	100	del	1082286.0564204	1082286.5662857	1082286.5666356	120.0	4.0	1082287.656756
1676.5771484375	0.0	100	3433630	125	70	60	1	1	1082278.3842515	1082278.3845473	80	1082281.4429548	1082281.4434045	40	1082284.475974	1082284.4764583	100	del	1082286.0564204	1082286.5662857	1082286.5666356	120.0	4.0	1082287.656756
1678.6669921875	0.0	120	3437910	125	70	60	1	1	1082278.3842515	1082278.3845473	80	1082281.4429548	1082281.4434045	40	1082284.475974	1082284.4764583	100	del	1082286.0564204	1082286.5662857	1082286.5666356	120.0	4.0	1082287.656756
1682.24169921875	0.0	80	3445231	126	93	260	0	1	1082290.1407897	1082290.141298	80	1082293.6341035	1082293.6345251	40	1082296.8309556	1082296.8314414	100	imm	1082298.8886248	nan	nan	nan	nan	nan
1685.73486328125	0.0	40	3452385	126	93	260	0	1	1082290.1407897	1082290.141298	80	1082293.6341035	1082293.6345251	40	1082296.8309556	1082296.8314414	100	imm	1082298.8886248	nan	nan	nan	nan	nan
1688.931640625	0.0	100	3458932	126	93	260	0	1	1082290.1407897	1082290.141298	80	1082293.6341035	1082293.6345251	40	1082296.8309556	1082296.8314414	100	imm	1082298.8886248	nan	nan	nan	nan	nan
1693.82861328125	0.0	80	3468961	127	57	180	1	0	1082301.7279039	1082301.7284092	80	1082304.7697939	1082304.7702628	40	1082307.8868311	1082307.887481	100	imm	1082309.8478237	1082310.3589256	1082310.3593078	120.0	2.0	1082311.6797283
1696.8701171875	0.0	40	3475190	127	57	180	1	0	1082301.7279039	1082301.7284092	80	1082304.7697939	1082304.7702628	40	1082307.8868311	1082307.887481	100	imm	1082309.8478237	1082310.3589256	1082310.3593078	120.0	2.0	1082311.6797283
1699.9873046875	0.0	100	3481574	127	57	180	1	0	1082301.7279039	1082301.7284092	80	1082304.7697939	1082304.7702628	40	1082307.8868311	1082307.887481	100	imm	1082309.8478237	1082310.3589256	1082310.3593078	120.0	2.0	1082311.6797283
1702.45947265625	0.0	120	3486637	127	57	180	1	0	1082301.7279039	1082301.7284092	80	1082304.7697939	1082304.7702628	40	1082307.8868311	1082307.887481	100	imm	1082309.8478237	1082310.3589256	1082310.3593078	120.0	2.0	1082311.6797283
1705.8154296875	0.0	80	3493510	128	87	60	1	0	1082313.7151885	1082313.7156457	80	1082316.9576821	1082316.9581837	40	1082320.0464281	1082320.0469097	100	del	1082321.48804	1082321.9971617	1082321.9974627	120.0	3.0	1082324.0247082
1709.05810546875	0.0	40	3500151	128	87	60	1	0	1082313.7151885	1082313.7156457	80	1082316.9576821	1082316.9581837	40	1082320.0464281	1082320.0469097	100	del	1082321.48804	1082321.9971617	1082321.9974627	120.0	3.0	1082324.0247082
1712.146484375	0.0	100	3506476	128	87	60	1	0	1082313.7151885	1082313.7156457	80	1082316.9576821	1082316.9581837	40	1082320.0464281	1082320.0469097	100	del	1082321.48804	1082321.9971617	1082321.9974627	120.0	3.0	1082324.0247082
1714.09716796875	0.0	120	3510471	128	87	60	1	0	1082313.7151885	1082313.7156457	80	1082316.9576821	1082316.9581837	40	1082320.0464281	1082320.0469097	100	del	1082321.48804	1082321.9971617	1082321.9974627	120.0	3.0	1082324.0247082
1718.63671875	0.0	80	3519768	129	53	260	0	1	1082326.5365576	1082326.5371669	80	1082329.7563717	1082329.7566892	40	1082333.246441	1082333.2469283	100	imm	1082334.1920768	nan	nan	nan	nan	nan
1721.8564453125	0.0	40	3526362	129	53	260	0	1	1082326.5365576	1082326.5371669	80	1082329.7563717	1082329.7566892	40	1082333.246441	1082333.2469283	100	imm	1082334.1920768	nan	nan	nan	nan	nan
1725.34619140625	0.0	100	3533509	129	53	260	0	1	1082326.5365576	1082326.5371669	80	1082329.7563717	1082329.7566892	40	1082333.246441	1082333.2469283	100	imm	1082334.1920768	nan	nan	nan	nan	nan
1729.1708984375	0.0	80	3541342	130	60	2	1	1	1082337.0711296	1082337.0716369	80	1082340.3696671	1082340.3701175	40	1082343.6533625	1082343.6538825	100	del	1082345.2480082	1082345.7608586	1082345.7613807	120.0	4.0	1082346.6735789
1732.46923828125	0.0	40	3548097	130	60	2	1	1	1082337.0711296	1082337.0716369	80	1082340.3696671	1082340.3701175	40	1082343.6533625	1082343.6538825	100	del	1082345.2480082	1082345.7608586	1082345.7613807	120.0	4.0	1082346.6735789
1735.7529296875	0.0	100	3554822	130	60	2	1	1	1082337.0711296	1082337.0716369	80	1082340.3696671	1082340.3701175	40	1082343.6533625	1082343.6538825	100	del	1082345.2480082	1082345.7608586	1082345.7613807	120.0	4.0	1082346.6735789
1737.8603515625	0.0	120	3559138	130	60	2	1	1	1082337.0711296	1082337.0716369	80	1082340.3696671	1082340.3701175	40	1082343.6533625	1082343.6538825	100	del	1082345.2480082	1082345.7608586	1082345.7613807	120.0	4.0	1082346.6735789
1741.14306640625	0.0	80	3565861	131	53	180	1	0	1082349.0437319	1082349.0442003	80	1082352.0538176	1082352.0544122	40	1082355.4581632	1082355.4586797	100	del	1082356.5294207	1082357.0426491	1082357.0431596	120.0	4.0	1082358.360479
1744.1533203125	0.0	40	3572026	131	53	180	1	0	1082349.0437319	1082349.0442003	80	1082352.0538176	1082352.0544122	40	1082355.4581632	1082355.4586797	100	del	1082356.5294207	1082357.0426491	1082357.0431596	120.0	4.0	1082358.360479
1747.5576171875	0.0	100	3578998	131	53	180	1	0	1082349.0437319	1082349.0442003	80	1082352.0538176	1082352.0544122	40	1082355.4581632	1082355.4586797	100	del	1082356.5294207	1082357.0426491	1082357.0431596	120.0	4.0	1082358.360479
1749.14208984375	0.0	120	3582243	131	53	180	1	0	1082349.0437319	1082349.0442003	80	1082352.0538176	1082352.0544122	40	1082355.4581632	1082355.4586797	100	del	1082356.5294207	1082357.0426491	1082357.0431596	120.0	4.0	1082358.360479
1752.93896484375	0.0	80	3590019	132	77	60	1	1	1082360.839624	1082360.840086	80	1082363.8514305	1082363.8518341	40	1082367.276424	1082367.2768929	100	del	1082369.7597744	1082370.2735882	1082370.2739886	120.0	4.0	1082371.7038729
1755.95068359375	0.0	40	3596187	132	77	60	1	1	1082360.839624	1082360.840086	80	1082363.8514305	1082363.8518341	40	1082367.276424	1082367.2768929	100	del	1082369.7597744	1082370.2735882	1082370.2739886	120.0	4.0	1082371.7038729
1759.37548828125	0.0	100	3603201	132	77	60	1	1	1082360.839624	1082360.840086	80	1082363.8514305	1082363.8518341	40	1082367.276424	1082367.2768929	100	del	1082369.7597744	1082370.2735882	1082370.2739886	120.0	4.0	1082371.7038729
1762.37255859375	0.0	120	3609339	132	77	60	1	1	1082360.839624	1082360.840086	80	1082363.8514305	1082363.8518341	40	1082367.276424	1082367.2768929	100	del	1082369.7597744	1082370.2735882	1082370.2739886	120.0	4.0	1082371.7038729
1766.203125	0.0	80	3617184	133	63	970	0	0	1082374.1045259	1082374.1050589	80	1082377.6109532	1082377.6115109	40	1082380.7379683	1082380.7384748	100	del	1082382.5279496	nan	nan	nan	nan	nan
1769.7099609375	0.0	40	3624366	133	63	970	0	0	1082374.1045259	1082374.1050589	80	1082377.6109532	1082377.6115109	40	1082380.7379683	1082380.7384748	100	del	1082382.5279496	nan	nan	nan	nan	nan
1772.83642578125	0.0	100	3630769	133	63	970	0	0	1082374.1045259	1082374.1050589	80	1082377.6109532	1082377.6115109	40	1082380.7379683	1082380.7384748	100	del	1082382.5279496	nan	nan	nan	nan	nan
1777.60400390625	0.0	80	3640533	134	53	110	0	1	1082385.5056689	1082385.5061272	80	1082388.834179	1082388.8346179	40	1082391.9003886	1082391.9009028	100	del	1082393.4893107	nan	nan	nan	nan	nan
1780.9326171875	0.0	40	3647350	134	53	110	0	1	1082385.5056689	1082385.5061272	80	1082388.834179	1082388.8346179	40	1082391.9003886	1082391.9009028	100	del	1082393.4893107	nan	nan	nan	nan	nan
1783.9990234375	0.0	100	3653630	134	53	110	0	1	1082385.5056689	1082385.5061272	80	1082388.834179	1082388.8346179	40	1082391.9003886	1082391.9009028	100	del	1082393.4893107	nan	nan	nan	nan	nan
1788.2373046875	0.0	80	3662310	135	87	260	0	1	1082396.1390483	1082396.139327	80	1082399.5287873	1082399.5292878	40	1082402.9449257	1082402.9454123	100	del	1082404.4324337	nan	nan	nan	nan	nan
1791.626953125	0.0	40	3669252	135	87	260	0	1	1082396.1390483	1082396.139327	80	1082399.5287873	1082399.5292878	40	1082402.9449257	1082402.9454123	100	del	1082404.4324337	nan	nan	nan	nan	nan
1795.04296875	0.0	100	3676248	135	87	260	0	1	1082396.1390483	1082396.139327	80	1082399.5287873	1082399.5292878	40	1082402.9449257	1082402.9454123	100	del	1082404.4324337	nan	nan	nan	nan	nan
1799.10009765625	0.0	80	3684557	136	60	180	1	1	1082407.0021878	1082407.0027027	80	1082410.2462778	1082410.2467715	40	1082413.3688662	1082413.3693559	100	imm	1082414.632035	1082415.1457943	1082415.1465623	120.0	3.0	1082416.7923498
