onset	duration	value	sample	trial_idx	val	del	is_cued	rev_opts	del_pres_displaytime	del_pres_triggertime	del_pres_triggercode	val_pres_displaytime	val_pres_triggertime	val_pres_triggercode	choice_displaytime	choice_triggertime	choice_triggercode	choice	choice_time	viv_displaytime	viv_triggertime	viv_triggercode	viv	viv_time
38.154296875	0.0	80	78140	1	97	700	1	0	60495.1115959	60495.1135093	80	60498.3145323	60498.3154272	40	60501.4436047	60501.4445168	100	imm	60503.302657	60503.8157724	60503.8166266	120.0	2.0	60506.8398524
41.35693359375	0.0	40	84699	1	97	700	1	0	60495.1115959	60495.1135093	80	60498.3145323	60498.3154272	40	60501.4436047	60501.4445168	100	imm	60503.302657	60503.8157724	60503.8166266	120.0	2.0	60506.8398524
44.48583984375	0.0	100	91107	1	97	700	1	0	60495.1115959	60495.1135093	80	60498.3145323	60498.3154272	40	60501.4436047	60501.4445168	100	imm	60503.302657	60503.8157724	60503.8166266	120.0	2.0	60506.8398524
46.85791015625	0.0	120	95965	1	97	700	1	0	60495.1115959	60495.1135093	80	60498.3145323	60498.3154272	40	60501.4436047	60501.4445168	100	imm	60503.302657	60503.8157724	60503.8166266	120.0	2.0	60506.8398524
52.142578125	0.0	80	106788	2	83	460	0	1	60509.09995	60509.1005887	80	60512.2777995	60512.2784832	40	60515.7690719	60515.7698209	100	del	60517.4384097	nan	nan	nan	nan	nan
55.3203125	0.0	40	113296	2	83	460	0	1	60509.09995	60509.1005887	80	60512.2777995	60512.2784832	40	60515.7690719	60515.7698209	100	del	60517.4384097	nan	nan	nan	nan	nan
58.81103515625	0.0	100	120445	2	83	460	0	1	60509.09995	60509.1005887	80	60512.2777995	60512.2784832	40	60515.7690719	60515.7698209	100	del	60517.4384097	nan	nan	nan	nan	nan
63.46337890625	0.0	80	129973	3	53	240	0	0	60520.4213111	60520.4223808	80	60523.4568544	60523.4575862	40	60526.8409125	60526.8416234	100	imm	60527.8704699	nan	nan	nan	nan	nan
66.4990234375	0.0	40	136190	3	53	240	0	0	60520.4213111	60520.4223808	80	60523.4568544	60523.4575862	40	60526.8409125	60526.8416234	100	imm	60527.8704699	nan	nan	nan	nan	nan
69.8828125	0.0	100	143120	3	53	240	0	0	60520.4213111	60520.4223808	80	60523.4568544	60523.4575862	40	60526.8409125	60526.8416234	100	imm	60527.8704699	nan	nan	nan	nan	nan
73.5654296875	0.0	80	150662	4	63	300	1	1	60530.5241305	60530.5249329	80	60533.7443539	60533.7450693	40	60537.0335243	60537.0342806	100	imm	60541.1985836	60541.7095596	60541.7101856	120.0	3.0	60544.5743702
76.7861328125	0.0	40	157258	4	63	300	1	1	60530.5241305	60530.5249329	80	60533.7443539	60533.7450693	40	60537.0335243	60537.0342806	100	imm	60541.1985836	60541.7095596	60541.7101856	120.0	3.0	60544.5743702
80.07470703125	0.0	100	163993	4	63	300	1	1	60530.5241305	60530.5249329	80	60533.7443539	60533.7450693	40	60537.0335243	60537.0342806	100	imm	60541.1985836	60541.7095596	60541.7101856	120.0	3.0	60544.5743702
84.7509765625	0.0	120	173570	4	63	300	1	1	60530.5241305	60530.5249329	80	60533.7443539	60533.7450693	40	60537.0335243	60537.0342806	100	imm	60541.1985836	60541.7095596	60541.7101856	120.0	3.0	60544.5743702
90.10888671875	0.0	80	184543	5	83	180	1	1	60547.0676955	60547.0699794	80	60550.2906996	60550.2929132	40	60553.8030806	60553.8055698	100	del	60556.3112171	60556.8217336	60556.8221789	120.0	3.0	60558.6465723
93.33154296875	0.0	40	191143	5	83	180	1	1	60547.0676955	60547.0699794	80	60550.2906996	60550.2929132	40	60553.8030806	60553.8055698	100	del	60556.3112171	60556.8217336	60556.8221789	120.0	3.0	60558.6465723
96.84423828125	0.0	100	198337	5	83	180	1	1	60547.0676955	60547.0699794	80	60550.2906996	60550.2929132	40	60553.8030806	60553.8055698	100	del	60556.3112171	60556.8217336	60556.8221789	120.0	3.0	60558.6465723
99.86279296875	0.0	120	204519	5	83	180	1	1	60547.0676955	60547.0699794	80	60550.2906996	60550.2929132	40	60553.8030806	60553.8055698	100	del	60556.3112171	60556.8217336	60556.8221789	120.0	3.0	60558.6465723
103.8525390625	0.0	80	212690	6	100	300	1	1	60560.8115956	60560.8121275	80	60564.1678098	60564.1682477	40	60567.5146941	60567.515145	100	imm	60578.0550619	60578.5649472	60578.5654341	120.0	3.0	60580.0713229
107.20849609375	0.0	40	219563	6	100	300	1	1	60560.8115956	60560.8121275	80	60564.1678098	60564.1682477	40	60567.5146941	60567.515145	100	imm	60578.0550619	60578.5649472	60578.5654341	120.0	3.0	60580.0713229
110.55517578125	0.0	100	226417	6	100	300	1	1	60560.8115956	60560.8121275	80	60564.1678098	60564.1682477	40	60567.5146941	60567.515145	100	imm	60578.0550619	60578.5649472	60578.5654341	120.0	3.0	60580.0713229
121.60546875	0.0	120	249048	6	100	300	1	1	60560.8115956	60560.8121275	80	60564.1678098	60564.1682477	40	60567.5146941	60567.515145	100	imm	60578.0550619	60578.5649472	60578.5654341	120.0	3.0	60580.0713229
125.39501953125	0.0	80	256809	7	97	300	1	0	60582.3545293	60582.3550304	80	60585.7118219	60585.7123075	40	60589.0606344	60589.0611406	100	del	60591.0550873	60591.5666394	60591.5684212	120.0	3.0	60593.5671274
128.751953125	0.0	40	263684	7	97	300	1	0	60582.3545293	60582.3550304	80	60585.7118219	60585.7123075	40	60589.0606344	60589.0611406	100	del	60591.0550873	60591.5666394	60591.5684212	120.0	3.0	60593.5671274
132.1005859375	0.0	100	270542	7	97	300	1	0	60582.3545293	60582.3550304	80	60585.7118219	60585.7123075	40	60589.0606344	60589.0611406	100	del	60591.0550873	60591.5666394	60591.5684212	120.0	3.0	60593.5671274
134.6064453125	0.0	120	275674	7	97	300	1	0	60582.3545293	60582.3550304	80	60585.7118219	60585.7123075	40	60589.0606344	60589.0611406	100	del	60591.0550873	60591.5666394	60591.5684212	120.0	3.0	60593.5671274
138.70849609375	0.0	80	284075	8	83	700	1	1	60595.6686866	60595.6690397	80	60598.7404235	60598.7409247	40	60602.2545859	60602.2551298	100	imm	60603.9266152	60604.4365442	60604.4368928	120.0	2.0	60607.0390527
141.7802734375	0.0	40	290366	8	83	700	1	1	60595.6686866	60595.6690397	80	60598.7404235	60598.7409247	40	60602.2545859	60602.2551298	100	imm	60603.9266152	60604.4365442	60604.4368928	120.0	2.0	60607.0390527
145.29443359375	0.0	100	297563	8	83	700	1	1	60595.6686866	60595.6690397	80	60598.7404235	60598.7409247	40	60602.2545859	60602.2551298	100	imm	60603.9266152	60604.4365442	60604.4368928	120.0	2.0	60607.0390527
147.47607421875	0.0	120	302031	8	83	700	1	1	60595.6686866	60595.6690397	80	60598.7404235	60598.7409247	40	60602.2545859	60602.2551298	100	imm	60603.9266152	60604.4365442	60604.4368928	120.0	2.0	60607.0390527
152.177734375	0.0	80	311660	9	100	460	0	0	60609.1380033	60609.1385486	80	60612.1624076	60612.1629089	40	60615.456962	60615.457626	100	imm	60617.8640855	nan	nan	nan	nan	nan
155.20166015625	0.0	40	317853	9	100	460	0	0	60609.1380033	60609.1385486	80	60612.1624076	60612.1629089	40	60615.456962	60615.457626	100	imm	60617.8640855	nan	nan	nan	nan	nan
158.49658203125	0.0	100	324601	9	100	460	0	0	60609.1380033	60609.1385486	80	60612.1624076	60612.1629089	40	60615.456962	60615.457626	100	imm	60617.8640855	nan	nan	nan	nan	nan
163.8603515625	0.0	80	335586	10	70	30	0	1	60620.8209649	60620.8214159	80	60624.1629492	60624.1635006	40	60627.2703946	60627.2709046	100	del	60628.8408774	nan	nan	nan	nan	nan
167.2021484375	0.0	40	342430	10	70	30	0	1	60620.8209649	60620.8214159	80	60624.1629492	60624.1635006	40	60627.2703946	60627.2709046	100	del	60628.8408774	nan	nan	nan	nan	nan
170.3095703125	0.0	100	348794	10	70	30	0	1	60620.8209649	60620.8214159	80	60624.1629492	60624.1635006	40	60627.2703946	60627.2709046	100	del	60628.8408774	nan	nan	nan	nan	nan
174.58203125	0.0	80	357544	11	73	700	1	1	60631.5430827	60631.5435757	80	60634.7810103	60634.7814594	40	60638.2852497	60638.2858773	100	imm	60640.5189319	60641.0280987	60641.0283457	120.0	2.0	60642.9997842
177.81982421875	0.0	40	364175	11	73	700	1	1	60631.5430827	60631.5435757	80	60634.7810103	60634.7814594	40	60638.2852497	60638.2858773	100	imm	60640.5189319	60641.0280987	60641.0283457	120.0	2.0	60642.9997842
181.32421875	0.0	100	371352	11	73	700	1	1	60631.5430827	60631.5435757	80	60634.7810103	60634.7814594	40	60638.2852497	60638.2858773	100	imm	60640.5189319	60641.0280987	60641.0283457	120.0	2.0	60642.9997842
184.06640625	0.0	120	376968	11	73	700	1	1	60631.5430827	60631.5435757	80	60634.7810103	60634.7814594	40	60638.2852497	60638.2858773	100	imm	60640.5189319	60641.0280987	60641.0283457	120.0	2.0	60642.9997842
188.13330078125	0.0	80	385297	12	50	180	1	1	60645.0946105	60645.0950987	80	60648.5299305	60648.5304011	40	60651.8653931	60651.8658143	100	imm	60655.4630626	60655.9740604	60655.9745346	120.0	3.0	60659.6544798
191.568359375	0.0	40	392332	12	50	180	1	1	60645.0946105	60645.0950987	80	60648.5299305	60648.5304011	40	60651.8653931	60651.8658143	100	imm	60655.4630626	60655.9740604	60655.9745346	120.0	3.0	60659.6544798
194.90380859375	0.0	100	399163	12	50	180	1	1	60645.0946105	60645.0950987	80	60648.5299305	60648.5304011	40	60651.8653931	60651.8658143	100	imm	60655.4630626	60655.9740604	60655.9745346	120.0	3.0	60659.6544798
199.01220703125	0.0	120	407577	12	50	180	1	1	60645.0946105	60645.0950987	80	60648.5299305	60648.5304011	40	60651.8653931	60651.8658143	100	imm	60655.4630626	60655.9740604	60655.9745346	120.0	3.0	60659.6544798
204.89404296875	0.0	80	419623	13	50	1070	0	1	60661.8560819	60661.8565806	80	60664.9595331	60664.9600423	40	60668.1870944	60668.1876063	100	imm	60670.5427017	nan	nan	nan	nan	nan
207.99755859375	0.0	40	425979	13	50	1070	0	1	60661.8560819	60661.8565806	80	60664.9595331	60664.9600423	40	60668.1870944	60668.1876063	100	imm	60670.5427017	nan	nan	nan	nan	nan
211.22509765625	0.0	100	432589	13	50	1070	0	1	60661.8560819	60661.8565806	80	60664.9595331	60664.9600423	40	60668.1870944	60668.1876063	100	imm	60670.5427017	nan	nan	nan	nan	nan
216.34033203125	0.0	80	443065	14	90	180	1	1	60673.3024269	60673.3028943	80	60676.3703916	60676.3708732	40	60679.6779801	60679.6785053	100	na	60692.3904154	60692.9007976	60692.9011063	120.0	3.0	60697.4705614
219.408203125	0.0	40	449348	14	90	180	1	1	60673.3024269	60673.3028943	80	60676.3703916	60676.3708732	40	60679.6779801	60679.6785053	100	na	60692.3904154	60692.9007976	60692.9011063	120.0	3.0	60697.4705614
222.71533203125	0.0	100	456121	14	90	180	1	1	60673.3024269	60673.3028943	80	60676.3703916	60676.3708732	40	60679.6779801	60679.6785053	100	na	60692.3904154	60692.9007976	60692.9011063	120.0	3.0	60697.4705614
235.93798828125	0.0	120	483201	14	90	180	1	1	60673.3024269	60673.3028943	80	60676.3703916	60676.3708732	40	60679.6779801	60679.6785053	100	na	60692.3904154	60692.9007976	60692.9011063	120.0	3.0	60697.4705614
242.63525390625	0.0	80	496917	15	100	1070	0	1	60699.5980559	60699.5985734	80	60702.7983712	60702.7988565	40	60706.1040362	60706.1045417	100	na	60707.4786686	nan	nan	nan	nan	nan
245.83544921875	0.0	40	503471	15	100	1070	0	1	60699.5980559	60699.5985734	80	60702.7983712	60702.7988565	40	60706.1040362	60706.1045417	100	na	60707.4786686	nan	nan	nan	nan	nan
249.140625	0.0	100	510240	15	100	1070	0	1	60699.5980559	60699.5985734	80	60702.7983712	60702.7988565	40	60706.1040362	60706.1045417	100	na	60707.4786686	nan	nan	nan	nan	nan
253.1591796875	0.0	80	518470	16	100	180	1	1	60710.1225884	60710.1230487	80	60713.2754211	60713.2759187	40	60716.5979599	60716.5984738	100	del	60719.7593699	60720.2705403	60720.2708924	120.0	2.0	60722.5986432
256.31201171875	0.0	40	524927	16	100	180	1	1	60710.1225884	60710.1230487	80	60713.2754211	60713.2759187	40	60716.5979599	60716.5984738	100	del	60719.7593699	60720.2705403	60720.2708924	120.0	2.0	60722.5986432
259.63427734375	0.0	100	531731	16	100	180	1	1	60710.1225884	60710.1230487	80	60713.2754211	60713.2759187	40	60716.5979599	60716.5984738	100	del	60719.7593699	60720.2705403	60720.2708924	120.0	2.0	60722.5986432
263.30712890625	0.0	120	539253	16	100	180	1	1	60710.1225884	60710.1230487	80	60713.2754211	60713.2759187	40	60716.5979599	60716.5984738	100	del	60719.7593699	60720.2705403	60720.2708924	120.0	2.0	60722.5986432
267.7802734375	0.0	80	548414	17	80	80	0	1	60724.7439052	60724.7442379	80	60728.1634025	60728.1639066	40	60731.668304	60731.6687768	100	del	60734.9106823	nan	nan	nan	nan	nan
271.19970703125	0.0	40	555417	17	80	80	0	1	60724.7439052	60724.7442379	80	60728.1634025	60728.1639066	40	60731.668304	60731.6687768	100	del	60734.9106823	nan	nan	nan	nan	nan
274.70458984375	0.0	100	562595	17	80	80	0	1	60724.7439052	60724.7442379	80	60728.1634025	60728.1639066	40	60731.668304	60731.6687768	100	del	60734.9106823	nan	nan	nan	nan	nan
280.82666015625	0.0	80	575133	18	93	80	0	1	60737.7905694	60737.7909478	80	60740.9698445	60740.9704605	40	60744.2764168	60744.2769286	100	del	60745.5509088	nan	nan	nan	nan	nan
284.005859375	0.0	40	581644	18	93	80	0	1	60737.7905694	60737.7909478	80	60740.9698445	60740.9704605	40	60744.2764168	60744.2769286	100	del	60745.5509088	nan	nan	nan	nan	nan
287.31201171875	0.0	100	588415	18	93	80	0	1	60737.7905694	60737.7909478	80	60740.9698445	60740.9704605	40	60744.2764168	60744.2769286	100	del	60745.5509088	nan	nan	nan	nan	nan
291.1552734375	0.0	80	596286	19	73	1070	0	1	60748.1197494	60748.1207811	80	60751.5810191	60751.5814607	40	60755.0300658	60755.0303661	100	imm	60757.0792618	nan	nan	nan	nan	nan
294.61669921875	0.0	40	603375	19	73	1070	0	1	60748.1197494	60748.1207811	80	60751.5810191	60751.5814607	40	60755.0300658	60755.0303661	100	imm	60757.0792618	nan	nan	nan	nan	nan
298.0654296875	0.0	100	610438	19	73	1070	0	1	60748.1197494	60748.1207811	80	60751.5810191	60751.5814607	40	60755.0300658	60755.0303661	100	imm	60757.0792618	nan	nan	nan	nan	nan
303.037109375	0.0	80	620620	20	97	180	1	0	60760.0018015	60760.0021339	80	60763.1403979	60763.1409203	40	60766.4506015	60766.4510662	100	imm	60768.5667869	60769.077328	60769.0776926	120.0	3.0	60771.343007
306.17578125	0.0	40	627048	20	97	180	1	0	60760.0018015	60760.0021339	80	60763.1403979	60763.1409203	40	60766.4506015	60766.4510662	100	imm	60768.5667869	60769.077328	60769.0776926	120.0	3.0	60771.343007
309.48583984375	0.0	100	633827	20	97	180	1	0	60760.0018015	60760.0021339	80	60763.1403979	60763.1409203	40	60766.4506015	60766.4510662	100	imm	60768.5667869	60769.077328	60769.0776926	120.0	3.0	60771.343007
312.1123046875	0.0	120	639206	20	97	180	1	0	60760.0018015	60760.0021339	80	60763.1403979	60763.1409203	40	60766.4506015	60766.4510662	100	imm	60768.5667869	60769.077328	60769.0776926	120.0	3.0	60771.343007
330.90576171875	0.0	80	677695	21	57	1070	0	1	60787.8712446	60787.8717408	80	60791.0914226	60791.0918801	40	60794.2615006	60794.2619435	100	imm	60796.5195351	nan	nan	nan	nan	nan
334.1259765625	0.0	40	684290	21	57	1070	0	1	60787.8712446	60787.8717408	80	60791.0914226	60791.0918801	40	60794.2615006	60794.2619435	100	imm	60796.5195351	nan	nan	nan	nan	nan
337.2958984375	0.0	100	690782	21	57	1070	0	1	60787.8712446	60787.8717408	80	60791.0914226	60791.0918801	40	60794.2615006	60794.2619435	100	imm	60796.5195351	nan	nan	nan	nan	nan
342.15234375	0.0	80	700728	22	100	700	1	1	60799.1181221	60799.1185984	80	60802.2148373	60802.2152353	40	60805.4400012	60805.4405309	100	imm	60806.9592891	60807.4686983	60807.4690177	120.0	2.0	60810.2948105
345.2490234375	0.0	40	707070	22	100	700	1	1	60799.1181221	60799.1185984	80	60802.2148373	60802.2152353	40	60805.4400012	60805.4405309	100	imm	60806.9592891	60807.4686983	60807.4690177	120.0	2.0	60810.2948105
348.47412109375	0.0	100	713675	22	100	700	1	1	60799.1181221	60799.1185984	80	60802.2148373	60802.2152353	40	60805.4400012	60805.4405309	100	imm	60806.9592891	60807.4686983	60807.4690177	120.0	2.0	60810.2948105
350.50244140625	0.0	120	717829	22	100	700	1	1	60799.1181221	60799.1185984	80	60802.2148373	60802.2152353	40	60805.4400012	60805.4405309	100	imm	60806.9592891	60807.4686983	60807.4690177	120.0	2.0	60810.2948105
355.3876953125	0.0	80	727834	23	87	460	0	1	60812.3533435	60812.3535801	80	60815.6577566	60815.6580318	40	60818.9068275	60818.9073051	100	imm	60823.6709763	nan	nan	nan	nan	nan
358.69140625	0.0	40	734600	23	87	460	0	1	60812.3533435	60812.3535801	80	60815.6577566	60815.6580318	40	60818.9068275	60818.9073051	100	imm	60823.6709763	nan	nan	nan	nan	nan
361.9404296875	0.0	100	741254	23	87	460	0	1	60812.3533435	60812.3535801	80	60815.6577566	60815.6580318	40	60818.9068275	60818.9073051	100	imm	60823.6709763	nan	nan	nan	nan	nan
369.56591796875	0.0	80	756871	24	63	80	0	1	60826.532365	60826.5327122	80	60829.8896693	60829.8900781	40	60833.2220757	60833.2238713	100	del	60835.5909671	nan	nan	nan	nan	nan
372.9228515625	0.0	40	763746	24	63	80	0	1	60826.532365	60826.5327122	80	60829.8896693	60829.8900781	40	60833.2220757	60833.2238713	100	del	60835.5909671	nan	nan	nan	nan	nan
376.25537109375	0.0	100	770571	24	63	80	0	1	60826.532365	60826.5327122	80	60829.8896693	60829.8900781	40	60833.2220757	60833.2238713	100	del	60835.5909671	nan	nan	nan	nan	nan
381.15625	0.0	80	780608	25	77	700	1	0	60838.1229158	60838.1233816	80	60841.1652831	60841.1657732	40	60844.3348039	60844.3351494	100	imm	60847.5827066	60848.0954786	60848.0959309	120.0	2.0	60850.118929
384.1982421875	0.0	40	786838	25	77	700	1	0	60838.1229158	60838.1233816	80	60841.1652831	60841.1657732	40	60844.3348039	60844.3351494	100	imm	60847.5827066	60848.0954786	60848.0959309	120.0	2.0	60850.118929
387.36767578125	0.0	100	793329	25	77	700	1	0	60838.1229158	60838.1233816	80	60841.1652831	60841.1657732	40	60844.3348039	60844.3351494	100	imm	60847.5827066	60848.0954786	60848.0959309	120.0	2.0	60850.118929
391.12841796875	0.0	120	801031	25	77	700	1	0	60838.1229158	60838.1233816	80	60841.1652831	60841.1657732	40	60844.3348039	60844.3351494	100	imm	60847.5827066	60848.0954786	60848.0959309	120.0	2.0	60850.118929
395.43359375	0.0	80	809848	26	80	300	1	1	60852.4006123	60852.4010979	80	60855.7352742	60855.7357465	40	60858.952032	60858.9525732	100	na	60869.3434992	60869.8534072	60869.8537096	120.0	3.0	60876.1030077
398.76806640625	0.0	40	816677	26	80	300	1	1	60852.4006123	60852.4010979	80	60855.7352742	60855.7357465	40	60858.952032	60858.9525732	100	na	60869.3434992	60869.8534072	60869.8537096	120.0	3.0	60876.1030077
401.98486328125	0.0	100	823265	26	80	300	1	1	60852.4006123	60852.4010979	80	60855.7352742	60855.7357465	40	60858.952032	60858.9525732	100	na	60869.3434992	60869.8534072	60869.8537096	120.0	3.0	60876.1030077
412.8857421875	0.0	120	845590	26	80	300	1	1	60852.4006123	60852.4010979	80	60855.7352742	60855.7357465	40	60858.952032	60858.9525732	100	na	60869.3434992	60869.8534072	60869.8537096	120.0	3.0	60876.1030077
421.5595703125	0.0	80	863354	27	63	30	0	0	60878.527527	60878.5281826	80	60881.8949103	60881.895333	40	60885.3933541	60885.393828	100	na	60888.8794953	nan	nan	nan	nan	nan
424.9267578125	0.0	40	870250	27	63	30	0	0	60878.527527	60878.5281826	80	60881.8949103	60881.895333	40	60885.3933541	60885.393828	100	na	60888.8794953	nan	nan	nan	nan	nan
428.42529296875	0.0	100	877415	27	63	30	0	0	60878.527527	60878.5281826	80	60881.8949103	60881.895333	40	60885.3933541	60885.393828	100	na	60888.8794953	nan	nan	nan	nan	nan
434.693359375	0.0	80	890252	28	73	80	0	0	60891.6616829	60891.6621026	80	60894.8310628	60894.8314866	40	60897.8974959	60897.8980799	100	del	60898.9754258	nan	nan	nan	nan	nan
437.86279296875	0.0	40	896743	28	73	80	0	0	60891.6616829	60891.6621026	80	60894.8310628	60894.8314866	40	60897.8974959	60897.8980799	100	del	60898.9754258	nan	nan	nan	nan	nan
440.92919921875	0.0	100	903023	28	73	80	0	0	60891.6616829	60891.6621026	80	60894.8310628	60894.8314866	40	60897.8974959	60897.8980799	100	del	60898.9754258	nan	nan	nan	nan	nan
444.82763671875	0.0	80	911007	29	60	30	0	0	60901.7961387	60901.7965453	80	60905.1926296	60905.1931099	40	60908.417913	60908.4184458	100	del	60910.6875109	nan	nan	nan	nan	nan
448.22412109375	0.0	40	917963	29	60	30	0	0	60901.7961387	60901.7965453	80	60905.1926296	60905.1931099	40	60908.417913	60908.4184458	100	del	60910.6875109	nan	nan	nan	nan	nan
451.44921875	0.0	100	924568	29	60	30	0	0	60901.7961387	60901.7965453	80	60905.1926296	60905.1931099	40	60908.417913	60908.4184458	100	del	60910.6875109	nan	nan	nan	nan	nan
456.27734375	0.0	80	934456	30	60	80	0	1	60913.2465187	60913.246887	80	60916.3858742	60916.3862358	40	60919.4768322	60919.4777119	100	imm	60928.9282889	nan	nan	nan	nan	nan
459.4169921875	0.0	40	940886	30	60	80	0	1	60913.2465187	60913.246887	80	60916.3858742	60916.3862358	40	60919.4768322	60919.4777119	100	imm	60928.9282889	nan	nan	nan	nan	nan
462.5078125	0.0	100	947216	30	60	80	0	1	60913.2465187	60913.246887	80	60916.3858742	60916.3862358	40	60919.4768322	60919.4777119	100	imm	60928.9282889	nan	nan	nan	nan	nan
474.61669921875	0.0	80	972015	31	60	460	0	1	60931.5859446	60931.5863966	80	60934.813391	60934.8139283	40	60938.0885905	60938.0890041	100	imm	60945.6324544	nan	nan	nan	nan	nan
477.84375	0.0	40	978624	31	60	460	0	1	60931.5859446	60931.5863966	80	60934.813391	60934.8139283	40	60938.0885905	60938.0890041	100	imm	60945.6324544	nan	nan	nan	nan	nan
481.119140625	0.0	100	985332	31	60	460	0	1	60931.5859446	60931.5863966	80	60934.813391	60934.8139283	40	60938.0885905	60938.0890041	100	imm	60945.6324544	nan	nan	nan	nan	nan
491.40625	0.0	80	1006400	32	53	35	1	1	60948.3761066	60948.3763889	80	60951.8215869	60951.8220916	40	60955.093485	60955.0941691	100	del	60956.2468115	60956.7606025	60956.7611058	120.0	3.0	60959.6246511
494.8515625	0.0	40	1013456	32	53	35	1	1	60948.3761066	60948.3763889	80	60951.8215869	60951.8220916	40	60955.093485	60955.0941691	100	del	60956.2468115	60956.7606025	60956.7611058	120.0	3.0	60959.6246511
498.12353515625	0.0	100	1020157	32	53	35	1	1	60948.3761066	60948.3763889	80	60951.8215869	60951.8220916	40	60955.093485	60955.0941691	100	del	60956.2468115	60956.7606025	60956.7611058	120.0	3.0	60959.6246511
499.79052734375	0.0	120	1023571	32	53	35	1	1	60948.3761066	60948.3763889	80	60951.8215869	60951.8220916	40	60955.093485	60955.0941691	100	del	60956.2468115	60956.7606025	60956.7611058	120.0	3.0	60959.6246511
505.140625	0.0	80	1034528	33	93	35	1	0	60962.1107317	60962.1112542	80	60965.4371174	60965.4375777	40	60968.9290052	60968.92952	100	del	60970.4075908	60970.917931	60970.9182418	120.0	3.0	60972.6470722
508.466796875	0.0	40	1041340	33	93	35	1	0	60962.1107317	60962.1112542	80	60965.4371174	60965.4375777	40	60968.9290052	60968.92952	100	del	60970.4075908	60970.917931	60970.9182418	120.0	3.0	60972.6470722
511.95849609375	0.0	100	1048491	33	93	35	1	0	60962.1107317	60962.1112542	80	60965.4371174	60965.4375777	40	60968.9290052	60968.92952	100	del	60970.4075908	60970.917931	60970.9182418	120.0	3.0	60972.6470722
513.947265625	0.0	120	1052564	33	93	35	1	0	60962.1107317	60962.1112542	80	60965.4371174	60965.4375777	40	60968.9290052	60968.92952	100	del	60970.4075908	60970.917931	60970.9182418	120.0	3.0	60972.6470722
517.810546875	0.0	80	1060476	34	63	35	1	0	60974.7812024	60974.7816877	80	60978.1266758	60978.1271065	40	60981.2850689	60981.2855231	100	del	60983.0395118	60983.5531197	60983.5536089	120.0	3.0	60984.6313612
521.15576171875	0.0	40	1067327	34	63	35	1	0	60974.7812024	60974.7816877	80	60978.1266758	60978.1271065	40	60981.2850689	60981.2855231	100	del	60983.0395118	60983.5531197	60983.5536089	120.0	3.0	60984.6313612
524.314453125	0.0	100	1073796	34	63	35	1	0	60974.7812024	60974.7816877	80	60978.1266758	60978.1271065	40	60981.2850689	60981.2855231	100	del	60983.0395118	60983.5531197	60983.5536089	120.0	3.0	60984.6313612
526.58203125	0.0	120	1078440	34	63	35	1	0	60974.7812024	60974.7816877	80	60978.1266758	60978.1271065	40	60981.2850689	60981.2855231	100	del	60983.0395118	60983.5531197	60983.5536089	120.0	3.0	60984.6313612
530.0107421875	0.0	80	1085462	35	67	35	1	0	60986.9817577	60986.9822841	80	60990.337038	60990.337521	40	60993.3847009	60993.3852341	100	del	60995.0229511	60995.5338477	60995.5342009	120.0	3.0	60996.7190353
533.36572265625	0.0	40	1092333	35	67	35	1	0	60986.9817577	60986.9822841	80	60990.337038	60990.337521	40	60993.3847009	60993.3852341	100	del	60995.0229511	60995.5338477	60995.5342009	120.0	3.0	60996.7190353
536.41357421875	0.0	100	1098575	35	67	35	1	0	60986.9817577	60986.9822841	80	60990.337038	60990.337521	40	60993.3847009	60993.3852341	100	del	60995.0229511	60995.5338477	60995.5342009	120.0	3.0	60996.7190353
538.5625	0.0	120	1102976	35	67	35	1	0	60986.9817577	60986.9822841	80	60990.337038	60990.337521	40	60993.3847009	60993.3852341	100	del	60995.0229511	60995.5338477	60995.5342009	120.0	3.0	60996.7190353
541.8916015625	0.0	80	1109794	36	57	80	0	1	60998.8626519	60998.8631671	80	61001.9824037	61001.982919	40	61005.3298176	61005.3302711	100	imm	61009.1830129	nan	nan	nan	nan	nan
545.01123046875	0.0	40	1116183	36	57	80	0	1	60998.8626519	60998.8631671	80	61001.9824037	61001.982919	40	61005.3298176	61005.3302711	100	imm	61009.1830129	nan	nan	nan	nan	nan
548.3583984375	0.0	100	1123038	36	57	80	0	1	60998.8626519	60998.8631671	80	61001.9824037	61001.982919	40	61005.3298176	61005.3302711	100	imm	61009.1830129	nan	nan	nan	nan	nan
555.1513671875	0.0	80	1136950	37	70	240	0	0	61012.1231724	61012.1236194	80	61015.3032016	61015.3037696	40	61018.7065467	61018.7070652	100	imm	61021.9592181	nan	nan	nan	nan	nan
558.33154296875	0.0	40	1143463	37	70	240	0	0	61012.1231724	61012.1236194	80	61015.3032016	61015.3037696	40	61018.7065467	61018.7070652	100	imm	61021.9592181	nan	nan	nan	nan	nan
561.73486328125	0.0	100	1150433	37	70	240	0	0	61012.1231724	61012.1236194	80	61015.3032016	61015.3037696	40	61018.7065467	61018.7070652	100	imm	61021.9592181	nan	nan	nan	nan	nan
567.83837890625	0.0	80	1162933	38	63	180	1	1	61024.8103779	61024.8106438	80	61027.8195177	61027.8198355	40	61031.1333225	61031.1338388	100	imm	61036.6630197	61037.1733704	61037.173753	120.0	2.0	61041.5113034
570.84716796875	0.0	40	1169095	38	63	180	1	1	61024.8103779	61024.8106438	80	61027.8195177	61027.8198355	40	61031.1333225	61031.1338388	100	imm	61036.6630197	61037.1733704	61037.173753	120.0	2.0	61041.5113034
574.1611328125	0.0	100	1175882	38	63	180	1	1	61024.8103779	61024.8106438	80	61027.8195177	61027.8198355	40	61031.1333225	61031.1338388	100	imm	61036.6630197	61037.1733704	61037.173753	120.0	2.0	61041.5113034
580.201171875	0.0	120	1188252	38	63	180	1	1	61024.8103779	61024.8106438	80	61027.8195177	61027.8198355	40	61031.1333225	61031.1338388	100	imm	61036.6630197	61037.1733704	61037.173753	120.0	2.0	61041.5113034
586.74560546875	0.0	80	1201655	39	80	460	0	0	61043.7180343	61043.7184114	80	61047.1820181	61047.1823409	40	61050.1949775	61050.1954302	100	na	61050.847135	nan	nan	nan	nan	nan
590.20947265625	0.0	40	1208749	39	80	460	0	0	61043.7180343	61043.7184114	80	61047.1820181	61047.1823409	40	61050.1949775	61050.1954302	100	na	61050.847135	nan	nan	nan	nan	nan
593.22216796875	0.0	100	1214919	39	80	460	0	0	61043.7180343	61043.7184114	80	61047.1820181	61047.1823409	40	61050.1949775	61050.1954302	100	na	61050.847135	nan	nan	nan	nan	nan
596.62158203125	0.0	80	1221881	40	83	35	1	1	61053.5945351	61053.5950121	80	61056.8144421	61056.8149083	40	61060.051075	61060.0513558	100	del	61062.687646	61063.1971695	61063.1974484	120.0	3.0	61064.5749431
599.841796875	0.0	40	1228476	40	83	35	1	1	61053.5945351	61053.5950121	80	61056.8144421	61056.8149083	40	61060.051075	61060.0513558	100	del	61062.687646	61063.1971695	61063.1974484	120.0	3.0	61064.5749431
603.078125	0.0	100	1235104	40	83	35	1	1	61053.5945351	61053.5950121	80	61056.8144421	61056.8149083	40	61060.051075	61060.0513558	100	del	61062.687646	61063.1971695	61063.1974484	120.0	3.0	61064.5749431
606.22412109375	0.0	120	1241547	40	83	35	1	1	61053.5945351	61053.5950121	80	61056.8144421	61056.8149083	40	61060.051075	61060.0513558	100	del	61062.687646	61063.1971695	61063.1974484	120.0	3.0	61064.5749431
639.44921875	0.0	80	1309592	41	90	240	0	0	61096.4231832	61096.4236309	80	61099.5919579	61099.5924343	40	61102.9971904	61102.9977424	100	del	61107.4324789	nan	nan	nan	nan	nan
642.61767578125	0.0	40	1316081	41	90	240	0	0	61096.4231832	61096.4236309	80	61099.5919579	61099.5924343	40	61102.9971904	61102.9977424	100	del	61107.4324789	nan	nan	nan	nan	nan
646.02294921875	0.0	100	1323055	41	90	240	0	0	61096.4231832	61096.4236309	80	61099.5919579	61099.5924343	40	61102.9971904	61102.9977424	100	del	61107.4324789	nan	nan	nan	nan	nan
653.21142578125	0.0	80	1337777	42	87	80	0	1	61110.1856678	61110.1861671	80	61113.2111172	61113.2116107	40	61116.3118238	61116.3123495	100	na	61119.8072778	nan	nan	nan	nan	nan
656.23681640625	0.0	40	1343973	42	87	80	0	1	61110.1856678	61110.1861671	80	61113.2111172	61113.2116107	40	61116.3118238	61116.3123495	100	na	61119.8072778	nan	nan	nan	nan	nan
659.33740234375	0.0	100	1350323	42	87	80	0	1	61110.1856678	61110.1861671	80	61113.2111172	61113.2116107	40	61116.3118238	61116.3123495	100	na	61119.8072778	nan	nan	nan	nan	nan
665.7119140625	0.0	80	1363378	43	50	240	0	0	61122.6866331	61122.6871206	80	61125.9323846	61125.9328694	40	61129.0221794	61129.0226916	100	imm	61129.8152799	nan	nan	nan	nan	nan
668.95751953125	0.0	40	1370025	43	50	240	0	0	61122.6866331	61122.6871206	80	61125.9323846	61125.9328694	40	61129.0221794	61129.0226916	100	imm	61129.8152799	nan	nan	nan	nan	nan
672.04736328125	0.0	100	1376353	43	50	240	0	0	61122.6866331	61122.6871206	80	61125.9323846	61125.9328694	40	61129.0221794	61129.0226916	100	imm	61129.8152799	nan	nan	nan	nan	nan
675.52490234375	0.0	80	1383475	44	93	700	1	1	61132.500142	61132.5005091	80	61135.8113942	61135.8118899	40	61138.9213092	61138.9218371	100	na	61140.807017	61141.3192274	61141.3196982	120.0	1.0	61144.5031681
678.83642578125	0.0	40	1390257	44	93	700	1	1	61132.500142	61132.5005091	80	61135.8113942	61135.8118899	40	61138.9213092	61138.9218371	100	na	61140.807017	61141.3192274	61141.3196982	120.0	1.0	61144.5031681
681.9462890625	0.0	100	1396626	44	93	700	1	1	61132.500142	61132.5005091	80	61135.8113942	61135.8118899	40	61138.9213092	61138.9218371	100	na	61140.807017	61141.3192274	61141.3196982	120.0	1.0	61144.5031681
684.34375	0.0	120	1401536	44	93	700	1	1	61132.500142	61132.5005091	80	61135.8113942	61135.8118899	40	61138.9213092	61138.9218371	100	na	61140.807017	61141.3192274	61141.3196982	120.0	1.0	61144.5031681
689.91015625	0.0	80	1412936	45	57	30	0	1	61146.885833	61146.8861849	80	61150.0144993	61150.0149402	40	61153.4830412	61153.4833402	100	imm	61156.4247095	nan	nan	nan	nan	nan
693.0390625	0.0	40	1419344	45	57	30	0	1	61146.885833	61146.8861849	80	61150.0144993	61150.0149402	40	61153.4830412	61153.4833402	100	imm	61156.4247095	nan	nan	nan	nan	nan
696.50732421875	0.0	100	1426447	45	57	30	0	1	61146.885833	61146.8861849	80	61150.0144993	61150.0149402	40	61153.4830412	61153.4833402	100	imm	61156.4247095	nan	nan	nan	nan	nan
702.09619140625	0.0	80	1437893	46	97	35	1	1	61159.0722027	61159.0725327	80	61162.4629497	61162.4633931	40	61165.5704164	61165.5709262	100	del	61167.0718486	61167.5813363	61167.5816576	120.0	3.0	61170.0324697
705.4873046875	0.0	40	1444838	46	97	35	1	1	61159.0722027	61159.0725327	80	61162.4629497	61162.4633931	40	61165.5704164	61165.5709262	100	del	61167.0718486	61167.5813363	61167.5816576	120.0	3.0	61170.0324697
708.5947265625	0.0	100	1451202	46	97	35	1	1	61159.0722027	61159.0725327	80	61162.4629497	61162.4633931	40	61165.5704164	61165.5709262	100	del	61167.0718486	61167.5813363	61167.5816576	120.0	3.0	61170.0324697
710.60546875	0.0	120	1455320	46	97	35	1	1	61159.0722027	61159.0725327	80	61162.4629497	61162.4633931	40	61165.5704164	61165.5709262	100	del	61167.0718486	61167.5813363	61167.5816576	120.0	3.0	61170.0324697
715.21240234375	0.0	80	1464755	47	53	80	0	0	61172.1884444	61172.1887675	80	61175.240126	61175.2404819	40	61178.5385283	61178.5389397	100	imm	61188.9673673	nan	nan	nan	nan	nan
718.263671875	0.0	40	1471004	47	53	80	0	0	61172.1884444	61172.1887675	80	61175.240126	61175.2404819	40	61178.5385283	61178.5389397	100	imm	61188.9673673	nan	nan	nan	nan	nan
721.56201171875	0.0	100	1477759	47	53	80	0	0	61172.1884444	61172.1887675	80	61175.240126	61175.2404819	40	61178.5385283	61178.5389397	100	imm	61188.9673673	nan	nan	nan	nan	nan
734.85009765625	0.0	80	1504973	48	80	30	0	0	61191.8268029	61191.827284	80	61195.107815	61195.1082496	40	61198.3368609	61198.3373379	100	del	61199.5607336	nan	nan	nan	nan	nan
738.130859375	0.0	40	1511692	48	80	30	0	0	61191.8268029	61191.827284	80	61195.107815	61195.1082496	40	61198.3368609	61198.3373379	100	del	61199.5607336	nan	nan	nan	nan	nan
741.35986328125	0.0	100	1518305	48	80	30	0	0	61191.8268029	61191.827284	80	61195.107815	61195.1082496	40	61198.3368609	61198.3373379	100	del	61199.5607336	nan	nan	nan	nan	nan
745.421875	0.0	80	1526624	49	70	35	1	0	61202.3989059	61202.3993297	80	61205.7304246	61205.730967	40	61209.0827425	61209.0831951	100	del	61223.2311213	61223.7412616	61223.741618	120.0	3.0	61228.2074866
748.75341796875	0.0	40	1533447	49	70	35	1	0	61202.3989059	61202.3993297	80	61205.7304246	61205.730967	40	61209.0827425	61209.0831951	100	del	61223.2311213	61223.7412616	61223.741618	120.0	3.0	61228.2074866
752.10546875	0.0	100	1540312	49	70	35	1	0	61202.3989059	61202.3993297	80	61205.7304246	61205.730967	40	61209.0827425	61209.0831951	100	del	61223.2311213	61223.7412616	61223.741618	120.0	3.0	61228.2074866
766.763671875	0.0	120	1570332	49	70	35	1	0	61202.3989059	61202.3993297	80	61205.7304246	61205.730967	40	61209.0827425	61209.0831951	100	del	61223.2311213	61223.7412616	61223.741618	120.0	3.0	61228.2074866
773.560546875	0.0	80	1584252	50	97	80	0	1	61230.5383988	61230.5387403	80	61234.0184407	61234.0190357	40	61237.1366265	61237.1371218	100	del	61239.3756326	nan	nan	nan	nan	nan
777.04052734375	0.0	40	1591379	50	97	80	0	1	61230.5383988	61230.5387403	80	61234.0184407	61234.0190357	40	61237.1366265	61237.1371218	100	del	61239.3756326	nan	nan	nan	nan	nan
780.15869140625	0.0	100	1597765	50	97	80	0	1	61230.5383988	61230.5387403	80	61234.0184407	61234.0190357	40	61237.1366265	61237.1371218	100	del	61239.3756326	nan	nan	nan	nan	nan
785.267578125	0.0	80	1608228	51	57	460	0	0	61242.2454729	61242.2459455	80	61245.3712049	61245.3717075	40	61248.4444596	61248.4450168	100	imm	61250.5044243	nan	nan	nan	nan	nan
788.39306640625	0.0	40	1614629	51	57	460	0	0	61242.2454729	61242.2459455	80	61245.3712049	61245.3717075	40	61248.4444596	61248.4450168	100	imm	61250.5044243	nan	nan	nan	nan	nan
791.46630859375	0.0	100	1620923	51	57	460	0	0	61242.2454729	61242.2459455	80	61245.3712049	61245.3717075	40	61248.4444596	61248.4450168	100	imm	61250.5044243	nan	nan	nan	nan	nan
796.34423828125	0.0	80	1630913	52	93	180	1	1	61253.3227334	61253.3230759	80	61256.5535352	61256.5539474	40	61259.7923964	61259.7927589	100	imm	61263.6554588	61264.1672468	61264.1677227	120.0	2.0	61267.9191206
799.5751953125	0.0	40	1637530	52	93	180	1	1	61253.3227334	61253.3230759	80	61256.5535352	61256.5539474	40	61259.7923964	61259.7927589	100	imm	61263.6554588	61264.1672468	61264.1677227	120.0	2.0	61267.9191206
802.81396484375	0.0	100	1644163	52	93	180	1	1	61253.3227334	61253.3230759	80	61256.5535352	61256.5539474	40	61259.7923964	61259.7927589	100	imm	61263.6554588	61264.1672468	61264.1677227	120.0	2.0	61267.9191206
807.1884765625	0.0	120	1653122	52	93	180	1	1	61253.3227334	61253.3230759	80	61256.5535352	61256.5539474	40	61259.7923964	61259.7927589	100	imm	61263.6554588	61264.1672468	61264.1677227	120.0	2.0	61267.9191206
813.28369140625	0.0	80	1665605	53	97	14	1	1	61270.262461	61270.2629305	80	61273.6555181	61273.656014	40	61276.8439573	61276.8444933	100	del	61279.0872699	61279.5985783	61279.5989882	120.0	3.0	61282.7044874
816.6767578125	0.0	40	1672554	53	97	14	1	1	61270.262461	61270.2629305	80	61273.6555181	61273.656014	40	61276.8439573	61276.8444933	100	del	61279.0872699	61279.5985783	61279.5989882	120.0	3.0	61282.7044874
819.86474609375	0.0	100	1679083	53	97	14	1	1	61270.262461	61270.2629305	80	61273.6555181	61273.656014	40	61276.8439573	61276.8444933	100	del	61279.0872699	61279.5985783	61279.5989882	120.0	3.0	61282.7044874
822.61962890625	0.0	120	1684725	53	97	14	1	1	61270.262461	61270.2629305	80	61273.6555181	61273.656014	40	61276.8439573	61276.8444933	100	del	61279.0872699	61279.5985783	61279.5989882	120.0	3.0	61282.7044874
828.0732421875	0.0	80	1695894	54	80	180	1	1	61285.0522573	61285.052732	80	61288.2678583	61288.2683648	40	61291.702221	61291.7026886	100	del	61302.5510632	61303.063969	61303.0644096	120.0	2.0	61305.5271932
831.28857421875	0.0	40	1702479	54	80	180	1	1	61285.0522573	61285.052732	80	61288.2678583	61288.2683648	40	61291.702221	61291.7026886	100	del	61302.5510632	61303.063969	61303.0644096	120.0	2.0	61305.5271932
834.72265625	0.0	100	1709512	54	80	180	1	1	61285.0522573	61285.052732	80	61288.2678583	61288.2683648	40	61291.702221	61291.7026886	100	del	61302.5510632	61303.063969	61303.0644096	120.0	2.0	61305.5271932
846.083984375	0.0	120	1732780	54	80	180	1	1	61285.0522573	61285.052732	80	61288.2678583	61288.2683648	40	61291.702221	61291.7026886	100	del	61302.5510632	61303.063969	61303.0644096	120.0	2.0	61305.5271932
850.97607421875	0.0	80	1742799	55	67	14	1	0	61307.9559211	61307.9562771	80	61311.0919078	61311.0923578	40	61314.4120856	61314.4126067	100	del	61317.8638024	61318.3774623	61318.377941	120.0	3.0	61321.1752709
854.11181640625	0.0	40	1749221	55	67	14	1	0	61307.9559211	61307.9562771	80	61311.0919078	61311.0923578	40	61314.4120856	61314.4126067	100	del	61317.8638024	61318.3774623	61318.377941	120.0	3.0	61321.1752709
857.43212890625	0.0	100	1756021	55	67	14	1	0	61307.9559211	61307.9562771	80	61311.0919078	61311.0923578	40	61314.4120856	61314.4126067	100	del	61317.8638024	61318.3774623	61318.377941	120.0	3.0	61321.1752709
861.3974609375	0.0	120	1764142	55	67	14	1	0	61307.9559211	61307.9562771	80	61311.0919078	61311.0923578	40	61314.4120856	61314.4126067	100	del	61317.8638024	61318.3774623	61318.377941	120.0	3.0	61321.1752709
866.50048828125	0.0	80	1774593	56	90	30	0	1	61323.4807365	61323.4811651	80	61326.7587517	61326.7592981	40	61330.2054341	61330.2058991	100	na	61333.4639061	nan	nan	nan	nan	nan
869.7783203125	0.0	40	1781306	56	90	30	0	1	61323.4807365	61323.4811651	80	61326.7587517	61326.7592981	40	61330.2054341	61330.2058991	100	na	61333.4639061	nan	nan	nan	nan	nan
873.22509765625	0.0	100	1788365	56	90	30	0	1	61323.4807365	61323.4811651	80	61326.7587517	61326.7592981	40	61330.2054341	61330.2058991	100	na	61333.4639061	nan	nan	nan	nan	nan
879.134765625	0.0	80	1800468	57	77	1070	0	1	61336.1152116	61336.1156199	80	61339.2815816	61339.2820133	40	61342.3542764	61342.3548761	100	imm	61343.7359543	nan	nan	nan	nan	nan
882.30078125	0.0	40	1806952	57	77	1070	0	1	61336.1152116	61336.1156199	80	61339.2815816	61339.2820133	40	61342.3542764	61342.3548761	100	imm	61343.7359543	nan	nan	nan	nan	nan
885.37353515625	0.0	100	1813245	57	77	1070	0	1	61336.1152116	61336.1156199	80	61339.2815816	61339.2820133	40	61342.3542764	61342.3548761	100	imm	61343.7359543	nan	nan	nan	nan	nan
889.74072265625	0.0	80	1822189	58	77	240	0	1	61346.7219841	61346.7227593	80	61350.0525389	61350.053057	40	61353.3066492	61353.3071172	100	imm	61354.6237938	nan	nan	nan	nan	nan
893.07177734375	0.0	40	1829011	58	77	240	0	1	61346.7219841	61346.7227593	80	61350.0525389	61350.053057	40	61353.3066492	61353.3071172	100	imm	61354.6237938	nan	nan	nan	nan	nan
896.32568359375	0.0	100	1835675	58	77	240	0	1	61346.7219841	61346.7227593	80	61350.0525389	61350.053057	40	61353.3066492	61353.3071172	100	imm	61354.6237938	nan	nan	nan	nan	nan
900.4775390625	0.0	80	1844178	59	83	1070	0	1	61357.4587278	61357.4591037	80	61360.7388227	61360.7393319	40	61364.076045	61364.076531	100	imm	61367.5847689	nan	nan	nan	nan	nan
903.75732421875	0.0	40	1850895	59	83	1070	0	1	61357.4587278	61357.4591037	80	61360.7388227	61360.7393319	40	61364.076045	61364.076531	100	imm	61367.5847689	nan	nan	nan	nan	nan
907.0947265625	0.0	100	1857730	59	83	1070	0	1	61357.4587278	61357.4591037	80	61360.7388227	61360.7393319	40	61364.076045	61364.076531	100	imm	61367.5847689	nan	nan	nan	nan	nan
913.3916015625	0.0	80	1870626	60	83	80	0	1	61370.3730796	61370.3734633	80	61373.7401801	61373.7405309	40	61377.014302	61377.0147981	100	imm	61379.5446016	nan	nan	nan	nan	nan
916.75830078125	0.0	40	1877521	60	83	80	0	1	61370.3730796	61370.3734633	80	61373.7401801	61373.7405309	40	61377.014302	61377.0147981	100	imm	61379.5446016	nan	nan	nan	nan	nan
920.03271484375	0.0	100	1884227	60	83	80	0	1	61370.3730796	61370.3734633	80	61373.7401801	61373.7405309	40	61377.014302	61377.0147981	100	imm	61379.5446016	nan	nan	nan	nan	nan
969.93408203125	0.0	80	1986425	61	87	1070	0	0	61426.9175389	61426.9179163	80	61430.0346173	61430.0351158	40	61433.0994845	61433.0999737	100	imm	61436.1201462	nan	nan	nan	nan	nan
973.05126953125	0.0	40	1992809	61	87	1070	0	0	61426.9175389	61426.9179163	80	61430.0346173	61430.0351158	40	61433.0994845	61433.0999737	100	imm	61436.1201462	nan	nan	nan	nan	nan
976.1162109375	0.0	100	1999086	61	87	1070	0	0	61426.9175389	61426.9179163	80	61430.0346173	61430.0351158	40	61433.0994845	61433.0999737	100	imm	61436.1201462	nan	nan	nan	nan	nan
981.70849609375	0.0	80	2010539	62	100	35	1	0	61438.6921092	61438.6926135	80	61441.7318157	61441.7323066	40	61444.947553	61444.9480621	100	del	61446.2400452	61446.7514137	61446.7518305	120.0	3.0	61447.9678893
984.748046875	0.0	40	2016764	62	100	35	1	0	61438.6921092	61438.6926135	80	61441.7318157	61441.7323066	40	61444.947553	61444.9480621	100	del	61446.2400452	61446.7514137	61446.7518305	120.0	3.0	61447.9678893
987.9638671875	0.0	100	2023350	62	100	35	1	0	61438.6921092	61438.6926135	80	61441.7318157	61441.7323066	40	61444.947553	61444.9480621	100	del	61446.2400452	61446.7514137	61446.7518305	120.0	3.0	61447.9678893
989.767578125	0.0	120	2027044	62	100	35	1	0	61438.6921092	61438.6926135	80	61441.7318157	61441.7323066	40	61444.947553	61444.9480621	100	del	61446.2400452	61446.7514137	61446.7518305	120.0	3.0	61447.9678893
993.22119140625	0.0	80	2034117	63	73	35	1	0	61450.2051433	61450.205641	80	61453.3960547	61453.3965089	40	61456.7908437	61456.7913807	100	na	61469.9911282	61470.5016826	61470.5020481	120.0	2.0	61472.240885
996.412109375	0.0	40	2040652	63	73	35	1	0	61450.2051433	61450.205641	80	61453.3960547	61453.3965089	40	61456.7908437	61456.7913807	100	na	61469.9911282	61470.5016826	61470.5020481	120.0	2.0	61472.240885
999.806640625	0.0	100	2047604	63	73	35	1	0	61450.2051433	61450.205641	80	61453.3960547	61453.3965089	40	61456.7908437	61456.7913807	100	na	61469.9911282	61470.5016826	61470.5020481	120.0	2.0	61472.240885
1013.51708984375	0.0	120	2075683	63	73	35	1	0	61450.2051433	61450.205641	80	61453.3960547	61453.3965089	40	61456.7908437	61456.7913807	100	na	61469.9911282	61470.5016826	61470.5020481	120.0	2.0	61472.240885
1017.583984375	0.0	80	2084012	64	93	1070	0	1	61474.5684827	61474.5689285	80	61477.9620691	61477.9625992	40	61481.4421158	61481.4426042	100	imm	61483.4569606	nan	nan	nan	nan	nan
1020.9775390625	0.0	40	2090962	64	93	1070	0	1	61474.5684827	61474.5689285	80	61477.9620691	61477.9625992	40	61481.4421158	61481.4426042	100	imm	61483.4569606	nan	nan	nan	nan	nan
1024.45751953125	0.0	100	2098089	64	93	1070	0	1	61474.5684827	61474.5689285	80	61477.9620691	61477.9625992	40	61481.4421158	61481.4426042	100	imm	61483.4569606	nan	nan	nan	nan	nan
1029.47314453125	0.0	80	2108361	65	70	700	1	1	61486.4577903	61486.4581736	80	61489.562368	61489.562851	40	61492.6473203	61492.6478611	100	imm	61497.353136	61497.8650296	61497.8654615	120.0	1.0	61500.4795583
1032.57763671875	0.0	40	2114719	65	70	700	1	1	61486.4577903	61486.4581736	80	61489.562368	61489.562851	40	61492.6473203	61492.6478611	100	imm	61497.353136	61497.8650296	61497.8654615	120.0	1.0	61500.4795583
1035.66259765625	0.0	100	2121037	65	70	700	1	1	61486.4577903	61486.4581736	80	61489.562368	61489.562851	40	61492.6473203	61492.6478611	100	imm	61497.353136	61497.8650296	61497.8654615	120.0	1.0	61500.4795583
1040.8798828125	0.0	120	2131722	65	70	700	1	1	61486.4577903	61486.4581736	80	61489.562368	61489.562851	40	61492.6473203	61492.6478611	100	imm	61497.353136	61497.8650296	61497.8654615	120.0	1.0	61500.4795583
1045.85791015625	0.0	80	2141917	66	67	80	0	1	61502.8432268	61502.84369	80	61505.8976053	61505.8980956	40	61509.1732184	61509.1736447	100	del	61510.9514866	nan	nan	nan	nan	nan
1048.912109375	0.0	40	2148172	66	67	80	0	1	61502.8432268	61502.84369	80	61505.8976053	61505.8980956	40	61509.1732184	61509.1736447	100	del	61510.9514866	nan	nan	nan	nan	nan
1052.18798828125	0.0	100	2154881	66	67	80	0	1	61502.8432268	61502.84369	80	61505.8976053	61505.8980956	40	61509.1732184	61509.1736447	100	del	61510.9514866	nan	nan	nan	nan	nan
1056.74658203125	0.0	80	2164217	67	77	30	0	1	61513.7322512	61513.732753	80	61517.1711177	61517.1715394	40	61520.4271015	61520.4276189	100	del	61523.1201238	nan	nan	nan	nan	nan
1060.185546875	0.0	40	2171260	67	77	30	0	1	61513.7322512	61513.732753	80	61517.1711177	61517.1715394	40	61520.4271015	61520.4276189	100	del	61523.1201238	nan	nan	nan	nan	nan
1063.44140625	0.0	100	2177928	67	77	30	0	1	61513.7322512	61513.732753	80	61517.1711177	61517.1715394	40	61520.4271015	61520.4276189	100	del	61523.1201238	nan	nan	nan	nan	nan
1068.8486328125	0.0	80	2189002	68	80	35	1	0	61525.8341652	61525.8348915	80	61529.1774602	61529.1779568	40	61532.5610053	61532.5615411	100	del	61534.5512913	61535.0608687	61535.0611297	120.0	3.0	61536.1994952
1072.19140625	0.0	40	2195848	68	80	35	1	0	61525.8341652	61525.8348915	80	61529.1774602	61529.1779568	40	61532.5610053	61532.5615411	100	del	61534.5512913	61535.0608687	61535.0611297	120.0	3.0	61536.1994952
1075.57470703125	0.0	100	2202777	68	80	35	1	0	61525.8341652	61525.8348915	80	61529.1774602	61529.1779568	40	61532.5610053	61532.5615411	100	del	61534.5512913	61535.0608687	61535.0611297	120.0	3.0	61536.1994952
1078.07470703125	0.0	120	2207897	68	80	35	1	0	61525.8341652	61525.8348915	80	61529.1774602	61529.1779568	40	61532.5610053	61532.5615411	100	del	61534.5512913	61535.0608687	61535.0611297	120.0	3.0	61536.1994952
1081.48876953125	0.0	80	2214889	69	80	14	1	1	61538.4747389	61538.4752936	80	61541.655746	61541.656186	40	61544.7427279	61544.7432112	100	del	61549.8154902	61550.3260135	61550.3263263	120.0	3.0	61552.527891
1084.66943359375	0.0	40	2221403	69	80	14	1	1	61538.4747389	61538.4752936	80	61541.655746	61541.656186	40	61544.7427279	61544.7432112	100	del	61549.8154902	61550.3260135	61550.3263263	120.0	3.0	61552.527891
1087.75634765625	0.0	100	2227725	69	80	14	1	1	61538.4747389	61538.4752936	80	61541.655746	61541.656186	40	61544.7427279	61544.7432112	100	del	61549.8154902	61550.3260135	61550.3263263	120.0	3.0	61552.527891
1093.33935546875	0.0	120	2239159	69	80	14	1	1	61538.4747389	61538.4752936	80	61541.655746	61541.656186	40	61544.7427279	61544.7432112	100	del	61549.8154902	61550.3260135	61550.3263263	120.0	3.0	61552.527891
1097.8466796875	0.0	80	2248390	70	53	30	0	0	61554.833561	61554.8339169	80	61557.9705766	61557.9709049	40	61561.0060895	61561.0065874	100	del	61573.7041158	nan	nan	nan	nan	nan
1100.98388671875	0.0	40	2254815	70	53	30	0	0	61554.833561	61554.8339169	80	61557.9705766	61557.9709049	40	61561.0060895	61561.0065874	100	del	61573.7041158	nan	nan	nan	nan	nan
1104.01904296875	0.0	100	2261031	70	53	30	0	0	61554.833561	61554.8339169	80	61557.9705766	61557.9709049	40	61561.0060895	61561.0065874	100	del	61573.7041158	nan	nan	nan	nan	nan
1119.6103515625	0.0	80	2292962	71	67	1070	0	1	61576.5977101	61576.598209	80	61579.7247535	61579.7249957	40	61582.9586	61582.9591147	100	imm	61584.7360419	nan	nan	nan	nan	nan
1122.73779296875	0.0	40	2299367	71	67	1070	0	1	61576.5977101	61576.598209	80	61579.7247535	61579.7249957	40	61582.9586	61582.9591147	100	imm	61584.7360419	nan	nan	nan	nan	nan
1125.97119140625	0.0	100	2305989	71	67	1070	0	1	61576.5977101	61576.598209	80	61579.7247535	61579.7249957	40	61582.9586	61582.9591147	100	imm	61584.7360419	nan	nan	nan	nan	nan
1130.6083984375	0.0	80	2315486	72	63	240	0	0	61587.5958753	61587.5964118	80	61590.7830001	61590.7834371	40	61594.1639516	61594.1644231	100	na	61594.8560441	nan	nan	nan	nan	nan
1133.79541015625	0.0	40	2322013	72	63	240	0	0	61587.5958753	61587.5964118	80	61590.7830001	61590.7834371	40	61594.1639516	61594.1644231	100	na	61594.8560441	nan	nan	nan	nan	nan
1137.17626953125	0.0	100	2328937	72	63	240	0	0	61587.5958753	61587.5964118	80	61590.7830001	61590.7834371	40	61594.1639516	61594.1644231	100	na	61594.8560441	nan	nan	nan	nan	nan
1140.58349609375	0.0	80	2335915	73	57	35	1	0	61597.5711967	61597.5716073	80	61600.9203021	61600.9207749	40	61604.2868	61604.2873612	100	imm	61605.4235187	61605.9347429	61605.9351788	120.0	2.0	61607.5997108
1143.93212890625	0.0	40	2342773	73	57	35	1	0	61597.5711967	61597.5716073	80	61600.9203021	61600.9207749	40	61604.2868	61604.2873612	100	imm	61605.4235187	61605.9347429	61605.9351788	120.0	2.0	61607.5997108
1147.298828125	0.0	100	2349668	73	57	35	1	0	61597.5711967	61597.5716073	80	61600.9203021	61600.9207749	40	61604.2868	61604.2873612	100	imm	61605.4235187	61605.9347429	61605.9351788	120.0	2.0	61607.5997108
1148.94677734375	0.0	120	2353043	73	57	35	1	0	61597.5711967	61597.5716073	80	61600.9203021	61600.9207749	40	61604.2868	61604.2873612	100	imm	61605.4235187	61605.9347429	61605.9351788	120.0	2.0	61607.5997108
1152.8447265625	0.0	80	2361026	74	93	460	0	1	61609.8329498	61609.833221	80	61612.8480554	61612.8483024	40	61616.0269296	61616.027428	100	imm	61620.6159917	nan	nan	nan	nan	nan
1155.85986328125	0.0	40	2367201	74	93	460	0	1	61609.8329498	61609.833221	80	61612.8480554	61612.8483024	40	61616.0269296	61616.027428	100	imm	61620.6159917	nan	nan	nan	nan	nan
1159.03857421875	0.0	100	2373711	74	93	460	0	1	61609.8329498	61609.833221	80	61612.8480554	61612.8483024	40	61616.0269296	61616.027428	100	imm	61620.6159917	nan	nan	nan	nan	nan
1166.3544921875	0.0	80	2388694	75	67	460	0	0	61623.3430476	61623.3434638	80	61626.4842996	61626.4846622	40	61629.5961134	61629.5965642	100	imm	61632.4003516	nan	nan	nan	nan	nan
1169.49560546875	0.0	40	2395127	75	67	460	0	0	61623.3430476	61623.3434638	80	61626.4842996	61626.4846622	40	61629.5961134	61629.5965642	100	imm	61632.4003516	nan	nan	nan	nan	nan
1172.607421875	0.0	100	2401500	75	67	460	0	0	61623.3430476	61623.3434638	80	61626.4842996	61626.4846622	40	61629.5961134	61629.5965642	100	imm	61632.4003516	nan	nan	nan	nan	nan
1178.337890625	0.0	80	2413236	76	77	14	1	1	61635.326689	61635.3271334	80	61638.5489782	61638.5494648	40	61642.0070413	61642.0075668	100	del	61644.1357286	61644.6456183	61644.6459654	120.0	3.0	61646.127864
1181.56005859375	0.0	40	2419835	76	77	14	1	1	61635.326689	61635.3271334	80	61638.5489782	61638.5494648	40	61642.0070413	61642.0075668	100	del	61644.1357286	61644.6456183	61644.6459654	120.0	3.0	61646.127864
1185.01806640625	0.0	100	2426917	76	77	14	1	1	61635.326689	61635.3271334	80	61638.5489782	61638.5494648	40	61642.0070413	61642.0075668	100	del	61644.1357286	61644.6456183	61644.6459654	120.0	3.0	61646.127864
1187.65625	0.0	120	2432320	76	77	14	1	1	61635.326689	61635.3271334	80	61638.5489782	61638.5494648	40	61642.0070413	61642.0075668	100	del	61644.1357286	61644.6456183	61644.6459654	120.0	3.0	61646.127864
1191.34716796875	0.0	80	2439879	77	60	180	1	0	61648.3367046	61648.3371928	80	61651.7274548	61651.7278694	40	61654.9388825	61654.9394135	100	na	61666.584922	61667.0944639	61667.0949307	120.0	2.0	61669.0478845
1194.73779296875	0.0	40	2446823	77	60	180	1	0	61648.3367046	61648.3371928	80	61651.7274548	61651.7278694	40	61654.9388825	61654.9394135	100	na	61666.584922	61667.0944639	61667.0949307	120.0	2.0	61669.0478845
1197.94921875	0.0	100	2453400	77	60	180	1	0	61648.3367046	61648.3371928	80	61651.7274548	61651.7278694	40	61654.9388825	61654.9394135	100	na	61666.584922	61667.0944639	61667.0949307	120.0	2.0	61669.0478845
1210.1044921875	0.0	120	2478294	77	60	180	1	0	61648.3367046	61648.3371928	80	61651.7274548	61651.7278694	40	61654.9388825	61654.9394135	100	na	61666.584922	61667.0944639	61667.0949307	120.0	2.0	61669.0478845
1214.474609375	0.0	80	2487244	78	73	180	1	0	61671.464513	61671.4648881	80	61674.8481029	61674.8484356	40	61678.0476532	61678.0482592	100	imm	61680.8955579	61681.4075939	61681.4079602	120.0	2.0	61683.5209227
1217.85791015625	0.0	40	2494173	78	73	180	1	0	61671.464513	61671.4648881	80	61674.8481029	61674.8484356	40	61678.0476532	61678.0482592	100	imm	61680.8955579	61681.4075939	61681.4079602	120.0	2.0	61683.5209227
1221.0576171875	0.0	100	2500726	78	73	180	1	0	61671.464513	61671.4648881	80	61674.8481029	61674.8484356	40	61678.0476532	61678.0482592	100	imm	61680.8955579	61681.4075939	61681.4079602	120.0	2.0	61683.5209227
1224.41748046875	0.0	120	2507607	78	73	180	1	0	61671.464513	61671.4648881	80	61674.8481029	61674.8484356	40	61678.0476532	61678.0482592	100	imm	61680.8955579	61681.4075939	61681.4079602	120.0	2.0	61683.5209227
1228.65234375	0.0	80	2516280	79	87	300	1	1	61685.6426673	61685.6430693	80	61689.0452917	61689.0459925	40	61692.5339037	61692.5344587	100	imm	61698.2079995	61698.7204219	61698.7208659	120.0	3.0	61700.8078961
1232.05517578125	0.0	40	2523249	79	87	300	1	1	61685.6426673	61685.6430693	80	61689.0452917	61689.0459925	40	61692.5339037	61692.5344587	100	imm	61698.2079995	61698.7204219	61698.7208659	120.0	3.0	61700.8078961
1235.54345703125	0.0	100	2530393	79	87	300	1	1	61685.6426673	61685.6430693	80	61689.0452917	61689.0459925	40	61692.5339037	61692.5344587	100	imm	61698.2079995	61698.7204219	61698.7208659	120.0	3.0	61700.8078961
1241.7294921875	0.0	120	2543062	79	87	300	1	1	61685.6426673	61685.6430693	80	61689.0452917	61689.0459925	40	61692.5339037	61692.5344587	100	imm	61698.2079995	61698.7204219	61698.7208659	120.0	3.0	61700.8078961
1245.9921875	0.0	80	2551792	80	50	300	1	1	61702.9831436	61702.983479	80	61706.3260301	61706.3265128	40	61709.5581711	61709.5586452	100	imm	61713.3523745	61713.8611903	61713.8615033	120.0	2.0	61716.593115
1249.3349609375	0.0	40	2558638	80	50	300	1	1	61702.9831436	61702.983479	80	61706.3260301	61706.3265128	40	61709.5581711	61709.5586452	100	imm	61713.3523745	61713.8611903	61713.8615033	120.0	2.0	61716.593115
1252.5673828125	0.0	100	2565258	80	50	300	1	1	61702.9831436	61702.983479	80	61706.3260301	61706.3265128	40	61709.5581711	61709.5586452	100	imm	61713.3523745	61713.8611903	61713.8615033	120.0	2.0	61716.593115
1256.8701171875	0.0	120	2574070	80	50	300	1	1	61702.9831436	61702.983479	80	61706.3260301	61706.3265128	40	61709.5581711	61709.5586452	100	imm	61713.3523745	61713.8611903	61713.8615033	120.0	2.0	61716.593115
1341.65283203125	0.0	80	2747705	81	67	300	1	1	61798.646445	61798.6468759	80	61802.0384995	61802.038967	40	61805.1356286	61805.1361808	100	imm	61806.8484164	61807.3586197	61807.3589162	120.0	2.0	61809.0076439
1345.044921875	0.0	40	2754652	81	67	300	1	1	61798.646445	61798.6468759	80	61802.0384995	61802.038967	40	61805.1356286	61805.1361808	100	imm	61806.8484164	61807.3586197	61807.3589162	120.0	2.0	61809.0076439
1348.14208984375	0.0	100	2760995	81	67	300	1	1	61798.646445	61798.6468759	80	61802.0384995	61802.038967	40	61805.1356286	61805.1361808	100	imm	61806.8484164	61807.3586197	61807.3589162	120.0	2.0	61809.0076439
1350.36474609375	0.0	120	2765547	81	67	300	1	1	61798.646445	61798.6468759	80	61802.0384995	61802.038967	40	61805.1356286	61805.1361808	100	imm	61806.8484164	61807.3586197	61807.3589162	120.0	2.0	61809.0076439
1354.4599609375	0.0	80	2773934	82	93	300	1	0	61811.4535856	61811.4541473	80	61814.9562322	61814.9567219	40	61818.2272102	61818.2276994	100	imm	61819.4637655	61819.9729907	61819.9732918	120.0	2.0	61821.047599
1357.96240234375	0.0	40	2781107	82	93	300	1	0	61811.4535856	61811.4541473	80	61814.9562322	61814.9567219	40	61818.2272102	61818.2276994	100	imm	61819.4637655	61819.9729907	61819.9732918	120.0	2.0	61821.047599
1361.2333984375	0.0	100	2787806	82	93	300	1	0	61811.4535856	61811.4541473	80	61814.9562322	61814.9567219	40	61818.2272102	61818.2276994	100	imm	61819.4637655	61819.9729907	61819.9732918	120.0	2.0	61821.047599
1362.97900390625	0.0	120	2791381	82	93	300	1	0	61811.4535856	61811.4541473	80	61814.9562322	61814.9567219	40	61818.2272102	61818.2276994	100	imm	61819.4637655	61819.9729907	61819.9732918	120.0	2.0	61821.047599
1366.5087890625	0.0	80	2798610	83	100	80	0	1	61823.5031655	61823.5035354	80	61826.8035545	61826.803948	40	61829.8907462	61829.8911262	100	del	61831.2323729	nan	nan	nan	nan	nan
1369.80908203125	0.0	40	2805369	83	100	80	0	1	61823.5031655	61823.5035354	80	61826.8035545	61826.803948	40	61829.8907462	61829.8911262	100	del	61831.2323729	nan	nan	nan	nan	nan
1372.896484375	0.0	100	2811692	83	100	80	0	1	61823.5031655	61823.5035354	80	61826.8035545	61826.803948	40	61829.8907462	61829.8911262	100	del	61831.2323729	nan	nan	nan	nan	nan
1376.853515625	0.0	80	2819796	84	83	14	1	0	61833.8477765	61833.8482805	80	61837.0595164	61837.059989	40	61840.4466488	61840.4471225	100	del	61841.6164913	61842.1268427	61842.1272383	120.0	2.0	61844.6574259
1380.06494140625	0.0	40	2826373	84	83	14	1	0	61833.8477765	61833.8482805	80	61837.0595164	61837.059989	40	61840.4466488	61840.4471225	100	del	61841.6164913	61842.1268427	61842.1272383	120.0	2.0	61844.6574259
1383.4521484375	0.0	100	2833310	84	83	14	1	0	61833.8477765	61833.8482805	80	61837.0595164	61837.059989	40	61840.4466488	61840.4471225	100	del	61841.6164913	61842.1268427	61842.1272383	120.0	2.0	61844.6574259
1385.13232421875	0.0	120	2836751	84	83	14	1	0	61833.8477765	61833.8482805	80	61837.0595164	61837.059989	40	61840.4466488	61840.4471225	100	del	61841.6164913	61842.1268427	61842.1272383	120.0	2.0	61844.6574259
1390.08740234375	0.0	80	2846899	85	83	30	0	1	61847.0824769	61847.0828455	80	61850.4850887	61850.4855819	40	61853.6574753	61853.6579951	100	del	61856.0795768	nan	nan	nan	nan	nan
1393.490234375	0.0	40	2853868	85	83	30	0	1	61847.0824769	61847.0828455	80	61850.4850887	61850.4855819	40	61853.6574753	61853.6579951	100	del	61856.0795768	nan	nan	nan	nan	nan
1396.66259765625	0.0	100	2860365	85	83	30	0	1	61847.0824769	61847.0828455	80	61850.4850887	61850.4855819	40	61853.6574753	61853.6579951	100	del	61856.0795768	nan	nan	nan	nan	nan
1401.86767578125	0.0	80	2871025	86	60	1070	0	1	61858.8627634	61858.8632669	80	61861.9159619	61861.9164281	40	61864.9857046	61864.9861749	100	imm	61871.3439273	nan	nan	nan	nan	nan
1404.9208984375	0.0	40	2877278	86	60	1070	0	1	61858.8627634	61858.8632669	80	61861.9159619	61861.9164281	40	61864.9857046	61864.9861749	100	imm	61871.3439273	nan	nan	nan	nan	nan
1407.990234375	0.0	100	2883564	86	60	1070	0	1	61858.8627634	61858.8632669	80	61861.9159619	61861.9164281	40	61864.9857046	61864.9861749	100	imm	61871.3439273	nan	nan	nan	nan	nan
1416.9345703125	0.0	80	2901882	87	70	180	1	0	61873.9303041	61873.9308624	80	61877.2774204	61877.2778793	40	61880.5397377	61880.5402326	100	imm	61891.5924341	61892.1030435	61892.1034301	120.0	2.0	61900.3278077
1420.28173828125	0.0	40	2908737	87	70	180	1	0	61873.9303041	61873.9308624	80	61877.2774204	61877.2778793	40	61880.5397377	61880.5402326	100	imm	61891.5924341	61892.1030435	61892.1034301	120.0	2.0	61900.3278077
1423.5439453125	0.0	100	2915418	87	70	180	1	0	61873.9303041	61873.9308624	80	61877.2774204	61877.2778793	40	61880.5397377	61880.5402326	100	imm	61891.5924341	61892.1030435	61892.1034301	120.0	2.0	61900.3278077
1435.10693359375	0.0	120	2939099	87	70	180	1	0	61873.9303041	61873.9308624	80	61877.2774204	61877.2778793	40	61880.5397377	61880.5402326	100	imm	61891.5924341	61892.1030435	61892.1034301	120.0	2.0	61900.3278077
1445.44091796875	0.0	80	2960263	88	50	700	1	1	61902.4372993	61902.4377694	80	61905.6934251	61905.6939295	40	61908.7805243	61908.7810271	100	imm	61909.6560023	61910.1669947	61910.1673791	120.0	2.0	61911.2243228
1448.69677734375	0.0	40	2966931	88	50	700	1	1	61902.4372993	61902.4377694	80	61905.6934251	61905.6939295	40	61908.7805243	61908.7810271	100	imm	61909.6560023	61910.1669947	61910.1673791	120.0	2.0	61911.2243228
1451.7841796875	0.0	100	2973254	88	50	700	1	1	61902.4372993	61902.4377694	80	61905.6934251	61905.6939295	40	61908.7805243	61908.7810271	100	imm	61909.6560023	61910.1669947	61910.1673791	120.0	2.0	61911.2243228
1453.17041015625	0.0	120	2976093	88	50	700	1	1	61902.4372993	61902.4377694	80	61905.6934251	61905.6939295	40	61908.7805243	61908.7810271	100	imm	61909.6560023	61910.1669947	61910.1673791	120.0	2.0	61911.2243228
1456.26708984375	0.0	80	2982435	89	87	700	1	0	61913.2638017	61913.2641328	80	61916.6950231	61916.6953655	40	61919.9860473	61919.9864636	100	imm	61925.1598072	61925.6732335	61925.6736797	120.0	2.0	61926.7763713
1459.6982421875	0.0	40	2989462	89	87	700	1	0	61913.2638017	61913.2641328	80	61916.6950231	61916.6953655	40	61919.9860473	61919.9864636	100	imm	61925.1598072	61925.6732335	61925.6736797	120.0	2.0	61926.7763713
1462.9892578125	0.0	100	2996202	89	87	700	1	0	61913.2638017	61913.2641328	80	61916.6950231	61916.6953655	40	61919.9860473	61919.9864636	100	imm	61925.1598072	61925.6732335	61925.6736797	120.0	2.0	61926.7763713
1468.67626953125	0.0	120	3007849	89	87	700	1	0	61913.2638017	61913.2641328	80	61916.6950231	61916.6953655	40	61919.9860473	61919.9864636	100	imm	61925.1598072	61925.6732335	61925.6736797	120.0	2.0	61926.7763713
1472.25830078125	0.0	80	3015185	90	93	30	0	0	61929.2552492	61929.2557227	80	61932.6110616	61932.6117686	40	61935.9154604	61935.9159568	100	na	61936.9756357	nan	nan	nan	nan	nan
1475.6142578125	0.0	40	3022058	90	93	30	0	0	61929.2552492	61929.2557227	80	61932.6110616	61932.6117686	40	61935.9154604	61935.9159568	100	na	61936.9756357	nan	nan	nan	nan	nan
1478.91796875	0.0	100	3028824	90	93	30	0	0	61929.2552492	61929.2557227	80	61932.6110616	61932.6117686	40	61935.9154604	61935.9159568	100	na	61936.9756357	nan	nan	nan	nan	nan
1482.90087890625	0.0	80	3036981	91	67	240	0	1	61939.8983583	61939.8987189	80	61943.3451534	61943.3456051	40	61946.8555902	61946.856087	100	imm	61949.1286429	nan	nan	nan	nan	nan
1486.34765625	0.0	40	3044040	91	67	240	0	1	61939.8983583	61939.8987189	80	61943.3451534	61943.3456051	40	61946.8555902	61946.856087	100	imm	61949.1286429	nan	nan	nan	nan	nan
1489.85791015625	0.0	100	3051229	91	67	240	0	1	61939.8983583	61939.8987189	80	61943.3451534	61943.3456051	40	61946.8555902	61946.856087	100	imm	61949.1286429	nan	nan	nan	nan	nan
1494.64892578125	0.0	80	3061041	92	57	14	1	0	61951.6466727	61951.6471217	80	61955.0877698	61955.0882564	40	61958.4076605	61958.4081652	100	del	61961.0964665	61961.6081878	61961.6086458	120.0	2.0	61963.4801025
1498.08984375	0.0	40	3068088	92	57	14	1	0	61951.6466727	61951.6471217	80	61955.0877698	61955.0882564	40	61958.4076605	61958.4081652	100	del	61961.0964665	61961.6081878	61961.6086458	120.0	2.0	61963.4801025
1501.40966796875	0.0	100	3074887	92	57	14	1	0	61951.6466727	61951.6471217	80	61955.0877698	61955.0882564	40	61958.4076605	61958.4081652	100	del	61961.0964665	61961.6081878	61961.6086458	120.0	2.0	61963.4801025
1504.6103515625	0.0	120	3081442	92	57	14	1	0	61951.6466727	61951.6471217	80	61955.0877698	61955.0882564	40	61958.4076605	61958.4081652	100	del	61961.0964665	61961.6081878	61961.6086458	120.0	2.0	61963.4801025
1508.9912109375	0.0	80	3090414	93	100	30	0	0	61965.989084	61965.9895607	80	61969.2604287	61969.2609105	40	61972.5127982	61972.513256	100	del	61973.8646883	nan	nan	nan	nan	nan
1512.26220703125	0.0	40	3097113	93	100	30	0	0	61965.989084	61965.9895607	80	61969.2604287	61969.2609105	40	61972.5127982	61972.513256	100	del	61973.8646883	nan	nan	nan	nan	nan
1515.5146484375	0.0	100	3103774	93	100	30	0	0	61965.989084	61965.9895607	80	61969.2604287	61969.2609105	40	61972.5127982	61972.513256	100	del	61973.8646883	nan	nan	nan	nan	nan
1519.7841796875	0.0	80	3112518	94	77	460	0	0	61976.7824741	61976.7831248	80	61979.9042153	61979.9047505	40	61983.1642096	61983.164696	100	imm	61985.7118725	nan	nan	nan	nan	nan
1522.90576171875	0.0	40	3118911	94	77	460	0	0	61976.7824741	61976.7831248	80	61979.9042153	61979.9047505	40	61983.1642096	61983.164696	100	imm	61985.7118725	nan	nan	nan	nan	nan
1526.16552734375	0.0	100	3125587	94	77	460	0	0	61976.7824741	61976.7831248	80	61979.9042153	61979.9047505	40	61983.1642096	61983.164696	100	imm	61985.7118725	nan	nan	nan	nan	nan
1531.67822265625	0.0	80	3136877	95	60	240	0	0	61988.676796	61988.6771513	80	61991.9715017	61991.9719252	40	61995.4073339	61995.4078155	100	imm	61998.3045068	nan	nan	nan	nan	nan
1534.97265625	0.0	40	3143624	95	60	240	0	0	61988.676796	61988.6771513	80	61991.9715017	61991.9719252	40	61995.4073339	61995.4078155	100	imm	61998.3045068	nan	nan	nan	nan	nan
1538.408203125	0.0	100	3150660	95	60	240	0	0	61988.676796	61988.6771513	80	61991.9715017	61991.9719252	40	61995.4073339	61995.4078155	100	imm	61998.3045068	nan	nan	nan	nan	nan
1544.1904296875	0.0	80	3162502	96	50	80	0	0	62001.1897054	62001.1902032	80	62004.488919	62004.4892882	40	62007.6252201	62007.6257887	100	imm	62008.8244733	nan	nan	nan	nan	nan
1547.48974609375	0.0	40	3169259	96	50	80	0	0	62001.1897054	62001.1902032	80	62004.488919	62004.4892882	40	62007.6252201	62007.6257887	100	imm	62008.8244733	nan	nan	nan	nan	nan
1550.6259765625	0.0	100	3175682	96	50	80	0	0	62001.1897054	62001.1902032	80	62004.488919	62004.4892882	40	62007.6252201	62007.6257887	100	imm	62008.8244733	nan	nan	nan	nan	nan
1554.6728515625	0.0	80	3183970	97	87	35	1	0	62011.6721956	62011.67259	80	62014.7213592	62014.721858	40	62018.0473081	62018.0478628	100	del	62021.3445261	62021.8550973	62021.8554711	120.0	2.0	62022.8477066
1557.7216796875	0.0	40	3190214	97	87	35	1	0	62011.6721956	62011.67259	80	62014.7213592	62014.721858	40	62018.0473081	62018.0478628	100	del	62021.3445261	62021.8550973	62021.8554711	120.0	2.0	62022.8477066
1561.0478515625	0.0	100	3197026	97	87	35	1	0	62011.6721956	62011.67259	80	62014.7213592	62014.721858	40	62018.0473081	62018.0478628	100	del	62021.3445261	62021.8550973	62021.8554711	120.0	2.0	62022.8477066
1564.85546875	0.0	120	3204824	97	87	35	1	0	62011.6721956	62011.67259	80	62014.7213592	62014.721858	40	62018.0473081	62018.0478628	100	del	62021.3445261	62021.8550973	62021.8554711	120.0	2.0	62022.8477066
1568.1953125	0.0	80	3211664	98	90	35	1	0	62025.1946613	62025.1952287	80	62028.5671016	62028.5675496	40	62032.025547	62032.026014	100	del	62033.2240326	62033.7369	62033.7373606	120.0	2.0	62035.0964423
1571.5673828125	0.0	40	3218570	98	90	35	1	0	62025.1946613	62025.1952287	80	62028.5671016	62028.5675496	40	62032.025547	62032.026014	100	del	62033.2240326	62033.7369	62033.7373606	120.0	2.0	62035.0964423
1575.025390625	0.0	100	3225652	98	90	35	1	0	62025.1946613	62025.1952287	80	62028.5671016	62028.5675496	40	62032.025547	62032.026014	100	del	62033.2240326	62033.7369	62033.7373606	120.0	2.0	62035.0964423
1576.73681640625	0.0	120	3229157	98	90	35	1	0	62025.1946613	62025.1952287	80	62028.5671016	62028.5675496	40	62032.025547	62032.026014	100	del	62033.2240326	62033.7369	62033.7373606	120.0	2.0	62035.0964423
1580.599609375	0.0	80	3237068	99	70	460	0	0	62037.599961	62037.600312	80	62040.9918367	62040.9923205	40	62044.2966972	62044.2972179	100	imm	62045.8638845	nan	nan	nan	nan	nan
1583.99169921875	0.0	40	3244015	99	70	460	0	0	62037.599961	62037.600312	80	62040.9918367	62040.9923205	40	62044.2966972	62044.2972179	100	imm	62045.8638845	nan	nan	nan	nan	nan
1587.29638671875	0.0	100	3250783	99	70	460	0	0	62037.599961	62037.600312	80	62040.9918367	62040.9923205	40	62044.2966972	62044.2972179	100	imm	62045.8638845	nan	nan	nan	nan	nan
1591.845703125	0.0	80	3260100	100	73	300	1	1	62048.8460512	62048.8465577	80	62052.1440199	62052.1445028	40	62055.1656438	62055.1661338	100	del	62059.0161832	62059.527762	62059.5282365	120.0	2.0	62060.7118992
1595.1435546875	0.0	40	3266854	100	73	300	1	1	62048.8460512	62048.8465577	80	62052.1440199	62052.1445028	40	62055.1656438	62055.1661338	100	del	62059.0161832	62059.527762	62059.5282365	120.0	2.0	62060.7118992
1598.1650390625	0.0	100	3273042	100	73	300	1	1	62048.8460512	62048.8465577	80	62052.1440199	62052.1445028	40	62055.1656438	62055.1661338	100	del	62059.0161832	62059.527762	62059.5282365	120.0	2.0	62060.7118992
1602.52685546875	0.0	120	3281975	100	73	300	1	1	62048.8460512	62048.8465577	80	62052.1440199	62052.1445028	40	62055.1656438	62055.1661338	100	del	62059.0161832	62059.527762	62059.5282365	120.0	2.0	62060.7118992
1665.09716796875	0.0	80	3410119	101	50	35	1	0	62122.099723	62122.1003073	80	62125.5385502	62125.5390283	40	62128.7929229	62128.7934368	100	del	62129.8162677	62130.3272608	62130.3277331	120.0	2.0	62131.7040485
1668.5361328125	0.0	40	3417162	101	50	35	1	0	62122.099723	62122.1003073	80	62125.5385502	62125.5390283	40	62128.7929229	62128.7934368	100	del	62129.8162677	62130.3272608	62130.3277331	120.0	2.0	62131.7040485
1671.79052734375	0.0	100	3423827	101	50	35	1	0	62122.099723	62122.1003073	80	62125.5385502	62125.5390283	40	62128.7929229	62128.7934368	100	del	62129.8162677	62130.3272608	62130.3277331	120.0	2.0	62131.7040485
1673.32470703125	0.0	120	3426969	101	50	35	1	0	62122.099723	62122.1003073	80	62125.5385502	62125.5390283	40	62128.7929229	62128.7934368	100	del	62129.8162677	62130.3272608	62130.3277331	120.0	2.0	62131.7040485
1677.14013671875	0.0	80	3434783	102	73	240	0	1	62134.1427661	62134.1432342	80	62137.2548311	62137.2552311	40	62140.5401468	62140.5404782	100	imm	62141.9614582	nan	nan	nan	nan	nan
1680.251953125	0.0	40	3441156	102	73	240	0	1	62134.1427661	62134.1432342	80	62137.2548311	62137.2552311	40	62140.5401468	62140.5404782	100	imm	62141.9614582	nan	nan	nan	nan	nan
1683.537109375	0.0	100	3447884	102	73	240	0	1	62134.1427661	62134.1432342	80	62137.2548311	62137.2552311	40	62140.5401468	62140.5404782	100	imm	62141.9614582	nan	nan	nan	nan	nan
1687.7880859375	0.0	80	3456590	103	67	30	0	1	62144.7913638	62144.7917358	80	62147.81574	62147.8162434	40	62151.136372	62151.1369176	100	del	62155.5134835	nan	nan	nan	nan	nan
1690.8125	0.0	40	3462784	103	67	30	0	1	62144.7913638	62144.7917358	80	62147.81574	62147.8162434	40	62151.136372	62151.1369176	100	del	62155.5134835	nan	nan	nan	nan	nan
1694.13330078125	0.0	100	3469585	103	67	30	0	1	62144.7913638	62144.7917358	80	62147.81574	62147.8162434	40	62151.136372	62151.1369176	100	del	62155.5134835	nan	nan	nan	nan	nan
1701.2060546875	0.0	80	3484070	104	90	1070	0	1	62158.2096554	62158.2100332	80	62161.2421476	62161.2426186	40	62164.5007366	62164.5012686	100	del	62169.6403116	nan	nan	nan	nan	nan
1704.23876953125	0.0	40	3490281	104	90	1070	0	1	62158.2096554	62158.2100332	80	62161.2421476	62161.2426186	40	62164.5007366	62164.5012686	100	del	62169.6403116	nan	nan	nan	nan	nan
1707.4970703125	0.0	100	3496954	104	90	1070	0	1	62158.2096554	62158.2100332	80	62161.2421476	62161.2426186	40	62164.5007366	62164.5012686	100	del	62169.6403116	nan	nan	nan	nan	nan
1715.25146484375	0.0	80	3512835	105	90	14	1	1	62172.2552131	62172.2556667	80	62175.3240622	62175.324528	40	62178.439551	62178.4400453	100	imm	62182.3360299	62182.8498554	62182.8502897	120.0	3.0	62184.8328114
1718.3203125	0.0	40	3519120	105	90	14	1	1	62172.2552131	62172.2556667	80	62175.3240622	62175.324528	40	62178.439551	62178.4400453	100	imm	62182.3360299	62182.8498554	62182.8502897	120.0	3.0	62184.8328114
1721.435546875	0.0	100	3525500	105	90	14	1	1	62172.2552131	62172.2556667	80	62175.3240622	62175.324528	40	62178.439551	62178.4400453	100	imm	62182.3360299	62182.8498554	62182.8502897	120.0	3.0	62184.8328114
1725.845703125	0.0	120	3534532	105	90	14	1	1	62172.2552131	62172.2556667	80	62175.3240622	62175.324528	40	62178.439551	62178.4400453	100	imm	62182.3360299	62182.8498554	62182.8502897	120.0	3.0	62184.8328114
1729.9169921875	0.0	80	3542870	106	53	14	1	0	62186.9213369	62186.9218372	80	62190.0234934	62190.0239935	40	62193.0585795	62193.0590967	100	del	62195.7198981	62196.2347658	62196.2352726	120.0	3.0	62201.576745
1733.01904296875	0.0	40	3549223	106	53	14	1	0	62186.9213369	62186.9218372	80	62190.0234934	62190.0239935	40	62193.0585795	62193.0590967	100	del	62195.7198981	62196.2347658	62196.2352726	120.0	3.0	62201.576745
1736.05419921875	0.0	100	3555439	106	53	14	1	0	62186.9213369	62186.9218372	80	62190.0234934	62190.0239935	40	62193.0585795	62193.0590967	100	del	62195.7198981	62196.2347658	62196.2352726	120.0	3.0	62201.576745
1739.23046875	0.0	120	3561944	106	53	14	1	0	62186.9213369	62186.9218372	80	62190.0234934	62190.0239935	40	62193.0585795	62193.0590967	100	del	62195.7198981	62196.2347658	62196.2352726	120.0	3.0	62201.576745
1746.904296875	0.0	80	3577660	107	63	1070	0	0	62203.9088562	62203.9094249	80	62207.0582973	62207.0588878	40	62210.3420672	62210.3425781	100	imm	62211.7999096	nan	nan	nan	nan	nan
1750.0537109375	0.0	40	3584110	107	63	1070	0	0	62203.9088562	62203.9094249	80	62207.0582973	62207.0588878	40	62210.3420672	62210.3425781	100	imm	62211.7999096	nan	nan	nan	nan	nan
1753.33740234375	0.0	100	3590835	107	63	1070	0	0	62203.9088562	62203.9094249	80	62207.0582973	62207.0588878	40	62210.3420672	62210.3425781	100	imm	62211.7999096	nan	nan	nan	nan	nan
1757.65771484375	0.0	80	3599683	108	50	14	1	1	62214.6627831	62214.663153	80	62217.9197186	62217.9201843	40	62221.2019128	62221.2024263	100	del	62222.5203922	62223.0313024	62223.0316661	120.0	2.0	62224.1525381
1760.91455078125	0.0	40	3606353	108	50	14	1	1	62214.6627831	62214.663153	80	62217.9197186	62217.9201843	40	62221.2019128	62221.2024263	100	del	62222.5203922	62223.0313024	62223.0316661	120.0	2.0	62224.1525381
1764.19677734375	0.0	100	3613075	108	50	14	1	1	62214.6627831	62214.663153	80	62217.9197186	62217.9201843	40	62221.2019128	62221.2024263	100	del	62222.5203922	62223.0313024	62223.0316661	120.0	2.0	62224.1525381
1766.02587890625	0.0	120	3616821	108	50	14	1	1	62214.6627831	62214.663153	80	62217.9197186	62217.9201843	40	62221.2019128	62221.2024263	100	del	62222.5203922	62223.0313024	62223.0316661	120.0	2.0	62224.1525381
1769.38525390625	0.0	80	3623701	109	100	240	0	1	62226.3903971	62226.3908485	80	62229.4597882	62229.4602817	40	62232.7138478	62232.7143623	100	imm	62233.9288647	nan	nan	nan	nan	nan
1772.45458984375	0.0	40	3629987	109	100	240	0	1	62226.3903971	62226.3908485	80	62229.4597882	62229.4602817	40	62232.7138478	62232.7143623	100	imm	62233.9288647	nan	nan	nan	nan	nan
1775.70849609375	0.0	100	3636651	109	100	240	0	1	62226.3903971	62226.3908485	80	62229.4597882	62229.4602817	40	62232.7138478	62232.7143623	100	imm	62233.9288647	nan	nan	nan	nan	nan
1779.86669921875	0.0	80	3645167	110	90	700	1	0	62236.8724943	62236.8729733	80	62240.3168665	62240.3173999	40	62243.4647883	62243.4652863	100	imm	62245.9205385	62246.4305857	62246.4309829	120.0	1.0	62248.0647605
1783.31103515625	0.0	40	3652221	110	90	700	1	0	62236.8724943	62236.8729733	80	62240.3168665	62240.3173999	40	62243.4647883	62243.4652863	100	imm	62245.9205385	62246.4305857	62246.4309829	120.0	1.0	62248.0647605
1786.458984375	0.0	100	3658668	110	90	700	1	0	62236.8724943	62236.8729733	80	62240.3168665	62240.3173999	40	62243.4647883	62243.4652863	100	imm	62245.9205385	62246.4305857	62246.4309829	120.0	1.0	62248.0647605
1789.4248046875	0.0	120	3664742	110	90	700	1	0	62236.8724943	62236.8729733	80	62240.3168665	62240.3173999	40	62243.4647883	62243.4652863	100	imm	62245.9205385	62246.4305857	62246.4309829	120.0	1.0	62248.0647605
1793.17919921875	0.0	80	3672431	111	60	700	1	1	62250.1850966	62250.1855782	80	62253.4748843	62253.475387	40	62256.8087775	62256.8092975	100	imm	62260.456643	62260.9658884	62260.9662175	120.0	1.0	62261.7686959
1796.46875	0.0	40	3679168	111	60	700	1	1	62250.1850966	62250.1855782	80	62253.4748843	62253.475387	40	62256.8087775	62256.8092975	100	imm	62260.456643	62260.9658884	62260.9662175	120.0	1.0	62261.7686959
1799.802734375	0.0	100	3685996	111	60	700	1	1	62250.1850966	62250.1855782	80	62253.4748843	62253.475387	40	62256.8087775	62256.8092975	100	imm	62260.456643	62260.9658884	62260.9662175	120.0	1.0	62261.7686959
1803.95947265625	0.0	120	3694509	111	60	700	1	1	62250.1850966	62250.1855782	80	62253.4748843	62253.475387	40	62256.8087775	62256.8092975	100	imm	62260.456643	62260.9658884	62260.9662175	120.0	1.0	62261.7686959
1806.984375	0.0	80	3700704	112	77	180	1	0	62263.990851	62263.9912014	80	62267.1021461	62267.1025853	40	62270.5897334	62270.5902452	100	del	62271.6808747	62272.1914905	62272.191856	120.0	1.0	62277.7534184
1810.095703125	0.0	40	3707076	112	77	180	1	0	62263.990851	62263.9912014	80	62267.1021461	62267.1025853	40	62270.5897334	62270.5902452	100	del	62271.6808747	62272.1914905	62272.191856	120.0	1.0	62277.7534184
1813.5830078125	0.0	100	3714218	112	77	180	1	0	62263.990851	62263.9912014	80	62267.1021461	62267.1025853	40	62270.5897334	62270.5902452	100	del	62271.6808747	62272.1914905	62272.191856	120.0	1.0	62277.7534184
1815.18505859375	0.0	120	3717499	112	77	180	1	0	62263.990851	62263.9912014	80	62267.1021461	62267.1025853	40	62270.5897334	62270.5902452	100	del	62271.6808747	62272.1914905	62272.191856	120.0	1.0	62277.7534184
1822.798828125	0.0	80	3733092	113	93	240	0	0	62279.8056042	62279.8059947	80	62282.8668038	62282.8673235	40	62285.9504008	62285.9508075	100	imm	62287.3849887	nan	nan	nan	nan	nan
1825.85986328125	0.0	40	3739361	113	93	240	0	0	62279.8056042	62279.8059947	80	62282.8668038	62282.8673235	40	62285.9504008	62285.9508075	100	imm	62287.3849887	nan	nan	nan	nan	nan
1828.943359375	0.0	100	3745676	113	93	240	0	0	62279.8056042	62279.8059947	80	62282.8668038	62282.8673235	40	62285.9504008	62285.9508075	100	imm	62287.3849887	nan	nan	nan	nan	nan
1832.97607421875	0.0	80	3753935	114	97	460	0	0	62289.9831498	62289.9835425	80	62293.2997249	62293.3000671	40	62296.5997364	62296.6002148	100	imm	62297.5857719	nan	nan	nan	nan	nan
1836.29248046875	0.0	40	3760727	114	97	460	0	0	62289.9831498	62289.9835425	80	62293.2997249	62293.3000671	40	62296.5997364	62296.6002148	100	imm	62297.5857719	nan	nan	nan	nan	nan
1839.59228515625	0.0	100	3767485	114	97	460	0	0	62289.9831498	62289.9835425	80	62293.2997249	62293.3000671	40	62296.5997364	62296.6002148	100	imm	62297.5857719	nan	nan	nan	nan	nan
1843.12060546875	0.0	80	3774711	115	63	14	1	0	62300.1279045	62300.128403	80	62303.6016075	62303.6020927	40	62306.9790587	62306.9798496	100	imm	62307.8739197	62308.385992	62308.3864158	120.0	1.0	62309.9620802
1846.59423828125	0.0	40	3781825	115	63	14	1	0	62300.1279045	62300.128403	80	62303.6016075	62303.6020927	40	62306.9790587	62306.9798496	100	imm	62307.8739197	62308.385992	62308.3864158	120.0	1.0	62309.9620802
1849.97119140625	0.0	100	3788741	115	63	14	1	0	62300.1279045	62300.128403	80	62303.6016075	62303.6020927	40	62306.9790587	62306.9798496	100	imm	62307.8739197	62308.385992	62308.3864158	120.0	1.0	62309.9620802
1851.37841796875	0.0	120	3791623	115	63	14	1	0	62300.1279045	62300.128403	80	62303.6016075	62303.6020927	40	62306.9790587	62306.9798496	100	imm	62307.8739197	62308.385992	62308.3864158	120.0	1.0	62309.9620802
1855.3349609375	0.0	80	3799726	116	60	300	1	1	62312.3426772	62312.343468	80	62315.3832303	62315.3836985	40	62318.8230243	62318.8233393	100	imm	62321.9045492	62322.4163027	62322.4167796	120.0	1.0	62323.3218898
1858.37548828125	0.0	40	3805953	116	60	300	1	1	62312.3426772	62312.343468	80	62315.3832303	62315.3836985	40	62318.8230243	62318.8233393	100	imm	62321.9045492	62322.4163027	62322.4167796	120.0	1.0	62323.3218898
1861.81494140625	0.0	100	3812997	116	60	300	1	1	62312.3426772	62312.343468	80	62315.3832303	62315.3836985	40	62318.8230243	62318.8233393	100	imm	62321.9045492	62322.4163027	62322.4167796	120.0	1.0	62323.3218898
1865.408203125	0.0	120	3820356	116	60	300	1	1	62312.3426772	62312.343468	80	62315.3832303	62315.3836985	40	62318.8230243	62318.8233393	100	imm	62321.9045492	62322.4163027	62322.4167796	120.0	1.0	62323.3218898
1868.794921875	0.0	80	3827292	117	90	80	0	1	62325.8028818	62325.8032837	80	62329.302291	62329.3027707	40	62332.7448581	62332.7453758	100	imm	62339.9608308	nan	nan	nan	nan	nan
1872.2939453125	0.0	40	3834458	117	90	80	0	1	62325.8028818	62325.8032837	80	62329.302291	62329.3027707	40	62332.7448581	62332.7453758	100	imm	62339.9608308	nan	nan	nan	nan	nan
1875.73681640625	0.0	100	3841509	117	90	80	0	1	62325.8028818	62325.8032837	80	62329.302291	62329.3027707	40	62332.7448581	62332.7453758	100	imm	62339.9608308	nan	nan	nan	nan	nan
1885.8623046875	0.0	80	3862246	118	90	460	0	0	62342.8709235	62342.8713384	80	62346.1351454	62346.1356328	40	62349.2369456	62349.2373348	100	imm	62353.3767469	nan	nan	nan	nan	nan
1889.12646484375	0.0	40	3868931	118	90	460	0	0	62342.8709235	62342.8713384	80	62346.1351454	62346.1356328	40	62349.2369456	62349.2373348	100	imm	62353.3767469	nan	nan	nan	nan	nan
1892.22802734375	0.0	100	3875283	118	90	460	0	0	62342.8709235	62342.8713384	80	62346.1351454	62346.1356328	40	62349.2369456	62349.2373348	100	imm	62353.3767469	nan	nan	nan	nan	nan
1899.08447265625	0.0	80	3889325	119	53	300	1	1	62356.0932615	62356.093745	80	62359.1676871	62359.1681861	40	62362.1971002	62362.1975852	100	imm	62364.4089416	62364.9187125	62364.9191261	120.0	1.0	62365.7779182
1902.15869140625	0.0	40	3895621	119	53	300	1	1	62356.0932615	62356.093745	80	62359.1676871	62359.1681861	40	62362.1971002	62362.1975852	100	imm	62364.4089416	62364.9187125	62364.9191261	120.0	1.0	62365.7779182
1905.18798828125	0.0	100	3901825	119	53	300	1	1	62356.0932615	62356.093745	80	62359.1676871	62359.1681861	40	62362.1971002	62362.1975852	100	imm	62364.4089416	62364.9187125	62364.9191261	120.0	1.0	62365.7779182
1907.90966796875	0.0	120	3907399	119	53	300	1	1	62356.0932615	62356.093745	80	62359.1676871	62359.1681861	40	62362.1971002	62362.1975852	100	imm	62364.4089416	62364.9187125	62364.9191261	120.0	1.0	62365.7779182
1911.2529296875	0.0	80	3914246	120	97	240	0	0	62368.2621422	62368.262624	80	62371.4205566	62371.4211349	40	62374.581731	62374.5822057	100	na	62376.23297	nan	nan	nan	nan	nan
1914.4111328125	0.0	40	3920714	120	97	240	0	0	62368.2621422	62368.262624	80	62371.4205566	62371.4211349	40	62374.581731	62374.5822057	100	na	62376.23297	nan	nan	nan	nan	nan
1917.572265625	0.0	100	3927188	120	97	240	0	0	62368.2621422	62368.262624	80	62371.4205566	62371.4211349	40	62374.581731	62374.5822057	100	na	62376.23297	nan	nan	nan	nan	nan
2032.47607421875	0.0	80	4162511	121	57	700	1	1	62489.4885219	62489.4890263	80	62492.7296563	62492.730125	40	62496.0674964	62496.0680245	100	imm	62497.6082729	62498.1188849	62498.1192779	120.0	1.0	62499.5682296
2035.716796875	0.0	40	4169148	121	57	700	1	1	62489.4885219	62489.4890263	80	62492.7296563	62492.730125	40	62496.0674964	62496.0680245	100	imm	62497.6082729	62498.1188849	62498.1192779	120.0	1.0	62499.5682296
2039.0546875	0.0	100	4175984	121	57	700	1	1	62489.4885219	62489.4890263	80	62492.7296563	62492.730125	40	62496.0674964	62496.0680245	100	imm	62497.6082729	62498.1188849	62498.1192779	120.0	1.0	62499.5682296
2041.10595703125	0.0	120	4180185	121	57	700	1	1	62489.4885219	62489.4890263	80	62492.7296563	62492.730125	40	62496.0674964	62496.0680245	100	imm	62497.6082729	62498.1188849	62498.1192779	120.0	1.0	62499.5682296
2044.5830078125	0.0	80	4187306	122	57	240	0	1	62501.5961362	62501.5965462	80	62505.024718	62505.0251527	40	62508.3155976	62508.3160108	100	imm	62509.1364557	nan	nan	nan	nan	nan
2048.01171875	0.0	40	4194328	122	57	240	0	1	62501.5961362	62501.5965462	80	62505.024718	62505.0251527	40	62508.3155976	62508.3160108	100	imm	62509.1364557	nan	nan	nan	nan	nan
2051.30224609375	0.0	100	4201067	122	57	240	0	1	62501.5961362	62501.5965462	80	62505.024718	62505.0251527	40	62508.3155976	62508.3160108	100	imm	62509.1364557	nan	nan	nan	nan	nan
2055.06591796875	0.0	80	4208775	123	50	30	0	0	62512.0792087	62512.0795393	80	62515.2604653	62515.2609688	40	62518.496844	62518.4973585	100	imm	62520.409078	nan	nan	nan	nan	nan
2058.2470703125	0.0	40	4215290	123	50	30	0	0	62512.0792087	62512.0795393	80	62515.2604653	62515.2609688	40	62518.496844	62518.4973585	100	imm	62520.409078	nan	nan	nan	nan	nan
2061.4833984375	0.0	100	4221918	123	50	30	0	0	62512.0792087	62512.0795393	80	62515.2604653	62515.2609688	40	62518.496844	62518.4973585	100	imm	62520.409078	nan	nan	nan	nan	nan
2065.93994140625	0.0	80	4231045	124	63	460	0	0	62522.953185	62522.9538396	80	62526.0493489	62526.0498361	40	62529.3958214	62529.3963541	100	imm	62530.6659561	nan	nan	nan	nan	nan
2069.03564453125	0.0	40	4237385	124	63	460	0	0	62522.953185	62522.9538396	80	62526.0493489	62526.0498361	40	62529.3958214	62529.3963541	100	imm	62530.6659561	nan	nan	nan	nan	nan
2072.38232421875	0.0	100	4244239	124	63	460	0	0	62522.953185	62522.9538396	80	62526.0493489	62526.0498361	40	62529.3958214	62529.3963541	100	imm	62530.6659561	nan	nan	nan	nan	nan
2076.330078125	0.0	80	4252324	125	60	14	1	0	62533.3438907	62533.3443593	80	62536.8008975	62536.8014102	40	62539.8740264	62539.8745081	100	imm	62540.5924301	62541.1024959	62541.1028859	120.0	1.0	62543.8803701
2079.787109375	0.0	40	4259404	125	60	14	1	0	62533.3438907	62533.3443593	80	62536.8008975	62536.8014102	40	62539.8740264	62539.8745081	100	imm	62540.5924301	62541.1024959	62541.1028859	120.0	1.0	62543.8803701
2082.85986328125	0.0	100	4265697	125	60	14	1	0	62533.3438907	62533.3443593	80	62536.8008975	62536.8014102	40	62539.8740264	62539.8745081	100	imm	62540.5924301	62541.1024959	62541.1028859	120.0	1.0	62543.8803701
2084.08837890625	0.0	120	4268213	125	60	14	1	0	62533.3438907	62533.3443593	80	62536.8008975	62536.8014102	40	62539.8740264	62539.8745081	100	imm	62540.5924301	62541.1024959	62541.1028859	120.0	1.0	62543.8803701
2089.37548828125	0.0	80	4279041	126	73	30	0	1	62546.3897577	62546.390176	80	62549.66653	62549.6669512	40	62553.0362049	62553.0366274	100	del	62554.2340754	nan	nan	nan	nan	nan
2092.65234375	0.0	40	4285752	126	73	30	0	1	62546.3897577	62546.390176	80	62549.66653	62549.6669512	40	62553.0362049	62553.0366274	100	del	62554.2340754	nan	nan	nan	nan	nan
2096.02197265625	0.0	100	4292653	126	73	30	0	1	62546.3897577	62546.390176	80	62549.66653	62549.6669512	40	62553.0362049	62553.0366274	100	del	62554.2340754	nan	nan	nan	nan	nan
2100.23779296875	0.0	80	4301287	127	50	460	0	0	62557.252491	62557.2529692	80	62560.4038065	62560.4043414	40	62563.6249737	62563.6254812	100	imm	62568.1766087	nan	nan	nan	nan	nan
2103.38916015625	0.0	40	4307741	127	50	460	0	0	62557.252491	62557.2529692	80	62560.4038065	62560.4043414	40	62563.6249737	62563.6254812	100	imm	62568.1766087	nan	nan	nan	nan	nan
2106.6103515625	0.0	100	4314338	127	50	460	0	0	62557.252491	62557.2529692	80	62560.4038065	62560.4043414	40	62563.6249737	62563.6254812	100	imm	62568.1766087	nan	nan	nan	nan	nan
2113.908203125	0.0	80	4329284	128	70	14	1	0	62570.9232031	62570.9235624	80	62574.312445	62574.3129053	40	62577.7332335	62577.7336096	100	del	62578.5771735	62579.0875856	62579.0879749	120.0	2.0	62580.8421916
2117.29736328125	0.0	40	4336225	128	70	14	1	0	62570.9232031	62570.9235624	80	62574.312445	62574.3129053	40	62577.7332335	62577.7336096	100	del	62578.5771735	62579.0875856	62579.0879749	120.0	2.0	62580.8421916
2120.71826171875	0.0	100	4343231	128	70	14	1	0	62570.9232031	62570.9235624	80	62574.312445	62574.3129053	40	62577.7332335	62577.7336096	100	del	62578.5771735	62579.0875856	62579.0879749	120.0	2.0	62580.8421916
2122.072265625	0.0	120	4346004	128	70	14	1	0	62570.9232031	62570.9235624	80	62574.312445	62574.3129053	40	62577.7332335	62577.7336096	100	del	62578.5771735	62579.0875856	62579.0879749	120.0	2.0	62580.8421916
2125.89111328125	0.0	80	4353825	129	87	30	0	1	62582.9062414	62582.9067059	80	62586.001446	62586.0018831	40	62589.1920284	62589.1924624	100	del	62591.3287805	nan	nan	nan	nan	nan
2128.986328125	0.0	40	4360164	129	87	30	0	1	62582.9062414	62582.9067059	80	62586.001446	62586.0018831	40	62589.1920284	62589.1924624	100	del	62591.3287805	nan	nan	nan	nan	nan
2132.1767578125	0.0	100	4366698	129	87	30	0	1	62582.9062414	62582.9067059	80	62586.001446	62586.0018831	40	62589.1920284	62589.1924624	100	del	62591.3287805	nan	nan	nan	nan	nan
2136.8544921875	0.0	80	4376278	130	87	240	0	0	62593.8700827	62593.8703866	80	62597.1380268	62597.138469	40	62600.3192868	62600.3197138	100	imm	62602.432488	nan	nan	nan	nan	nan
2140.12255859375	0.0	40	4382971	130	87	240	0	0	62593.8700827	62593.8703866	80	62597.1380268	62597.138469	40	62600.3192868	62600.3197138	100	imm	62602.432488	nan	nan	nan	nan	nan
2143.3037109375	0.0	100	4389486	130	87	240	0	0	62593.8700827	62593.8703866	80	62597.1380268	62597.138469	40	62600.3192868	62600.3197138	100	imm	62602.432488	nan	nan	nan	nan	nan
2148.021484375	0.0	80	4399148	131	67	700	1	1	62605.0374816	62605.0379125	80	62608.1493696	62608.1498303	40	62611.6149794	62611.6153775	100	imm	62614.8890616	62615.4025811	62615.4031042	120.0	1.0	62617.4728157
2151.13330078125	0.0	40	4405521	131	67	700	1	1	62605.0374816	62605.0379125	80	62608.1493696	62608.1498303	40	62611.6149794	62611.6153775	100	imm	62614.8890616	62615.4025811	62615.4031042	120.0	1.0	62617.4728157
2154.59912109375	0.0	100	4412619	131	67	700	1	1	62605.0374816	62605.0379125	80	62608.1493696	62608.1498303	40	62611.6149794	62611.6153775	100	imm	62614.8890616	62615.4025811	62615.4031042	120.0	1.0	62617.4728157
2158.38671875	0.0	120	4420376	131	67	700	1	1	62605.0374816	62605.0379125	80	62608.1493696	62608.1498303	40	62611.6149794	62611.6153775	100	imm	62614.8890616	62615.4025811	62615.4031042	120.0	1.0	62617.4728157
2162.80908203125	0.0	80	4429433	132	53	180	1	0	62619.8253536	62619.8260046	80	62623.0672906	62623.0677644	40	62626.5366509	62626.5370477	100	del	62633.2178366	62633.7316655	62633.7321049	120.0	2.0	62633.7323738
2166.05078125	0.0	40	4436072	132	53	180	1	0	62619.8253536	62619.8260046	80	62623.0672906	62623.0677644	40	62626.5366509	62626.5370477	100	del	62633.2178366	62633.7316655	62633.7321049	120.0	2.0	62633.7323738
2169.52001953125	0.0	100	4443177	132	53	180	1	0	62619.8253536	62619.8260046	80	62623.0672906	62623.0677644	40	62626.5366509	62626.5370477	100	del	62633.2178366	62633.7316655	62633.7321049	120.0	2.0	62633.7323738
2176.71484375	0.0	120	4457912	132	53	180	1	0	62619.8253536	62619.8260046	80	62623.0672906	62623.0677644	40	62626.5366509	62626.5370477	100	del	62633.2178366	62633.7316655	62633.7321049	120.0	2.0	62633.7323738
2178.79248046875	0.0	80	4462167	133	80	1070	0	1	62635.8089742	62635.8094967	80	62639.1883902	62639.1886675	40	62642.5688711	62642.5694325	100	imm	62644.4983014	nan	nan	nan	nan	nan
2182.17138671875	0.0	40	4469087	133	80	1070	0	1	62635.8089742	62635.8094967	80	62639.1883902	62639.1886675	40	62642.5688711	62642.5694325	100	imm	62644.4983014	nan	nan	nan	nan	nan
2185.55224609375	0.0	100	4476011	133	80	1070	0	1	62635.8089742	62635.8094967	80	62639.1883902	62639.1886675	40	62642.5688711	62642.5694325	100	imm	62644.4983014	nan	nan	nan	nan	nan
2190.27880859375	0.0	80	4485691	134	77	300	1	1	62647.295744	62647.2961709	80	62650.3953996	62650.3958723	40	62653.7083206	62653.7088302	100	imm	62654.9925861	62655.5048678	62655.5054446	120.0	1.0	62655.5630205
2193.37841796875	0.0	40	4492039	134	77	300	1	1	62647.295744	62647.2961709	80	62650.3953996	62650.3958723	40	62653.7083206	62653.7088302	100	imm	62654.9925861	62655.5048678	62655.5054446	120.0	1.0	62655.5630205
2196.69140625	0.0	100	4498824	134	77	300	1	1	62647.295744	62647.2961709	80	62650.3953996	62650.3958723	40	62653.7083206	62653.7088302	100	imm	62654.9925861	62655.5048678	62655.5054446	120.0	1.0	62655.5630205
2198.48779296875	0.0	120	4502503	134	77	300	1	1	62647.295744	62647.2961709	80	62650.3953996	62650.3958723	40	62653.7083206	62653.7088302	100	imm	62654.9925861	62655.5048678	62655.5054446	120.0	1.0	62655.5630205
2200.7099609375	0.0	80	4507054	135	93	14	1	0	62657.7271592	62657.7276415	80	62660.8013672	62660.8018447	40	62663.9171635	62663.9175178	100	del	62665.241201	62665.7505365	62665.750809	120.0	2.0	62666.4494243
2203.7841796875	0.0	40	4513350	135	93	14	1	0	62657.7271592	62657.7276415	80	62660.8013672	62660.8018447	40	62663.9171635	62663.9175178	100	del	62665.241201	62665.7505365	62665.750809	120.0	2.0	62666.4494243
2206.8994140625	0.0	100	4519730	135	93	14	1	0	62657.7271592	62657.7276415	80	62660.8013672	62660.8018447	40	62663.9171635	62663.9175178	100	del	62665.241201	62665.7505365	62665.750809	120.0	2.0	62666.4494243
2208.73291015625	0.0	120	4523485	135	93	14	1	0	62657.7271592	62657.7276415	80	62660.8013672	62660.8018447	40	62663.9171635	62663.9175178	100	del	62665.241201	62665.7505365	62665.750809	120.0	2.0	62666.4494243
2211.89599609375	0.0	80	4529963	136	53	1070	0	1	62668.9133274	62668.9138836	80	62671.9569396	62671.9573932	40	62675.0919722	62675.092422	100	del	62677.088456	nan	nan	nan	nan	nan
2214.939453125	0.0	40	4536196	136	53	1070	0	1	62668.9133274	62668.9138836	80	62671.9569396	62671.9573932	40	62675.0919722	62675.092422	100	del	62677.088456	nan	nan	nan	nan	nan
2218.07421875	0.0	100	4542616	136	53	1070	0	1	62668.9133274	62668.9138836	80	62671.9569396	62671.9573932	40	62675.0919722	62675.092422	100	del	62677.088456	nan	nan	nan	nan	nan
2222.61279296875	0.0	80	4551911	137	87	14	1	0	62679.6307071	62679.6310031	80	62682.8589248	62682.859462	40	62685.8756883	62685.8760135	100	del	62687.5524784	62688.0643242	62688.0647838	120.0	1.0	62689.1608277
2225.8408203125	0.0	40	4558522	137	87	14	1	0	62679.6307071	62679.6310031	80	62682.8589248	62682.859462	40	62685.8756883	62685.8760135	100	del	62687.5524784	62688.0643242	62688.0647838	120.0	1.0	62689.1608277
2228.857421875	0.0	100	4564700	137	87	14	1	0	62679.6307071	62679.6310031	80	62682.8589248	62682.859462	40	62685.8756883	62685.8760135	100	del	62687.5524784	62688.0643242	62688.0647838	120.0	1.0	62689.1608277
2231.04638671875	0.0	120	4569183	137	87	14	1	0	62679.6307071	62679.6310031	80	62682.8589248	62682.859462	40	62685.8756883	62685.8760135	100	del	62687.5524784	62688.0643242	62688.0647838	120.0	1.0	62689.1608277
2234.6044921875	0.0	80	4576470	138	53	700	1	1	62691.6225247	62691.6230786	80	62694.7271226	62694.7275082	40	62697.7843341	62697.7847766	100	imm	62700.5619577	62701.0724285	62701.0728364	120.0	1.0	62702.3532108
2237.708984375	0.0	40	4582828	138	53	700	1	1	62691.6225247	62691.6230786	80	62694.7271226	62694.7275082	40	62697.7843341	62697.7847766	100	imm	62700.5619577	62701.0724285	62701.0728364	120.0	1.0	62702.3532108
2240.76611328125	0.0	100	4589089	138	53	700	1	1	62691.6225247	62691.6230786	80	62694.7271226	62694.7275082	40	62697.7843341	62697.7847766	100	imm	62700.5619577	62701.0724285	62701.0728364	120.0	1.0	62702.3532108
2244.0537109375	0.0	120	4595822	138	53	700	1	1	62691.6225247	62691.6230786	80	62694.7271226	62694.7275082	40	62697.7843341	62697.7847766	100	imm	62700.5619577	62701.0724285	62701.0728364	120.0	1.0	62702.3532108
2247.501953125	0.0	80	4602884	139	70	1070	0	0	62704.5204159	62704.5208051	80	62707.7545335	62707.754893	40	62710.8183567	62710.818869	100	imm	62712.4893315	nan	nan	nan	nan	nan
2250.73583984375	0.0	40	4609507	139	70	1070	0	0	62704.5204159	62704.5208051	80	62707.7545335	62707.754893	40	62710.8183567	62710.818869	100	imm	62712.4893315	nan	nan	nan	nan	nan
2253.7998046875	0.0	100	4615782	139	70	1070	0	0	62704.5204159	62704.5208051	80	62707.7545335	62707.754893	40	62710.8183567	62710.818869	100	imm	62712.4893315	nan	nan	nan	nan	nan
2258.482421875	0.0	80	4625372	140	80	700	1	1	62715.5014911	62715.5018791	80	62718.6748257	62718.675312	40	62721.8373168	62721.837771	100	imm	62723.0645008	62723.5750817	62723.5756	120.0	1.0	62725.1364848
2261.65576171875	0.0	40	4631871	140	80	700	1	1	62715.5014911	62715.5018791	80	62718.6748257	62718.675312	40	62721.8373168	62721.837771	100	imm	62723.0645008	62723.5750817	62723.5756	120.0	1.0	62725.1364848
2264.818359375	0.0	100	4638348	140	80	700	1	1	62715.5014911	62715.5018791	80	62718.6748257	62718.675312	40	62721.8373168	62721.837771	100	imm	62723.0645008	62723.5750817	62723.5756	120.0	1.0	62725.1364848
2266.55615234375	0.0	120	4641907	140	80	700	1	1	62715.5014911	62715.5018791	80	62718.6748257	62718.675312	40	62721.8373168	62721.837771	100	imm	62723.0645008	62723.5750817	62723.5756	120.0	1.0	62725.1364848
2358.53857421875	0.0	80	4830287	141	60	35	1	1	62815.560285	62815.5607222	80	62818.7162318	62818.7166941	40	62821.7511817	62821.7516534	100	del	62825.361222	62825.8709214	62825.8712811	120.0	2.0	62826.7214091
2361.6943359375	0.0	40	4836750	141	60	35	1	1	62815.560285	62815.5607222	80	62818.7162318	62818.7166941	40	62821.7511817	62821.7516534	100	del	62825.361222	62825.8709214	62825.8712811	120.0	2.0	62826.7214091
2364.7294921875	0.0	100	4842966	141	60	35	1	1	62815.560285	62815.5607222	80	62818.7162318	62818.7166941	40	62821.7511817	62821.7516534	100	del	62825.361222	62825.8709214	62825.8712811	120.0	2.0	62826.7214091
2368.84912109375	0.0	120	4851403	141	60	35	1	1	62815.560285	62815.5607222	80	62818.7162318	62818.7166941	40	62821.7511817	62821.7516534	100	del	62825.361222	62825.8709214	62825.8712811	120.0	2.0	62826.7214091
2371.96630859375	0.0	80	4857787	142	73	460	0	1	62828.9880741	62828.9885772	80	62832.3764956	62832.3769803	40	62835.7054013	62835.7059287	100	imm	62837.921084	nan	nan	nan	nan	nan
2375.3544921875	0.0	40	4864726	142	73	460	0	1	62828.9880741	62828.9885772	80	62832.3764956	62832.3769803	40	62835.7054013	62835.7059287	100	imm	62837.921084	nan	nan	nan	nan	nan
2378.68310546875	0.0	100	4871543	142	73	460	0	1	62828.9880741	62828.9885772	80	62832.3764956	62832.3769803	40	62835.7054013	62835.7059287	100	imm	62837.921084	nan	nan	nan	nan	nan
2383.46044921875	0.0	80	4881327	143	100	14	1	1	62840.4825883	62840.4830082	80	62843.5305674	62843.5310557	40	62846.932295	62846.9327954	100	del	62849.1211121	62849.6319829	62849.6323545	120.0	2.0	62851.7125717
2386.50830078125	0.0	40	4887569	143	100	14	1	1	62840.4825883	62840.4830082	80	62843.5305674	62843.5310557	40	62846.932295	62846.9327954	100	del	62849.1211121	62849.6319829	62849.6323545	120.0	2.0	62851.7125717
2389.90966796875	0.0	100	4894535	143	100	14	1	1	62840.4825883	62840.4830082	80	62843.5305674	62843.5310557	40	62846.932295	62846.9327954	100	del	62849.1211121	62849.6319829	62849.6323545	120.0	2.0	62851.7125717
2392.609375	0.0	120	4900064	143	100	14	1	1	62840.4825883	62840.4830082	80	62843.5305674	62843.5310557	40	62846.932295	62846.9327954	100	del	62849.1211121	62849.6319829	62849.6323545	120.0	2.0	62851.7125717
2397.15576171875	0.0	80	4909375	144	83	240	0	0	62854.1783162	62854.178659	80	62857.4532406	62857.4537101	40	62860.5212921	62860.5218222	100	imm	62862.5287649	nan	nan	nan	nan	nan
2400.4306640625	0.0	40	4916082	144	83	240	0	0	62854.1783162	62854.178659	80	62857.4532406	62857.4537101	40	62860.5212921	62860.5218222	100	imm	62862.5287649	nan	nan	nan	nan	nan
2403.49853515625	0.0	100	4922365	144	83	240	0	0	62854.1783162	62854.178659	80	62857.4532406	62857.4537101	40	62860.5212921	62860.5218222	100	imm	62862.5287649	nan	nan	nan	nan	nan
2408.43505859375	0.0	80	4932475	145	83	300	1	1	62865.4580247	62865.4585109	80	62868.635114	62868.635638	40	62871.7953112	62871.7958161	100	imm	62876.4249232	62876.9356568	62876.9361874	120.0	1.0	62883.0006249
2411.61181640625	0.0	40	4938981	145	83	300	1	1	62865.4580247	62865.4585109	80	62868.635114	62868.635638	40	62871.7953112	62871.7958161	100	imm	62876.4249232	62876.9356568	62876.9361874	120.0	1.0	62883.0006249
2414.77197265625	0.0	100	4945453	145	83	300	1	1	62865.4580247	62865.4585109	80	62868.635114	62868.635638	40	62871.7953112	62871.7958161	100	imm	62876.4249232	62876.9356568	62876.9361874	120.0	1.0	62883.0006249
2419.912109375	0.0	120	4955980	145	83	300	1	1	62865.4580247	62865.4585109	80	62868.635114	62868.635638	40	62871.7953112	62871.7958161	100	imm	62876.4249232	62876.9356568	62876.9361874	120.0	1.0	62883.0006249
2428.36328125	0.0	80	4973288	146	57	300	1	0	62885.3868572	62885.3872402	80	62888.3981871	62888.3985533	40	62891.4353239	62891.4358385	100	imm	62892.6092208	62893.1191026	62893.1194264	120.0	1.0	62895.8571228
2431.37451171875	0.0	40	4979455	146	57	300	1	0	62885.3868572	62885.3872402	80	62888.3981871	62888.3985533	40	62891.4353239	62891.4358385	100	imm	62892.6092208	62893.1191026	62893.1194264	120.0	1.0	62895.8571228
2434.41162109375	0.0	100	4985675	146	57	300	1	0	62885.3868572	62885.3872402	80	62888.3981871	62888.3985533	40	62891.4353239	62891.4358385	100	imm	62892.6092208	62893.1191026	62893.1194264	120.0	1.0	62895.8571228
2436.09521484375	0.0	120	4989123	146	57	300	1	0	62885.3868572	62885.3872402	80	62888.3981871	62888.3985533	40	62891.4353239	62891.4358385	100	imm	62892.6092208	62893.1191026	62893.1194264	120.0	1.0	62895.8571228
2441.1806640625	0.0	80	4999538	147	53	460	0	0	62898.2045269	62898.2050146	80	62901.5144544	62901.5149119	40	62904.7910339	62904.7915097	100	imm	62907.656909	nan	nan	nan	nan	nan
