onset	duration	value	sample	trial_idx	val	del	is_cued	rev_opts	del_pres_displaytime	del_pres_triggertime	del_pres_triggercode	val_pres_displaytime	val_pres_triggertime	val_pres_triggercode	choice_displaytime	choice_triggertime	choice_triggercode	choice	choice_time	viv_displaytime	viv_triggertime	viv_triggercode	viv	viv_time
37.0087890625	0.0	80	75794	1	73	270	1	0	1198018.6200368	1198018.621511	80	1198021.8080236	1198021.8096635	40	1198025.3067101	1198025.3081729	100	del	1198030.249316	1198030.7665835	1198030.7685026	120.0	1.0	1198033.9310841
40.19677734375	0.0	40	82323	1	73	270	1	0	1198018.6200368	1198018.621511	80	1198021.8080236	1198021.8096635	40	1198025.3067101	1198025.3081729	100	del	1198030.249316	1198030.7665835	1198030.7685026	120.0	1.0	1198033.9310841
43.6953125	0.0	100	89488	1	73	270	1	0	1198018.6200368	1198018.621511	80	1198021.8080236	1198021.8096635	40	1198025.3067101	1198025.3081729	100	del	1198030.249316	1198030.7665835	1198030.7685026	120.0	1.0	1198033.9310841
49.15478515625	0.0	120	100669	1	73	270	1	0	1198018.6200368	1198018.621511	80	1198021.8080236	1198021.8096635	40	1198025.3067101	1198025.3081729	100	del	1198030.249316	1198030.7665835	1198030.7685026	120.0	1.0	1198033.9310841
54.39990234375	0.0	80	111411	2	97	110	0	1	1198036.0115678	1198036.0120745	80	1198039.3851591	1198039.3856891	40	1198042.7216716	1198042.722109	100	imm	1198056.1133908	nan	nan	nan	nan	nan
57.7734375	0.0	40	118320	2	97	110	0	1	1198036.0115678	1198036.0120745	80	1198039.3851591	1198039.3856891	40	1198042.7216716	1198042.722109	100	imm	1198056.1133908	nan	nan	nan	nan	nan
61.109375	0.0	100	125152	2	97	110	0	1	1198036.0115678	1198036.0120745	80	1198039.3851591	1198039.3856891	40	1198042.7216716	1198042.722109	100	imm	1198056.1133908	nan	nan	nan	nan	nan
77.43505859375	0.0	80	158587	3	60	110	0	1	1198059.0476559	1198059.0481124	80	1198062.2540692	1198062.254589	40	1198065.6421025	1198065.6426106	100	del	1198068.6271491	nan	nan	nan	nan	nan
80.6416015625	0.0	40	165154	3	60	110	0	1	1198059.0476559	1198059.0481124	80	1198062.2540692	1198062.254589	40	1198065.6421025	1198065.6426106	100	del	1198068.6271491	nan	nan	nan	nan	nan
84.029296875	0.0	100	172092	3	60	110	0	1	1198059.0476559	1198059.0481124	80	1198062.2540692	1198062.254589	40	1198065.6421025	1198065.6426106	100	del	1198068.6271491	nan	nan	nan	nan	nan
89.94921875	0.0	80	184216	4	77	26	1	1	1198071.5619498	1198071.5624377	80	1198074.7320685	1198074.7325757	40	1198078.0220933	1198078.0226216	100	del	1198081.1378587	1198081.6502998	1198081.6507572	120.0	2.0	1198084.9374557
93.119140625	0.0	40	190708	4	77	26	1	1	1198071.5619498	1198071.5624377	80	1198074.7320685	1198074.7325757	40	1198078.0220933	1198078.0226216	100	del	1198081.1378587	1198081.6502998	1198081.6507572	120.0	2.0	1198084.9374557
96.4091796875	0.0	100	197446	4	77	26	1	1	1198071.5619498	1198071.5624377	80	1198074.7320685	1198074.7325757	40	1198078.0220933	1198078.0226216	100	del	1198081.1378587	1198081.6502998	1198081.6507572	120.0	2.0	1198084.9374557
100.037109375	0.0	120	204876	4	77	26	1	1	1198071.5619498	1198071.5624377	80	1198074.7320685	1198074.7325757	40	1198078.0220933	1198078.0226216	100	del	1198081.1378587	1198081.6502998	1198081.6507572	120.0	2.0	1198084.9374557
105.8291015625	0.0	80	216738	5	87	60	1	1	1198087.4424368	1198087.442953	80	1198090.7248402	1198090.7253349	40	1198093.9039064	1198093.9043921	100	del	1198095.9311244	1198096.4413682	1198096.4417379	120.0	2.0	1198100.9937051
109.111328125	0.0	40	223460	5	87	60	1	1	1198087.4424368	1198087.442953	80	1198090.7248402	1198090.7253349	40	1198093.9039064	1198093.9043921	100	del	1198095.9311244	1198096.4413682	1198096.4417379	120.0	2.0	1198100.9937051
112.29052734375	0.0	100	229971	5	87	60	1	1	1198087.4424368	1198087.442953	80	1198090.7248402	1198090.7253349	40	1198093.9039064	1198093.9043921	100	del	1198095.9311244	1198096.4413682	1198096.4417379	120.0	2.0	1198100.9937051
114.82763671875	0.0	120	235167	5	87	60	1	1	1198087.4424368	1198087.442953	80	1198090.7248402	1198090.7253349	40	1198093.9039064	1198093.9043921	100	del	1198095.9311244	1198096.4413682	1198096.4417379	120.0	2.0	1198100.9937051
121.705078125	0.0	80	249252	6	60	240	0	1	1198103.3188226	1198103.3193139	80	1198106.5066023	1198106.5070818	40	1198109.8986307	1198109.8991476	100	del	1198111.5534354	nan	nan	nan	nan	nan
124.892578125	0.0	40	255780	6	60	240	0	1	1198103.3188226	1198103.3193139	80	1198106.5066023	1198106.5070818	40	1198109.8986307	1198109.8991476	100	del	1198111.5534354	nan	nan	nan	nan	nan
128.28466796875	0.0	100	262727	6	60	240	0	1	1198103.3188226	1198103.3193139	80	1198106.5066023	1198106.5070818	40	1198109.8986307	1198109.8991476	100	del	1198111.5534354	nan	nan	nan	nan	nan
132.66064453125	0.0	80	271689	7	80	270	1	1	1198114.2747885	1198114.2751352	80	1198117.5286687	1198117.5292332	40	1198120.8891702	1198120.8896095	100	del	1198122.2740816	1198122.7838154	1198122.7841105	120.0	3.0	1198132.4578895
135.91455078125	0.0	40	278353	7	80	270	1	1	1198114.2747885	1198114.2751352	80	1198117.5286687	1198117.5292332	40	1198120.8891702	1198120.8896095	100	del	1198122.2740816	1198122.7838154	1198122.7841105	120.0	3.0	1198132.4578895
139.27490234375	0.0	100	285235	7	80	270	1	1	1198114.2747885	1198114.2751352	80	1198117.5286687	1198117.5292332	40	1198120.8891702	1198120.8896095	100	del	1198122.2740816	1198122.7838154	1198122.7841105	120.0	3.0	1198132.4578895
141.16943359375	0.0	120	289115	7	80	270	1	1	1198114.2747885	1198114.2751352	80	1198117.5286687	1198117.5292332	40	1198120.8891702	1198120.8896095	100	del	1198122.2740816	1198122.7838154	1198122.7841105	120.0	3.0	1198132.4578895
153.3447265625	0.0	80	314050	8	60	1120	0	1	1198134.9595358	1198134.9600451	80	1198138.1312441	1198138.1317718	40	1198141.5640928	1198141.5646421	100	imm	1198143.5949027	nan	nan	nan	nan	nan
156.5166015625	0.0	40	320546	8	60	1120	0	1	1198134.9595358	1198134.9600451	80	1198138.1312441	1198138.1317718	40	1198141.5640928	1198141.5646421	100	imm	1198143.5949027	nan	nan	nan	nan	nan
159.94921875	0.0	100	327576	8	60	1120	0	1	1198134.9595358	1198134.9600451	80	1198138.1312441	1198138.1317718	40	1198141.5640928	1198141.5646421	100	imm	1198143.5949027	nan	nan	nan	nan	nan
164.86572265625	0.0	80	337645	9	50	110	0	1	1198146.4807673	1198146.4812847	80	1198149.9652307	1198149.9657211	40	1198152.9951752	1198152.9956672	100	del	1198154.2591125	nan	nan	nan	nan	nan
168.35009765625	0.0	40	344781	9	50	110	0	1	1198146.4807673	1198146.4812847	80	1198149.9652307	1198149.9657211	40	1198152.9951752	1198152.9956672	100	del	1198154.2591125	nan	nan	nan	nan	nan
171.3798828125	0.0	100	350986	9	50	110	0	1	1198146.4807673	1198146.4812847	80	1198149.9652307	1198149.9657211	40	1198152.9951752	1198152.9956672	100	del	1198154.2591125	nan	nan	nan	nan	nan
175.33984375	0.0	80	359096	10	80	1120	0	1	1198156.9551752	1198156.9556677	80	1198160.2938927	1198160.2943519	40	1198163.4478237	1198163.4483327	100	imm	1198164.5215741	nan	nan	nan	nan	nan
178.6787109375	0.0	40	365934	10	80	1120	0	1	1198156.9551752	1198156.9556677	80	1198160.2938927	1198160.2943519	40	1198163.4478237	1198163.4483327	100	imm	1198164.5215741	nan	nan	nan	nan	nan
181.83251953125	0.0	100	372393	10	80	1120	0	1	1198156.9551752	1198156.9556677	80	1198160.2938927	1198160.2943519	40	1198163.4478237	1198163.4483327	100	imm	1198164.5215741	nan	nan	nan	nan	nan
185.53955078125	0.0	80	379985	11	60	26	1	1	1198167.1548542	1198167.1553172	80	1198170.518349	1198170.5189934	40	1198173.844716	1198173.8452932	100	del	1198174.8659685	1198175.3760407	1198175.3763697	120.0	3.0	1198179.1698073
188.90283203125	0.0	40	386873	11	60	26	1	1	1198167.1548542	1198167.1553172	80	1198170.518349	1198170.5189934	40	1198173.844716	1198173.8452932	100	del	1198174.8659685	1198175.3760407	1198175.3763697	120.0	3.0	1198179.1698073
192.22900390625	0.0	100	393685	11	60	26	1	1	1198167.1548542	1198167.1553172	80	1198170.518349	1198170.5189934	40	1198173.844716	1198173.8452932	100	del	1198174.8659685	1198175.3760407	1198175.3763697	120.0	3.0	1198179.1698073
193.76025390625	0.0	120	396821	11	60	26	1	1	1198167.1548542	1198167.1553172	80	1198170.518349	1198170.5189934	40	1198173.844716	1198173.8452932	100	del	1198174.8659685	1198175.3760407	1198175.3763697	120.0	3.0	1198179.1698073
199.86376953125	0.0	80	409321	12	93	110	0	1	1198181.4799234	1198181.4803951	80	1198184.8176178	1198184.8180196	40	1198187.8561792	1198187.8566695	100	del	1198189.0258757	nan	nan	nan	nan	nan
203.20166015625	0.0	40	416157	12	93	110	0	1	1198181.4799234	1198181.4803951	80	1198184.8176178	1198184.8180196	40	1198187.8561792	1198187.8566695	100	del	1198189.0258757	nan	nan	nan	nan	nan
206.240234375	0.0	100	422380	12	93	110	0	1	1198181.4799234	1198181.4803951	80	1198184.8176178	1198184.8180196	40	1198187.8561792	1198187.8566695	100	del	1198189.0258757	nan	nan	nan	nan	nan
210.1025390625	0.0	80	430290	13	100	240	0	0	1198191.7187099	1198191.7192362	80	1198194.9522328	1198194.9527295	40	1198198.0860449	1198198.0865191	100	del	1198199.3230865	nan	nan	nan	nan	nan
213.3359375	0.0	40	436912	13	100	240	0	0	1198191.7187099	1198191.7192362	80	1198194.9522328	1198194.9527295	40	1198198.0860449	1198198.0865191	100	del	1198199.3230865	nan	nan	nan	nan	nan
216.4697265625	0.0	100	443330	13	100	240	0	0	1198191.7187099	1198191.7192362	80	1198194.9522328	1198194.9527295	40	1198198.0860449	1198198.0865191	100	del	1198199.3230865	nan	nan	nan	nan	nan
220.58056640625	0.0	80	451749	14	90	60	1	0	1198202.1970204	1198202.1975276	80	1198205.6336359	1198205.6341944	40	1198208.788301	1198208.7887823	100	del	1198210.6342946	1198211.1440438	1198211.1444179	120.0	4.0	1198216.8819633
224.01708984375	0.0	40	458787	14	90	60	1	0	1198202.1970204	1198202.1975276	80	1198205.6336359	1198205.6341944	40	1198208.788301	1198208.7887823	100	del	1198210.6342946	1198211.1440438	1198211.1444179	120.0	4.0	1198216.8819633
227.17138671875	0.0	100	465247	14	90	60	1	0	1198202.1970204	1198202.1975276	80	1198205.6336359	1198205.6341944	40	1198208.788301	1198208.7887823	100	del	1198210.6342946	1198211.1440438	1198211.1444179	120.0	4.0	1198216.8819633
229.52734375	0.0	120	470072	14	90	60	1	0	1198202.1970204	1198202.1975276	80	1198205.6336359	1198205.6341944	40	1198208.788301	1198208.7887823	100	del	1198210.6342946	1198211.1440438	1198211.1444179	120.0	4.0	1198216.8819633
237.64404296875	0.0	80	486695	15	100	26	1	1	1198219.2611196	1198219.2615998	80	1198222.3393754	1198222.3398684	40	1198225.7666204	1198225.7669218	100	del	1198226.8419417	1198227.3524406	1198227.3528062	120.0	2.0	1198230.922977
240.72216796875	0.0	40	492999	15	100	26	1	1	1198219.2611196	1198219.2615998	80	1198222.3393754	1198222.3398684	40	1198225.7666204	1198225.7669218	100	del	1198226.8419417	1198227.3524406	1198227.3528062	120.0	2.0	1198230.922977
244.1494140625	0.0	100	500018	15	100	26	1	1	1198219.2611196	1198219.2615998	80	1198222.3393754	1198222.3398684	40	1198225.7666204	1198225.7669218	100	del	1198226.8419417	1198227.3524406	1198227.3528062	120.0	2.0	1198230.922977
245.7353515625	0.0	120	503266	15	100	26	1	1	1198219.2611196	1198219.2615998	80	1198222.3393754	1198222.3398684	40	1198225.7666204	1198225.7669218	100	del	1198226.8419417	1198227.3524406	1198227.3528062	120.0	2.0	1198230.922977
251.38916015625	0.0	80	514845	16	60	700	1	1	1198233.0067364	1198233.0072322	80	1198236.3083603	1198236.3088584	40	1198239.5048347	1198239.5053597	100	del	1198240.8979222	1198241.4075682	1198241.4079394	120.0	2.0	1198242.993976
254.69091796875	0.0	40	521607	16	60	700	1	1	1198233.0067364	1198233.0072322	80	1198236.3083603	1198236.3088584	40	1198239.5048347	1198239.5053597	100	del	1198240.8979222	1198241.4075682	1198241.4079394	120.0	2.0	1198242.993976
257.88720703125	0.0	100	528153	16	60	700	1	1	1198233.0067364	1198233.0072322	80	1198236.3083603	1198236.3088584	40	1198239.5048347	1198239.5053597	100	del	1198240.8979222	1198241.4075682	1198241.4079394	120.0	2.0	1198242.993976
259.7900390625	0.0	120	532050	16	60	700	1	1	1198233.0067364	1198233.0072322	80	1198236.3083603	1198236.3088584	40	1198239.5048347	1198239.5053597	100	del	1198240.8979222	1198241.4075682	1198241.4079394	120.0	2.0	1198242.993976
263.79541015625	0.0	80	540253	17	53	700	1	1	1198245.4129926	1198245.4134654	80	1198248.6724049	1198248.6729003	40	1198251.9323562	1198251.9328218	100	del	1198272.9453526	1198273.4571589	1198273.4575387	120.0	1.0	1198274.7713454
267.0546875	0.0	40	546928	17	53	700	1	1	1198245.4129926	1198245.4134654	80	1198248.6724049	1198248.6729003	40	1198251.9323562	1198251.9328218	100	del	1198272.9453526	1198273.4571589	1198273.4575387	120.0	1.0	1198274.7713454
270.314453125	0.0	100	553604	17	53	700	1	1	1198245.4129926	1198245.4134654	80	1198248.6724049	1198248.6729003	40	1198251.9323562	1198251.9328218	100	del	1198272.9453526	1198273.4571589	1198273.4575387	120.0	1.0	1198274.7713454
291.8388671875	0.0	120	597686	17	53	700	1	1	1198245.4129926	1198245.4134654	80	1198248.6724049	1198248.6729003	40	1198251.9323562	1198251.9328218	100	del	1198272.9453526	1198273.4571589	1198273.4575387	120.0	1.0	1198274.7713454
295.60400390625	0.0	80	605397	18	77	1120	0	0	1198277.2221598	1198277.2224003	80	1198280.4070619	1198280.4078574	40	1198283.6420489	1198283.6424319	100	imm	1198285.282279	nan	nan	nan	nan	nan
298.7880859375	0.0	40	611918	18	77	1120	0	0	1198277.2221598	1198277.2224003	80	1198280.4070619	1198280.4078574	40	1198283.6420489	1198283.6424319	100	imm	1198285.282279	nan	nan	nan	nan	nan
302.0234375	0.0	100	618544	18	77	1120	0	0	1198277.2221598	1198277.2224003	80	1198280.4070619	1198280.4078574	40	1198283.6420489	1198283.6424319	100	imm	1198285.282279	nan	nan	nan	nan	nan
306.6630859375	0.0	80	628046	19	63	200	1	1	1198288.2820828	1198288.2825843	80	1198291.3107134	1198291.3112066	40	1198294.806788	1198294.8071226	100	del	1198297.193519	1198297.7048077	1198297.7054687	120.0	3.0	1198300.9632953
309.69189453125	0.0	40	634249	19	63	200	1	1	1198288.2820828	1198288.2825843	80	1198291.3107134	1198291.3112066	40	1198294.806788	1198294.8071226	100	del	1198297.193519	1198297.7048077	1198297.7054687	120.0	3.0	1198300.9632953
313.1875	0.0	100	641408	19	63	200	1	1	1198288.2820828	1198288.2825843	80	1198291.3107134	1198291.3112066	40	1198294.806788	1198294.8071226	100	del	1198297.193519	1198297.7048077	1198297.7054687	120.0	3.0	1198300.9632953
316.0859375	0.0	120	647344	19	63	200	1	1	1198288.2820828	1198288.2825843	80	1198291.3107134	1198291.3112066	40	1198294.806788	1198294.8071226	100	del	1198297.193519	1198297.7048077	1198297.7054687	120.0	3.0	1198300.9632953
321.453125	0.0	80	658336	20	50	700	1	0	1198303.0726235	1198303.0731276	80	1198306.4137004	1198306.4141004	40	1198309.7227569	1198309.7232717	100	del	1198316.250028	1198316.7614588	1198316.7618468	120.0	1.0	1198320.4496006
324.79443359375	0.0	40	665179	20	50	700	1	0	1198303.0726235	1198303.0731276	80	1198306.4137004	1198306.4141004	40	1198309.7227569	1198309.7232717	100	del	1198316.250028	1198316.7614588	1198316.7618468	120.0	1.0	1198320.4496006
328.103515625	0.0	100	671956	20	50	700	1	0	1198303.0726235	1198303.0731276	80	1198306.4137004	1198306.4141004	40	1198309.7227569	1198309.7232717	100	del	1198316.250028	1198316.7614588	1198316.7618468	120.0	1.0	1198320.4496006
335.1416015625	0.0	120	686370	20	50	700	1	0	1198303.0726235	1198303.0731276	80	1198306.4137004	1198306.4141004	40	1198309.7227569	1198309.7232717	100	del	1198316.250028	1198316.7614588	1198316.7618468	120.0	1.0	1198320.4496006
369.74951171875	0.0	80	757247	21	63	440	0	1	1198351.3701532	1198351.3706271	80	1198354.5581111	1198354.558597	40	1198357.8821423	1198357.8826774	100	del	1198361.7855527	nan	nan	nan	nan	nan
372.9375	0.0	40	763776	21	63	440	0	1	1198351.3701532	1198351.3706271	80	1198354.5581111	1198354.558597	40	1198357.8821423	1198357.8826774	100	del	1198361.7855527	nan	nan	nan	nan	nan
376.26123046875	0.0	100	770583	21	63	440	0	1	1198351.3701532	1198351.3706271	80	1198354.5581111	1198354.558597	40	1198357.8821423	1198357.8826774	100	del	1198361.7855527	nan	nan	nan	nan	nan
383.083984375	0.0	80	784556	22	93	700	1	0	1198364.7051345	1198364.705467	80	1198367.7221171	1198367.7226058	40	1198370.7768159	1198370.7773223	100	del	1198372.9314771	1198373.4411404	1198373.4414913	120.0	2.0	1198378.6896023
386.10107421875	0.0	40	790735	22	93	700	1	0	1198364.7051345	1198364.705467	80	1198367.7221171	1198367.7226058	40	1198370.7768159	1198370.7773223	100	del	1198372.9314771	1198373.4411404	1198373.4414913	120.0	2.0	1198378.6896023
389.15576171875	0.0	100	796991	22	93	700	1	0	1198364.7051345	1198364.705467	80	1198367.7221171	1198367.7226058	40	1198370.7768159	1198370.7773223	100	del	1198372.9314771	1198373.4411404	1198373.4414913	120.0	2.0	1198378.6896023
391.81982421875	0.0	120	802447	22	93	700	1	0	1198364.7051345	1198364.705467	80	1198367.7221171	1198367.7226058	40	1198370.7768159	1198370.7773223	100	del	1198372.9314771	1198373.4411404	1198373.4414913	120.0	2.0	1198378.6896023
399.57080078125	0.0	80	818321	23	57	200	1	0	1198381.1920986	1198381.1925493	80	1198384.5253206	1198384.5257764	40	1198387.6541374	1198387.65465	100	del	1198390.2495802	1198390.761136	1198390.7617743	120.0	1.0	1198395.2182982
402.90380859375	0.0	40	825147	23	57	200	1	0	1198381.1920986	1198381.1925493	80	1198384.5253206	1198384.5257764	40	1198387.6541374	1198387.65465	100	del	1198390.2495802	1198390.761136	1198390.7617743	120.0	1.0	1198395.2182982
406.03271484375	0.0	100	831555	23	57	200	1	0	1198381.1920986	1198381.1925493	80	1198384.5253206	1198384.5257764	40	1198387.6541374	1198387.65465	100	del	1198390.2495802	1198390.761136	1198390.7617743	120.0	1.0	1198395.2182982
409.1396484375	0.0	120	837918	23	57	200	1	0	1198381.1920986	1198381.1925493	80	1198384.5253206	1198384.5257764	40	1198387.6541374	1198387.65465	100	del	1198390.2495802	1198390.761136	1198390.7617743	120.0	1.0	1198395.2182982
415.8125	0.0	80	851584	24	73	40	0	0	1198397.4342706	1198397.4346204	80	1198400.5025661	1198400.5030472	40	1198403.6502081	1198403.6506704	100	na	1198409.1135493	nan	nan	nan	nan	nan
418.88037109375	0.0	40	857867	24	73	40	0	0	1198397.4342706	1198397.4346204	80	1198400.5025661	1198400.5030472	40	1198403.6502081	1198403.6506704	100	na	1198409.1135493	nan	nan	nan	nan	nan
422.0283203125	0.0	100	864314	24	73	40	0	0	1198397.4342706	1198397.4346204	80	1198400.5025661	1198400.5030472	40	1198403.6502081	1198403.6506704	100	na	1198409.1135493	nan	nan	nan	nan	nan
430.13818359375	0.0	80	880923	25	90	26	1	0	1198411.7601793	1198411.7607228	80	1198414.9334594	1198414.933955	40	1198418.0232636	1198418.0237325	100	del	1198419.065674	1198419.5758927	1198419.5762573	120.0	3.0	1198424.6024568
433.31103515625	0.0	40	887421	25	90	26	1	0	1198411.7601793	1198411.7607228	80	1198414.9334594	1198414.933955	40	1198418.0232636	1198418.0237325	100	del	1198419.065674	1198419.5758927	1198419.5762573	120.0	3.0	1198424.6024568
436.40087890625	0.0	100	893749	25	90	26	1	0	1198411.7601793	1198411.7607228	80	1198414.9334594	1198414.933955	40	1198418.0232636	1198418.0237325	100	del	1198419.065674	1198419.5758927	1198419.5762573	120.0	3.0	1198424.6024568
437.953125	0.0	120	896928	25	90	26	1	0	1198411.7601793	1198411.7607228	80	1198414.9334594	1198414.933955	40	1198418.0232636	1198418.0237325	100	del	1198419.065674	1198419.5758927	1198419.5762573	120.0	3.0	1198424.6024568
445.16943359375	0.0	80	911707	26	97	270	1	0	1198426.7919388	1198426.7923864	80	1198429.8606606	1198429.8611779	40	1198433.3165476	1198433.3171916	100	del	1198434.2742018	1198434.7893749	1198434.789882	120.0	1.0	1198440.201513
448.23779296875	0.0	40	917991	26	97	270	1	0	1198426.7919388	1198426.7923864	80	1198429.8606606	1198429.8611779	40	1198433.3165476	1198433.3171916	100	del	1198434.2742018	1198434.7893749	1198434.789882	120.0	1.0	1198440.201513
451.69384765625	0.0	100	925069	26	97	270	1	0	1198426.7919388	1198426.7923864	80	1198429.8606606	1198429.8611779	40	1198433.3165476	1198433.3171916	100	del	1198434.2742018	1198434.7893749	1198434.789882	120.0	1.0	1198440.201513
453.16650390625	0.0	120	928085	26	97	270	1	0	1198426.7919388	1198426.7923864	80	1198429.8606606	1198429.8611779	40	1198433.3165476	1198433.3171916	100	del	1198434.2742018	1198434.7893749	1198434.789882	120.0	1.0	1198440.201513
460.638671875	0.0	80	943388	27	67	1120	0	0	1198442.26178	1198442.2621817	80	1198445.7343274	1198445.7348296	40	1198448.9469545	1198448.9474514	100	imm	1198450.1705941	nan	nan	nan	nan	nan
464.111328125	0.0	40	950500	27	67	1120	0	0	1198442.26178	1198442.2621817	80	1198445.7343274	1198445.7348296	40	1198448.9469545	1198448.9474514	100	imm	1198450.1705941	nan	nan	nan	nan	nan
467.32373046875	0.0	100	957079	27	67	1120	0	0	1198442.26178	1198442.2621817	80	1198445.7343274	1198445.7348296	40	1198448.9469545	1198448.9474514	100	imm	1198450.1705941	nan	nan	nan	nan	nan
471.0888671875	0.0	80	964790	28	50	60	1	1	1198452.7121988	1198452.712687	80	1198455.8914395	1198455.8918996	40	1198459.2730296	1198459.2735804	100	del	1198462.3698329	1198462.881568	1198462.8820013	120.0	2.0	1198465.0424755
474.26806640625	0.0	40	971301	28	50	60	1	1	1198452.7121988	1198452.712687	80	1198455.8914395	1198455.8918996	40	1198459.2730296	1198459.2735804	100	del	1198462.3698329	1198462.881568	1198462.8820013	120.0	2.0	1198465.0424755
477.6494140625	0.0	100	978226	28	50	60	1	1	1198452.7121988	1198452.712687	80	1198455.8914395	1198455.8918996	40	1198459.2730296	1198459.2735804	100	del	1198462.3698329	1198462.881568	1198462.8820013	120.0	2.0	1198465.0424755
481.2578125	0.0	120	985616	28	50	60	1	1	1198452.7121988	1198452.712687	80	1198455.8914395	1198455.8918996	40	1198459.2730296	1198459.2735804	100	del	1198462.3698329	1198462.881568	1198462.8820013	120.0	2.0	1198465.0424755
485.83154296875	0.0	80	994983	29	60	200	1	1	1198467.4552169	1198467.4556685	80	1198470.7358964	1198470.7364051	40	1198474.0922645	1198474.0927949	100	del	1198476.0577193	1198476.5677865	1198476.5682487	120.0	3.0	1198479.5143343
489.11181640625	0.0	40	1001701	29	60	200	1	1	1198467.4552169	1198467.4556685	80	1198470.7358964	1198470.7364051	40	1198474.0922645	1198474.0927949	100	del	1198476.0577193	1198476.5677865	1198476.5682487	120.0	3.0	1198479.5143343
492.46826171875	0.0	100	1008575	29	60	200	1	1	1198467.4552169	1198467.4556685	80	1198470.7358964	1198470.7364051	40	1198474.0922645	1198474.0927949	100	del	1198476.0577193	1198476.5677865	1198476.5682487	120.0	3.0	1198479.5143343
494.94384765625	0.0	120	1013645	29	60	200	1	1	1198467.4552169	1198467.4556685	80	1198470.7358964	1198470.7364051	40	1198474.0922645	1198474.0927949	100	del	1198476.0577193	1198476.5677865	1198476.5682487	120.0	3.0	1198479.5143343
500.35107421875	0.0	80	1024719	30	50	1120	0	0	1198481.9754647	1198481.9759438	80	1198485.0102538	1198485.0107564	40	1198488.1753997	1198488.1758374	100	imm	1198489.8180418	nan	nan	nan	nan	nan
503.3857421875	0.0	40	1030934	30	50	1120	0	0	1198481.9754647	1198481.9759438	80	1198485.0102538	1198485.0107564	40	1198488.1753997	1198488.1758374	100	imm	1198489.8180418	nan	nan	nan	nan	nan
506.55078125	0.0	100	1037416	30	50	1120	0	0	1198481.9754647	1198481.9759438	80	1198485.0102538	1198485.0107564	40	1198488.1753997	1198488.1758374	100	imm	1198489.8180418	nan	nan	nan	nan	nan
510.73388671875	0.0	80	1045983	31	80	26	1	1	1198492.3585996	1198492.3591062	80	1198495.4638482	1198495.4644703	40	1198498.8378564	1198498.8383745	100	imm	1198501.0259508	1198501.5389246	1198501.539391	120.0	2.0	1198504.3225142
513.83935546875	0.0	40	1052343	31	80	26	1	1	1198492.3585996	1198492.3591062	80	1198495.4638482	1198495.4644703	40	1198498.8378564	1198498.8383745	100	imm	1198501.0259508	1198501.5389246	1198501.539391	120.0	2.0	1198504.3225142
517.21337890625	0.0	100	1059253	31	80	26	1	1	1198492.3585996	1198492.3591062	80	1198495.4638482	1198495.4644703	40	1198498.8378564	1198498.8383745	100	imm	1198501.0259508	1198501.5389246	1198501.539391	120.0	2.0	1198504.3225142
519.9140625	0.0	120	1064784	31	80	26	1	1	1198492.3585996	1198492.3591062	80	1198495.4638482	1198495.4644703	40	1198498.8378564	1198498.8383745	100	imm	1198501.0259508	1198501.5389246	1198501.539391	120.0	2.0	1198504.3225142
525.07470703125	0.0	80	1075353	32	57	700	1	1	1198506.6995405	1198506.7000552	80	1198510.1459592	1198510.1466583	40	1198513.4549938	1198513.4554335	100	del	1198527.5939519	1198528.1055507	1198528.1059908	120.0	1.0	1198529.7697441
528.52099609375	0.0	40	1082411	32	57	700	1	1	1198506.6995405	1198506.7000552	80	1198510.1459592	1198510.1466583	40	1198513.4549938	1198513.4554335	100	del	1198527.5939519	1198528.1055507	1198528.1059908	120.0	1.0	1198529.7697441
531.830078125	0.0	100	1089188	32	57	700	1	1	1198506.6995405	1198506.7000552	80	1198510.1459592	1198510.1466583	40	1198513.4549938	1198513.4554335	100	del	1198527.5939519	1198528.1055507	1198528.1059908	120.0	1.0	1198529.7697441
546.47998046875	0.0	120	1119191	32	57	700	1	1	1198506.6995405	1198506.7000552	80	1198510.1459592	1198510.1466583	40	1198513.4549938	1198513.4554335	100	del	1198527.5939519	1198528.1055507	1198528.1059908	120.0	1.0	1198529.7697441
550.19482421875	0.0	80	1126799	33	70	1120	0	0	1198531.8203516	1198531.8208467	80	1198535.2891496	1198535.2896508	40	1198538.7027978	1198538.7033199	100	del	1198539.8662207	nan	nan	nan	nan	nan
553.66357421875	0.0	40	1133903	33	70	1120	0	0	1198531.8203516	1198531.8208467	80	1198535.2891496	1198535.2896508	40	1198538.7027978	1198538.7033199	100	del	1198539.8662207	nan	nan	nan	nan	nan
557.0771484375	0.0	100	1140894	33	70	1120	0	0	1198531.8203516	1198531.8208467	80	1198535.2891496	1198535.2896508	40	1198538.7027978	1198538.7033199	100	del	1198539.8662207	nan	nan	nan	nan	nan
560.90087890625	0.0	80	1148725	34	63	270	1	0	1198542.5266955	1198542.527095	80	1198545.8057749	1198545.8062646	40	1198549.3124195	1198549.3129296	100	del	1198553.8345259	1198554.3441474	1198554.3445086	120.0	1.0	1198556.9303313
564.1796875	0.0	40	1155440	34	63	270	1	0	1198542.5266955	1198542.527095	80	1198545.8057749	1198545.8062646	40	1198549.3124195	1198549.3129296	100	del	1198553.8345259	1198554.3441474	1198554.3445086	120.0	1.0	1198556.9303313
567.6865234375	0.0	100	1162622	34	63	270	1	0	1198542.5266955	1198542.527095	80	1198545.8057749	1198545.8062646	40	1198549.3124195	1198549.3129296	100	del	1198553.8345259	1198554.3441474	1198554.3445086	120.0	1.0	1198556.9303313
572.7177734375	0.0	120	1172926	34	63	270	1	0	1198542.5266955	1198542.527095	80	1198545.8057749	1198545.8062646	40	1198549.3124195	1198549.3129296	100	del	1198553.8345259	1198554.3441474	1198554.3445086	120.0	1.0	1198556.9303313
577.67431640625	0.0	80	1183077	35	57	240	0	1	1198559.3008063	1198559.3011123	80	1198562.7278718	1198562.7283608	40	1198565.9576196	1198565.9584453	100	del	1198581.0505914	nan	nan	nan	nan	nan
581.1015625	0.0	40	1190096	35	57	240	0	1	1198559.3008063	1198559.3011123	80	1198562.7278718	1198562.7283608	40	1198565.9576196	1198565.9584453	100	del	1198581.0505914	nan	nan	nan	nan	nan
584.3310546875	0.0	100	1196710	35	57	240	0	1	1198559.3008063	1198559.3011123	80	1198562.7278718	1198562.7283608	40	1198565.9576196	1198565.9584453	100	del	1198581.0505914	nan	nan	nan	nan	nan
602.17626953125	0.0	80	1233257	36	97	26	1	0	1198583.8035039	1198583.8039937	80	1198587.0925939	1198587.0930821	40	1198590.2402406	1198590.2407723	100	del	1198591.8022603	1198592.3158619	1198592.316373	120.0	2.0	1198596.2422318
605.46533203125	0.0	40	1239993	36	97	26	1	0	1198583.8035039	1198583.8039937	80	1198587.0925939	1198587.0930821	40	1198590.2402406	1198590.2407723	100	del	1198591.8022603	1198592.3158619	1198592.316373	120.0	2.0	1198596.2422318
608.61328125	0.0	100	1246440	36	97	26	1	0	1198583.8035039	1198583.8039937	80	1198587.0925939	1198587.0930821	40	1198590.2402406	1198590.2407723	100	del	1198591.8022603	1198592.3158619	1198592.316373	120.0	2.0	1198596.2422318
610.6884765625	0.0	120	1250690	36	97	26	1	0	1198583.8035039	1198583.8039937	80	1198587.0925939	1198587.0930821	40	1198590.2402406	1198590.2407723	100	del	1198591.8022603	1198592.3158619	1198592.316373	120.0	2.0	1198596.2422318
617.00341796875	0.0	80	1263623	37	67	40	0	0	1198598.6307022	1198598.6311072	80	1198601.8902224	1198601.8907361	40	1198605.2283325	1198605.22884	100	del	1198607.0991156	nan	nan	nan	nan	nan
620.2626953125	0.0	40	1270298	37	67	40	0	0	1198598.6307022	1198598.6311072	80	1198601.8902224	1198601.8907361	40	1198605.2283325	1198605.22884	100	del	1198607.0991156	nan	nan	nan	nan	nan
623.6005859375	0.0	100	1277134	37	67	40	0	0	1198598.6307022	1198598.6311072	80	1198601.8902224	1198601.8907361	40	1198605.2283325	1198605.22884	100	del	1198607.0991156	nan	nan	nan	nan	nan
628.1435546875	0.0	80	1286438	38	87	270	1	1	1198609.7711192	1198609.7716473	80	1198612.8483229	1198612.8488242	40	1198616.1002923	1198616.1007575	100	del	1198618.1542594	1198618.6632718	1198618.6635506	120.0	1.0	1198623.7874888
631.22021484375	0.0	40	1292739	38	87	270	1	1	1198609.7711192	1198609.7716473	80	1198612.8483229	1198612.8488242	40	1198616.1002923	1198616.1007575	100	del	1198618.1542594	1198618.6632718	1198618.6635506	120.0	1.0	1198623.7874888
634.47216796875	0.0	100	1299399	38	87	270	1	1	1198609.7711192	1198609.7716473	80	1198612.8483229	1198612.8488242	40	1198616.1002923	1198616.1007575	100	del	1198618.1542594	1198618.6632718	1198618.6635506	120.0	1.0	1198623.7874888
637.03515625	0.0	120	1304648	38	87	270	1	1	1198609.7711192	1198609.7716473	80	1198612.8483229	1198612.8488242	40	1198616.1002923	1198616.1007575	100	del	1198618.1542594	1198618.6632718	1198618.6635506	120.0	1.0	1198623.7874888
644.35546875	0.0	80	1319640	39	80	110	0	1	1198625.9838656	1198625.9844537	80	1198629.3857452	1198629.3862209	40	1198632.7895318	1198632.7900386	100	del	1198634.258601	nan	nan	nan	nan	nan
647.75732421875	0.0	40	1326607	39	80	110	0	1	1198625.9838656	1198625.9844537	80	1198629.3857452	1198629.3862209	40	1198632.7895318	1198632.7900386	100	del	1198634.258601	nan	nan	nan	nan	nan
651.1611328125	0.0	100	1333578	39	80	110	0	1	1198625.9838656	1198625.9844537	80	1198629.3857452	1198629.3862209	40	1198632.7895318	1198632.7900386	100	del	1198634.258601	nan	nan	nan	nan	nan
655.48193359375	0.0	80	1342427	40	93	440	0	1	1198637.1106322	1198637.1110954	80	1198640.185297	1198640.1858075	40	1198643.2093023	1198643.209774	100	del	1198646.7065138	nan	nan	nan	nan	nan
658.556640625	0.0	40	1348724	40	93	440	0	1	1198637.1106322	1198637.1110954	80	1198640.185297	1198640.1858075	40	1198643.2093023	1198643.209774	100	del	1198646.7065138	nan	nan	nan	nan	nan
661.58056640625	0.0	100	1354917	40	93	440	0	1	1198637.1106322	1198637.1110954	80	1198640.185297	1198640.1858075	40	1198643.2093023	1198643.209774	100	del	1198646.7065138	nan	nan	nan	nan	nan
720.25	0.0	80	1475072	41	83	200	1	0	1198701.8803743	1198701.8808287	80	1198705.0367085	1198705.036994	40	1198708.5190447	1198708.5195393	100	del	1198709.5379987	1198710.049137	1198710.0495043	120.0	3.0	1198713.1702355
723.40625	0.0	40	1481536	41	83	200	1	0	1198701.8803743	1198701.8808287	80	1198705.0367085	1198705.036994	40	1198708.5190447	1198708.5195393	100	del	1198709.5379987	1198710.049137	1198710.0495043	120.0	3.0	1198713.1702355
726.888671875	0.0	100	1488668	41	83	200	1	0	1198701.8803743	1198701.8808287	80	1198705.0367085	1198705.036994	40	1198708.5190447	1198708.5195393	100	del	1198709.5379987	1198710.049137	1198710.0495043	120.0	3.0	1198713.1702355
728.41845703125	0.0	120	1491801	41	83	200	1	0	1198701.8803743	1198701.8808287	80	1198705.0367085	1198705.036994	40	1198708.5190447	1198708.5195393	100	del	1198709.5379987	1198710.049137	1198710.0495043	120.0	3.0	1198713.1702355
734.044921875	0.0	80	1503324	42	77	110	0	1	1198715.6755531	1198715.6761018	80	1198718.8284452	1198718.8289895	40	1198722.2420504	1198722.2425511	100	na	1198726.9395428	nan	nan	nan	nan	nan
737.19775390625	0.0	40	1509781	42	77	110	0	1	1198715.6755531	1198715.6761018	80	1198718.8284452	1198718.8289895	40	1198722.2420504	1198722.2425511	100	na	1198726.9395428	nan	nan	nan	nan	nan
740.611328125	0.0	100	1516772	42	77	110	0	1	1198715.6755531	1198715.6761018	80	1198718.8284452	1198718.8289895	40	1198722.2420504	1198722.2425511	100	na	1198726.9395428	nan	nan	nan	nan	nan
748.27001953125	0.0	80	1532457	43	93	26	1	1	1198729.9012878	1198729.9016805	80	1198733.2075201	1198733.20802	40	1198736.6630585	1198736.6635607	100	del	1198737.6912897	1198738.1987983	1198738.1990375	120.0	2.0	1198740.6673153
751.576171875	0.0	40	1539228	43	93	26	1	1	1198729.9012878	1198729.9016805	80	1198733.2075201	1198733.20802	40	1198736.6630585	1198736.6635607	100	del	1198737.6912897	1198738.1987983	1198738.1990375	120.0	2.0	1198740.6673153
755.03173828125	0.0	100	1546305	43	93	26	1	1	1198729.9012878	1198729.9016805	80	1198733.2075201	1198733.20802	40	1198736.6630585	1198736.6635607	100	del	1198737.6912897	1198738.1987983	1198738.1990375	120.0	2.0	1198740.6673153
756.56787109375	0.0	120	1549451	43	93	26	1	1	1198729.9012878	1198729.9016805	80	1198733.2075201	1198733.20802	40	1198736.6630585	1198736.6635607	100	del	1198737.6912897	1198738.1987983	1198738.1990375	120.0	2.0	1198740.6673153
761.5244140625	0.0	80	1559602	44	87	440	0	0	1198743.1559979	1198743.156572	80	1198746.4386493	1198746.4391379	40	1198749.8155731	1198749.8160473	100	del	1198752.8106999	nan	nan	nan	nan	nan
764.80712890625	0.0	40	1566325	44	87	440	0	0	1198743.1559979	1198743.156572	80	1198746.4386493	1198746.4391379	40	1198749.8155731	1198749.8160473	100	del	1198752.8106999	nan	nan	nan	nan	nan
768.18408203125	0.0	100	1573241	44	87	440	0	0	1198743.1559979	1198743.156572	80	1198746.4386493	1198746.4391379	40	1198749.8155731	1198749.8160473	100	del	1198752.8106999	nan	nan	nan	nan	nan
773.98388671875	0.0	80	1585119	45	77	60	1	1	1198755.6158067	1198755.6163015	80	1198758.6372529	1198758.6377363	40	1198761.8701622	1198761.8705193	100	del	1198765.6660035	1198766.1754205	1198766.1757209	120.0	3.0	1198767.2899904
777.00537109375	0.0	40	1591307	45	77	60	1	1	1198755.6158067	1198755.6163015	80	1198758.6372529	1198758.6377363	40	1198761.8701622	1198761.8705193	100	del	1198765.6660035	1198766.1754205	1198766.1757209	120.0	3.0	1198767.2899904
780.23828125	0.0	100	1597928	45	77	60	1	1	1198755.6158067	1198755.6163015	80	1198758.6372529	1198758.6377363	40	1198761.8701622	1198761.8705193	100	del	1198765.6660035	1198766.1754205	1198766.1757209	120.0	3.0	1198767.2899904
784.54345703125	0.0	120	1606745	45	77	60	1	1	1198755.6158067	1198755.6163015	80	1198758.6372529	1198758.6377363	40	1198761.8701622	1198761.8705193	100	del	1198765.6660035	1198766.1754205	1198766.1757209	120.0	3.0	1198767.2899904
787.9970703125	0.0	80	1613818	46	83	240	0	1	1198769.6290673	1198769.629562	80	1198772.8971786	1198772.897664	40	1198776.0962153	1198776.096737	100	del	1198781.4818915	nan	nan	nan	nan	nan
791.2646484375	0.0	40	1620510	46	83	240	0	1	1198769.6290673	1198769.629562	80	1198772.8971786	1198772.897664	40	1198776.0962153	1198776.096737	100	del	1198781.4818915	nan	nan	nan	nan	nan
794.4638671875	0.0	100	1627062	46	83	240	0	1	1198769.6290673	1198769.629562	80	1198772.8971786	1198772.897664	40	1198776.0962153	1198776.096737	100	del	1198781.4818915	nan	nan	nan	nan	nan
802.83251953125	0.0	80	1644201	47	67	270	1	1	1198784.4651526	1198784.4655119	80	1198787.8873768	1198787.8878612	40	1198791.3285188	1198791.329003	100	imm	1198795.9867434	1198796.4995072	1198796.4999488	120.0	2.0	1198798.0179306
806.2548828125	0.0	40	1651210	47	67	270	1	1	1198784.4651526	1198784.4655119	80	1198787.8873768	1198787.8878612	40	1198791.3285188	1198791.329003	100	imm	1198795.9867434	1198796.4995072	1198796.4999488	120.0	2.0	1198798.0179306
809.69580078125	0.0	100	1658257	47	67	270	1	1	1198784.4651526	1198784.4655119	80	1198787.8873768	1198787.8878612	40	1198791.3285188	1198791.329003	100	imm	1198795.9867434	1198796.4995072	1198796.4999488	120.0	2.0	1198798.0179306
814.86669921875	0.0	120	1668847	47	67	270	1	1	1198784.4651526	1198784.4655119	80	1198787.8873768	1198787.8878612	40	1198791.3285188	1198791.329003	100	imm	1198795.9867434	1198796.4995072	1198796.4999488	120.0	2.0	1198798.0179306
818.58740234375	0.0	80	1676467	48	67	700	1	1	1198800.2203745	1198800.2208668	80	1198803.5247132	1198803.5251887	40	1198806.9739045	1198806.9744973	100	del	1198808.1549324	1198808.6679353	1198808.6684336	120.0	1.0	1198810.3949807
821.8916015625	0.0	40	1683234	48	67	700	1	1	1198800.2203745	1198800.2208668	80	1198803.5247132	1198803.5251887	40	1198806.9739045	1198806.9744973	100	del	1198808.1549324	1198808.6679353	1198808.6684336	120.0	1.0	1198810.3949807
825.3408203125	0.0	100	1690298	48	67	700	1	1	1198800.2203745	1198800.2208668	80	1198803.5247132	1198803.5251887	40	1198806.9739045	1198806.9744973	100	del	1198808.1549324	1198808.6679353	1198808.6684336	120.0	1.0	1198810.3949807
827.03466796875	0.0	120	1693767	48	67	700	1	1	1198800.2203745	1198800.2208668	80	1198803.5247132	1198803.5251887	40	1198806.9739045	1198806.9744973	100	del	1198808.1549324	1198808.6679353	1198808.6684336	120.0	1.0	1198810.3949807
831.2431640625	0.0	80	1702386	49	80	200	1	0	1198812.8765917	1198812.877032	80	1198816.2188993	1198816.2193945	40	1198819.3356214	1198819.3361166	100	del	1198820.7943367	1198821.3050401	1198821.3054271	120.0	3.0	1198821.8519377
834.58544921875	0.0	40	1709231	49	80	200	1	0	1198812.8765917	1198812.877032	80	1198816.2188993	1198816.2193945	40	1198819.3356214	1198819.3361166	100	del	1198820.7943367	1198821.3050401	1198821.3054271	120.0	3.0	1198821.8519377
837.7021484375	0.0	100	1715614	49	80	200	1	0	1198812.8765917	1198812.877032	80	1198816.2188993	1198816.2193945	40	1198819.3356214	1198819.3361166	100	del	1198820.7943367	1198821.3050401	1198821.3054271	120.0	3.0	1198821.8519377
839.67138671875	0.0	120	1719647	49	80	200	1	0	1198812.8765917	1198812.877032	80	1198816.2188993	1198816.2193945	40	1198819.3356214	1198819.3361166	100	del	1198820.7943367	1198821.3050401	1198821.3054271	120.0	3.0	1198821.8519377
842.55859375	0.0	80	1725560	50	70	700	1	0	1198824.1923242	1198824.1928346	80	1198827.2335135	1198827.2338557	40	1198830.4490751	1198830.4495478	100	del	1198831.7301255	1198832.2402295	1198832.2405271	120.0	2.0	1198836.3867696
845.599609375	0.0	40	1731788	50	70	700	1	0	1198824.1923242	1198824.1928346	80	1198827.2335135	1198827.2338557	40	1198830.4490751	1198830.4495478	100	del	1198831.7301255	1198832.2402295	1198832.2405271	120.0	2.0	1198836.3867696
848.8154296875	0.0	100	1738374	50	70	700	1	0	1198824.1923242	1198824.1928346	80	1198827.2335135	1198827.2338557	40	1198830.4490751	1198830.4495478	100	del	1198831.7301255	1198832.2402295	1198832.2405271	120.0	2.0	1198836.3867696
850.6064453125	0.0	120	1742042	50	70	700	1	0	1198824.1923242	1198824.1928346	80	1198827.2335135	1198827.2338557	40	1198830.4490751	1198830.4495478	100	del	1198831.7301255	1198832.2402295	1198832.2405271	120.0	2.0	1198836.3867696
857.099609375	0.0	80	1755340	51	57	270	1	1	1198838.733841	1198838.7342082	80	1198842.2082483	1198842.208686	40	1198845.6280472	1198845.6285508	100	del	1198851.4343323	1198851.9441488	1198851.9444169	120.0	1.0	1198857.2347198
860.57421875	0.0	40	1762456	51	57	270	1	1	1198838.733841	1198838.7342082	80	1198842.2082483	1198842.208686	40	1198845.6280472	1198845.6285508	100	del	1198851.4343323	1198851.9441488	1198851.9444169	120.0	1.0	1198857.2347198
863.99365234375	0.0	100	1769459	51	57	270	1	1	1198838.733841	1198838.7342082	80	1198842.2082483	1198842.208686	40	1198845.6280472	1198845.6285508	100	del	1198851.4343323	1198851.9441488	1198851.9444169	120.0	1.0	1198857.2347198
870.3095703125	0.0	120	1782394	51	57	270	1	1	1198838.733841	1198838.7342082	80	1198842.2082483	1198842.208686	40	1198845.6280472	1198845.6285508	100	del	1198851.4343323	1198851.9441488	1198851.9444169	120.0	1.0	1198857.2347198
877.85693359375	0.0	80	1797851	52	53	110	0	0	1198859.4917616	1198859.4922701	80	1198862.8779596	1198862.8784706	40	1198866.0994516	1198866.0999858	100	del	1198869.4838945	nan	nan	nan	nan	nan
881.2431640625	0.0	40	1804786	52	53	110	0	0	1198859.4917616	1198859.4922701	80	1198862.8779596	1198862.8784706	40	1198866.0994516	1198866.0999858	100	del	1198869.4838945	nan	nan	nan	nan	nan
884.46484375	0.0	100	1811384	52	53	110	0	0	1198859.4917616	1198859.4922701	80	1198862.8779596	1198862.8784706	40	1198866.0994516	1198866.0999858	100	del	1198869.4838945	nan	nan	nan	nan	nan
890.8515625	0.0	80	1824464	53	67	240	0	0	1198872.4865788	1198872.4870848	80	1198875.9895712	1198875.9900583	40	1198879.434719	1198879.4352116	100	imm	1198880.2902118	nan	nan	nan	nan	nan
894.3544921875	0.0	40	1831638	53	67	240	0	0	1198872.4865788	1198872.4870848	80	1198875.9895712	1198875.9900583	40	1198879.434719	1198879.4352116	100	imm	1198880.2902118	nan	nan	nan	nan	nan
897.79931640625	0.0	100	1838693	53	67	240	0	0	1198872.4865788	1198872.4870848	80	1198875.9895712	1198875.9900583	40	1198879.434719	1198879.4352116	100	imm	1198880.2902118	nan	nan	nan	nan	nan
901.36572265625	0.0	80	1845997	54	53	270	1	1	1198883.0012246	1198883.0017055	80	1198886.236164	1198886.2366424	40	1198889.3731504	1198889.3736798	100	imm	1198891.6659638	1198892.1790684	1198892.1795544	120.0	1.0	1198899.2917707
904.6005859375	0.0	40	1852622	54	53	270	1	1	1198883.0012246	1198883.0017055	80	1198886.236164	1198886.2366424	40	1198889.3731504	1198889.3736798	100	imm	1198891.6659638	1198892.1790684	1198892.1795544	120.0	1.0	1198899.2917707
907.73779296875	0.0	100	1859047	54	53	270	1	1	1198883.0012246	1198883.0017055	80	1198886.236164	1198886.2366424	40	1198889.3731504	1198889.3736798	100	imm	1198891.6659638	1198892.1790684	1198892.1795544	120.0	1.0	1198899.2917707
910.54345703125	0.0	120	1864793	54	53	270	1	1	1198883.0012246	1198883.0017055	80	1198886.236164	1198886.2366424	40	1198889.3731504	1198889.3736798	100	imm	1198891.6659638	1198892.1790684	1198892.1795544	120.0	1.0	1198899.2917707
920.06298828125	0.0	80	1884289	55	63	40	0	0	1198901.6988634	1198901.699319	80	1198905.1476387	1198905.1481046	40	1198908.6173761	1198908.6178684	100	del	1198915.1799331	nan	nan	nan	nan	nan
923.51171875	0.0	40	1891352	55	63	40	0	0	1198901.6988634	1198901.699319	80	1198905.1476387	1198905.1481046	40	1198908.6173761	1198908.6178684	100	del	1198915.1799331	nan	nan	nan	nan	nan
926.9814453125	0.0	100	1898458	55	63	40	0	0	1198901.6988634	1198901.699319	80	1198905.1476387	1198905.1481046	40	1198908.6173761	1198908.6178684	100	del	1198915.1799331	nan	nan	nan	nan	nan
936.34130859375	0.0	80	1917627	56	83	26	1	1	1198917.9775552	1198917.9780412	80	1198921.2852276	1198921.28568	40	1198924.3732326	1198924.3737157	100	del	1198925.6348422	1198926.1448693	1198926.1453532	120.0	1.0	1198930.2746948
939.64892578125	0.0	40	1924401	56	83	26	1	1	1198917.9775552	1198917.9780412	80	1198921.2852276	1198921.28568	40	1198924.3732326	1198924.3737157	100	del	1198925.6348422	1198926.1448693	1198926.1453532	120.0	1.0	1198930.2746948
942.73681640625	0.0	100	1930725	56	83	26	1	1	1198917.9775552	1198917.9780412	80	1198921.2852276	1198921.28568	40	1198924.3732326	1198924.3737157	100	del	1198925.6348422	1198926.1448693	1198926.1453532	120.0	1.0	1198930.2746948
944.50830078125	0.0	120	1934353	56	83	26	1	1	1198917.9775552	1198917.9780412	80	1198921.2852276	1198921.28568	40	1198924.3732326	1198924.3737157	100	del	1198925.6348422	1198926.1448693	1198926.1453532	120.0	1.0	1198930.2746948
951.1025390625	0.0	80	1947858	57	97	40	0	1	1198932.7391398	1198932.7396028	80	1198935.9718028	1198935.9722928	40	1198939.0883115	1198939.0887427	100	del	1198950.1623466	nan	nan	nan	nan	nan
954.3349609375	0.0	40	1954478	57	97	40	0	1	1198932.7391398	1198932.7396028	80	1198935.9718028	1198935.9722928	40	1198939.0883115	1198939.0887427	100	del	1198950.1623466	nan	nan	nan	nan	nan
957.45166015625	0.0	100	1960861	57	97	40	0	1	1198932.7391398	1198932.7396028	80	1198935.9718028	1198935.9722928	40	1198939.0883115	1198939.0887427	100	del	1198950.1623466	nan	nan	nan	nan	nan
971.49462890625	0.0	80	1989621	58	80	440	0	1	1198953.1317546	1198953.1322851	80	1198956.520623	1198956.5211067	40	1198959.9753943	1198959.9758723	100	imm	1198962.4825385	nan	nan	nan	nan	nan
974.88330078125	0.0	40	1996561	58	80	440	0	1	1198953.1317546	1198953.1322851	80	1198956.520623	1198956.5211067	40	1198959.9753943	1198959.9758723	100	imm	1198962.4825385	nan	nan	nan	nan	nan
978.337890625	0.0	100	2003636	58	80	440	0	1	1198953.1317546	1198953.1322851	80	1198956.520623	1198956.5211067	40	1198959.9753943	1198959.9758723	100	imm	1198962.4825385	nan	nan	nan	nan	nan
983.50439453125	0.0	80	2014217	59	70	60	1	1	1198965.14215	1198965.1426351	80	1198968.4867932	1198968.4873307	40	1198971.8327037	1198971.8331519	100	del	1198976.4276874	1198976.9383203	1198976.9387237	120.0	3.0	1198979.9548571
986.84912109375	0.0	40	2021067	59	70	60	1	1	1198965.14215	1198965.1426351	80	1198968.4867932	1198968.4873307	40	1198971.8327037	1198971.8331519	100	del	1198976.4276874	1198976.9383203	1198976.9387237	120.0	3.0	1198979.9548571
990.19482421875	0.0	100	2027919	59	70	60	1	1	1198965.14215	1198965.1426351	80	1198968.4867932	1198968.4873307	40	1198971.8327037	1198971.8331519	100	del	1198976.4276874	1198976.9383203	1198976.9387237	120.0	3.0	1198979.9548571
995.30029296875	0.0	120	2038375	59	70	60	1	1	1198965.14215	1198965.1426351	80	1198968.4867932	1198968.4873307	40	1198971.8327037	1198971.8331519	100	del	1198976.4276874	1198976.9383203	1198976.9387237	120.0	3.0	1198979.9548571
1000.39013671875	0.0	80	2048799	60	57	110	0	1	1198982.0284109	1198982.0287562	80	1198985.2391621	1198985.2396132	40	1198988.3900927	1198988.3905858	100	del	1199005.8905692	nan	nan	nan	nan	nan
1003.60107421875	0.0	40	2055375	60	57	110	0	1	1198982.0284109	1198982.0287562	80	1198985.2391621	1198985.2396132	40	1198988.3900927	1198988.3905858	100	del	1199005.8905692	nan	nan	nan	nan	nan
1006.751953125	0.0	100	2061828	60	57	110	0	1	1198982.0284109	1198982.0287562	80	1198985.2391621	1198985.2396132	40	1198988.3900927	1198988.3905858	100	del	1199005.8905692	nan	nan	nan	nan	nan
1072.79248046875	0.0	80	2197079	61	73	26	1	0	1199054.4324495	1199054.4329542	80	1199057.5823107	1199057.582818	40	1199061.0443197	1199061.0448516	100	del	1199062.2119756	1199062.7226172	1199062.7229404	120.0	2.0	1199067.4429305
1075.9423828125	0.0	40	2203530	61	73	26	1	0	1199054.4324495	1199054.4329542	80	1199057.5823107	1199057.582818	40	1199061.0443197	1199061.0448516	100	del	1199062.2119756	1199062.7226172	1199062.7229404	120.0	2.0	1199067.4429305
1079.404296875	0.0	100	2210620	61	73	26	1	0	1199054.4324495	1199054.4329542	80	1199057.5823107	1199057.582818	40	1199061.0443197	1199061.0448516	100	del	1199062.2119756	1199062.7226172	1199062.7229404	120.0	2.0	1199067.4429305
1081.08251953125	0.0	120	2214057	61	73	26	1	0	1199054.4324495	1199054.4329542	80	1199057.5823107	1199057.582818	40	1199061.0443197	1199061.0448516	100	del	1199062.2119756	1199062.7226172	1199062.7229404	120.0	2.0	1199067.4429305
1088.2314453125	0.0	80	2228698	62	93	1120	0	1	1199069.8720098	1199069.8724967	80	1199073.074472	1199073.0749513	40	1199076.3373376	1199076.3378198	100	del	1199077.9071731	nan	nan	nan	nan	nan
1091.43408203125	0.0	40	2235257	62	93	1120	0	1	1199069.8720098	1199069.8724967	80	1199073.074472	1199073.0749513	40	1199076.3373376	1199076.3378198	100	del	1199077.9071731	nan	nan	nan	nan	nan
1094.69677734375	0.0	100	2241939	62	93	1120	0	1	1199069.8720098	1199069.8724967	80	1199073.074472	1199073.0749513	40	1199076.3373376	1199076.3378198	100	del	1199077.9071731	nan	nan	nan	nan	nan
1099.13134765625	0.0	80	2251021	63	80	700	1	1	1199080.7721	1199080.772605	80	1199084.1971271	1199084.1975542	40	1199087.5179102	1199087.5185176	100	del	1199088.7226964	1199089.2367333	1199089.2372627	120.0	3.0	1199091.1948697
1102.55615234375	0.0	40	2258035	63	80	700	1	1	1199080.7721	1199080.772605	80	1199084.1971271	1199084.1975542	40	1199087.5179102	1199087.5185176	100	del	1199088.7226964	1199089.2367333	1199089.2372627	120.0	3.0	1199091.1948697
1105.876953125	0.0	100	2264836	63	80	700	1	1	1199080.7721	1199080.772605	80	1199084.1971271	1199084.1975542	40	1199087.5179102	1199087.5185176	100	del	1199088.7226964	1199089.2367333	1199089.2372627	120.0	3.0	1199091.1948697
1107.595703125	0.0	120	2268356	63	80	700	1	1	1199080.7721	1199080.772605	80	1199084.1971271	1199084.1975542	40	1199087.5179102	1199087.5185176	100	del	1199088.7226964	1199089.2367333	1199089.2372627	120.0	3.0	1199091.1948697
1111.85595703125	0.0	80	2277081	64	70	200	1	1	1199093.4970779	1199093.4977045	80	1199096.6664105	1199096.6667487	40	1199099.9075205	1199099.9080202	100	del	1199105.0029382	1199105.5151257	1199105.5155899	120.0	3.0	1199107.6349684
1115.02490234375	0.0	40	2283571	64	70	200	1	1	1199093.4970779	1199093.4977045	80	1199096.6664105	1199096.6667487	40	1199099.9075205	1199099.9080202	100	del	1199105.0029382	1199105.5151257	1199105.5155899	120.0	3.0	1199107.6349684
1118.26611328125	0.0	100	2290209	64	70	200	1	1	1199093.4970779	1199093.4977045	80	1199096.6664105	1199096.6667487	40	1199099.9075205	1199099.9080202	100	del	1199105.0029382	1199105.5151257	1199105.5155899	120.0	3.0	1199107.6349684
1123.87353515625	0.0	120	2301693	64	70	200	1	1	1199093.4970779	1199093.4977045	80	1199096.6664105	1199096.6667487	40	1199099.9075205	1199099.9080202	100	del	1199105.0029382	1199105.5151257	1199105.5155899	120.0	3.0	1199107.6349684
1128.3642578125	0.0	80	2310890	65	90	200	1	0	1199110.005765	1199110.0062011	80	1199113.4553934	1199113.4558896	40	1199116.8299729	1199116.8304679	100	imm	1199117.7468625	1199118.2568467	1199118.2572041	120.0	3.0	1199123.4742517
1131.81396484375	0.0	40	2317955	65	90	200	1	0	1199110.005765	1199110.0062011	80	1199113.4553934	1199113.4558896	40	1199116.8299729	1199116.8304679	100	imm	1199117.7468625	1199118.2568467	1199118.2572041	120.0	3.0	1199123.4742517
1135.18798828125	0.0	100	2324865	65	90	200	1	0	1199110.005765	1199110.0062011	80	1199113.4553934	1199113.4558896	40	1199116.8299729	1199116.8304679	100	imm	1199117.7468625	1199118.2568467	1199118.2572041	120.0	3.0	1199123.4742517
1136.61474609375	0.0	120	2327787	65	90	200	1	0	1199110.005765	1199110.0062011	80	1199113.4553934	1199113.4558896	40	1199116.8299729	1199116.8304679	100	imm	1199117.7468625	1199118.2568467	1199118.2572041	120.0	3.0	1199123.4742517
1143.857421875	0.0	80	2342620	66	60	440	0	0	1199125.4994528	1199125.4999279	80	1199128.8454483	1199128.8460107	40	1199132.0782879	1199132.0788204	100	imm	1199141.394596	nan	nan	nan	nan	nan
1147.20361328125	0.0	40	2349473	66	60	440	0	0	1199125.4994528	1199125.4999279	80	1199128.8454483	1199128.8460107	40	1199132.0782879	1199132.0788204	100	imm	1199141.394596	nan	nan	nan	nan	nan
1150.43603515625	0.0	100	2356093	66	60	440	0	0	1199125.4994528	1199125.4999279	80	1199128.8454483	1199128.8460107	40	1199132.0782879	1199132.0788204	100	imm	1199141.394596	nan	nan	nan	nan	nan
1162.48828125	0.0	80	2380776	67	77	40	0	0	1199144.1305748	1199144.131088	80	1199147.1965834	1199147.1970526	40	1199150.6132251	1199150.6135825	100	del	1199151.3865111	nan	nan	nan	nan	nan
1165.55419921875	0.0	40	2387055	67	77	40	0	0	1199144.1305748	1199144.131088	80	1199147.1965834	1199147.1970526	40	1199150.6132251	1199150.6135825	100	del	1199151.3865111	nan	nan	nan	nan	nan
1168.97021484375	0.0	100	2394051	67	77	40	0	0	1199144.1305748	1199144.131088	80	1199147.1965834	1199147.1970526	40	1199150.6132251	1199150.6135825	100	del	1199151.3865111	nan	nan	nan	nan	nan
1172.42431640625	0.0	80	2401125	68	83	1120	0	1	1199154.0671059	1199154.0675338	80	1199157.1978943	1199157.1983477	40	1199160.3826681	1199160.3831678	100	imm	1199181.0203056	nan	nan	nan	nan	nan
1175.55517578125	0.0	40	2407537	68	83	1120	0	1	1199154.0671059	1199154.0675338	80	1199157.1978943	1199157.1983477	40	1199160.3826681	1199160.3831678	100	imm	1199181.0203056	nan	nan	nan	nan	nan
1178.73974609375	0.0	100	2414059	68	83	1120	0	1	1199154.0671059	1199154.0675338	80	1199157.1978943	1199157.1983477	40	1199160.3826681	1199160.3831678	100	imm	1199181.0203056	nan	nan	nan	nan	nan
1202.08203125	0.0	80	2461864	69	57	40	0	1	1199183.7255645	1199183.7260429	80	1199187.0065858	1199187.0070866	40	1199190.3006343	1199190.3011165	100	del	1199197.5072721	nan	nan	nan	nan	nan
1205.36279296875	0.0	40	2468583	69	57	40	0	1	1199183.7255645	1199183.7260429	80	1199187.0065858	1199187.0070866	40	1199190.3006343	1199190.3011165	100	del	1199197.5072721	nan	nan	nan	nan	nan
1208.65673828125	0.0	100	2475329	69	57	40	0	1	1199183.7255645	1199183.7260429	80	1199187.0065858	1199187.0070866	40	1199190.3006343	1199190.3011165	100	del	1199197.5072721	nan	nan	nan	nan	nan
1218.57861328125	0.0	80	2495649	70	80	60	1	1	1199200.2229101	1199200.2233174	80	1199203.4294084	1199203.4298547	40	1199206.7002094	1199206.7007479	100	del	1199207.6028205	1199208.1132161	1199208.1136818	120.0	1.0	1199210.3001005
1221.78515625	0.0	40	2502216	70	80	60	1	1	1199200.2229101	1199200.2233174	80	1199203.4294084	1199203.4298547	40	1199206.7002094	1199206.7007479	100	del	1199207.6028205	1199208.1132161	1199208.1136818	120.0	1.0	1199210.3001005
1225.05615234375	0.0	100	2508915	70	80	60	1	1	1199200.2229101	1199200.2233174	80	1199203.4294084	1199203.4298547	40	1199206.7002094	1199206.7007479	100	del	1199207.6028205	1199208.1132161	1199208.1136818	120.0	1.0	1199210.3001005
1226.46875	0.0	120	2511808	70	80	60	1	1	1199200.2229101	1199200.2233174	80	1199203.4294084	1199203.4298547	40	1199206.7002094	1199206.7007479	100	del	1199207.6028205	1199208.1132161	1199208.1136818	120.0	1.0	1199210.3001005
1231.0009765625	0.0	80	2521090	71	60	270	1	0	1199212.6454343	1199212.6458878	80	1199216.128482	1199216.1290135	40	1199219.5031664	1199219.503649	100	del	1199223.1466437	1199223.6580307	1199223.6584871	120.0	2.0	1199225.3065502
1234.48388671875	0.0	40	2528223	71	60	270	1	0	1199212.6454343	1199212.6458878	80	1199216.128482	1199216.1290135	40	1199219.5031664	1199219.503649	100	del	1199223.1466437	1199223.6580307	1199223.6584871	120.0	2.0	1199225.3065502
1237.8583984375	0.0	100	2535134	71	60	270	1	0	1199212.6454343	1199212.6458878	80	1199216.128482	1199216.1290135	40	1199219.5031664	1199219.503649	100	del	1199223.1466437	1199223.6580307	1199223.6584871	120.0	2.0	1199225.3065502
1242.01318359375	0.0	120	2543643	71	60	270	1	0	1199212.6454343	1199212.6458878	80	1199216.128482	1199216.1290135	40	1199219.5031664	1199219.503649	100	del	1199223.1466437	1199223.6580307	1199223.6584871	120.0	2.0	1199225.3065502
1245.87353515625	0.0	80	2551549	72	90	440	0	0	1199227.5184812	1199227.5188069	80	1199230.9418793	1199230.9424663	40	1199234.0227069	1199234.0231927	100	del	1199238.8509308	nan	nan	nan	nan	nan
1249.296875	0.0	40	2558560	72	90	440	0	0	1199227.5184812	1199227.5188069	80	1199230.9418793	1199230.9424663	40	1199234.0227069	1199234.0231927	100	del	1199238.8509308	nan	nan	nan	nan	nan
1252.3779296875	0.0	100	2564870	72	90	440	0	0	1199227.5184812	1199227.5188069	80	1199230.9418793	1199230.9424663	40	1199234.0227069	1199234.0231927	100	del	1199238.8509308	nan	nan	nan	nan	nan
1259.7490234375	0.0	80	2579966	73	90	700	1	0	1199241.3940952	1199241.3944301	80	1199244.4436841	1199244.4442066	40	1199247.539898	1199247.5403884	100	del	1199249.0587038	1199249.5687944	1199249.5691124	120.0	3.0	1199250.2431725
1262.79833984375	0.0	40	2586211	73	90	700	1	0	1199241.3940952	1199241.3944301	80	1199244.4436841	1199244.4442066	40	1199247.539898	1199247.5403884	100	del	1199249.0587038	1199249.5687944	1199249.5691124	120.0	3.0	1199250.2431725
1265.89453125	0.0	100	2592552	73	90	700	1	0	1199241.3940952	1199241.3944301	80	1199244.4436841	1199244.4442066	40	1199247.539898	1199247.5403884	100	del	1199249.0587038	1199249.5687944	1199249.5691124	120.0	3.0	1199250.2431725
1267.92333984375	0.0	120	2596707	73	90	700	1	0	1199241.3940952	1199241.3944301	80	1199244.4436841	1199244.4442066	40	1199247.539898	1199247.5403884	100	del	1199249.0587038	1199249.5687944	1199249.5691124	120.0	3.0	1199250.2431725
1270.77197265625	0.0	80	2602541	74	53	1120	0	0	1199252.41778	1199252.4180548	80	1199255.5758911	1199255.5764003	40	1199258.5953718	1199258.5958574	100	imm	1199262.3308932	nan	nan	nan	nan	nan
1273.93017578125	0.0	40	2609009	74	53	1120	0	0	1199252.41778	1199252.4180548	80	1199255.5758911	1199255.5764003	40	1199258.5953718	1199258.5958574	100	imm	1199262.3308932	nan	nan	nan	nan	nan
1276.94970703125	0.0	100	2615193	74	53	1120	0	0	1199252.41778	1199252.4180548	80	1199255.5758911	1199255.5764003	40	1199258.5953718	1199258.5958574	100	imm	1199262.3308932	nan	nan	nan	nan	nan
1283.4736328125	0.0	80	2628554	75	83	700	1	0	1199265.1192234	1199265.119806	80	1199268.1744494	1199268.1749167	40	1199271.2620862	1199271.2626006	100	del	1199275.882346	1199276.3950207	1199276.3954569	120.0	2.0	1199278.3944265
1286.5283203125	0.0	40	2634810	75	83	700	1	0	1199265.1192234	1199265.119806	80	1199268.1744494	1199268.1749167	40	1199271.2620862	1199271.2626006	100	del	1199275.882346	1199276.3950207	1199276.3954569	120.0	2.0	1199278.3944265
1289.6162109375	0.0	100	2641134	75	83	700	1	0	1199265.1192234	1199265.119806	80	1199268.1744494	1199268.1749167	40	1199271.2620862	1199271.2626006	100	del	1199275.882346	1199276.3950207	1199276.3954569	120.0	2.0	1199278.3944265
1294.7490234375	0.0	120	2651646	75	83	700	1	0	1199265.1192234	1199265.119806	80	1199268.1744494	1199268.1749167	40	1199271.2620862	1199271.2626006	100	del	1199275.882346	1199276.3950207	1199276.3954569	120.0	2.0	1199278.3944265
1299.07470703125	0.0	80	2660505	76	53	26	1	1	1199280.7211676	1199280.7214681	80	1199284.1582411	1199284.1587418	40	1199287.6581775	1199287.6586715	100	del	1199289.1870096	1199289.7000619	1199289.7005343	120.0	1.0	1199290.5723921
1302.51171875	0.0	40	2667544	76	53	26	1	1	1199280.7211676	1199280.7214681	80	1199284.1582411	1199284.1587418	40	1199287.6581775	1199287.6586715	100	del	1199289.1870096	1199289.7000619	1199289.7005343	120.0	1.0	1199290.5723921
1306.01171875	0.0	100	2674712	76	53	26	1	1	1199280.7211676	1199280.7214681	80	1199284.1582411	1199284.1587418	40	1199287.6581775	1199287.6586715	100	del	1199289.1870096	1199289.7000619	1199289.7005343	120.0	1.0	1199290.5723921
1308.0537109375	0.0	120	2678894	76	53	26	1	1	1199280.7211676	1199280.7214681	80	1199284.1582411	1199284.1587418	40	1199287.6581775	1199287.6586715	100	del	1199289.1870096	1199289.7000619	1199289.7005343	120.0	1.0	1199290.5723921
1311.22216796875	0.0	80	2685383	77	73	700	1	1	1199292.8682686	1199292.8684358	80	1199296.3739397	1199296.3745938	40	1199299.6646409	1199299.6651447	100	del	1199302.435205	1199302.9475112	1199302.9479339	120.0	2.0	1199304.5872702
1314.72705078125	0.0	40	2692561	77	73	700	1	1	1199292.8682686	1199292.8684358	80	1199296.3739397	1199296.3745938	40	1199299.6646409	1199299.6651447	100	del	1199302.435205	1199302.9475112	1199302.9479339	120.0	2.0	1199304.5872702
1318.01806640625	0.0	100	2699301	77	73	700	1	1	1199292.8682686	1199292.8684358	80	1199296.3739397	1199296.3745938	40	1199299.6646409	1199299.6651447	100	del	1199302.435205	1199302.9475112	1199302.9479339	120.0	2.0	1199304.5872702
1321.30078125	0.0	120	2706024	77	73	700	1	1	1199292.8682686	1199292.8684358	80	1199296.3739397	1199296.3745938	40	1199299.6646409	1199299.6651447	100	del	1199302.435205	1199302.9475112	1199302.9479339	120.0	2.0	1199304.5872702
1325.212890625	0.0	80	2714036	78	100	200	1	0	1199306.8597725	1199306.860264	80	1199310.0326938	1199310.0331821	40	1199313.2615537	1199313.2620615	100	del	1199314.2837931	1199314.7976744	1199314.7981697	120.0	2.0	1199316.8026495
1328.3857421875	0.0	40	2720534	78	100	200	1	0	1199306.8597725	1199306.860264	80	1199310.0326938	1199310.0331821	40	1199313.2615537	1199313.2620615	100	del	1199314.2837931	1199314.7976744	1199314.7981697	120.0	2.0	1199316.8026495
1331.6142578125	0.0	100	2727146	78	100	200	1	0	1199306.8597725	1199306.860264	80	1199310.0326938	1199310.0331821	40	1199313.2615537	1199313.2620615	100	del	1199314.2837931	1199314.7976744	1199314.7981697	120.0	2.0	1199316.8026495
1333.150390625	0.0	120	2730292	78	100	200	1	0	1199306.8597725	1199306.860264	80	1199310.0326938	1199310.0331821	40	1199313.2615537	1199313.2620615	100	del	1199314.2837931	1199314.7976744	1199314.7981697	120.0	2.0	1199316.8026495
1337.4169921875	0.0	80	2739030	79	87	240	0	0	1199319.0645178	1199319.0650017	80	1199322.1081033	1199322.1085986	40	1199325.5649853	1199325.5654846	100	del	1199330.5794119	nan	nan	nan	nan	nan
1340.4609375	0.0	40	2745264	79	87	240	0	0	1199319.0645178	1199319.0650017	80	1199322.1081033	1199322.1085986	40	1199325.5649853	1199325.5654846	100	del	1199330.5794119	nan	nan	nan	nan	nan
1343.91748046875	0.0	100	2752343	79	87	240	0	0	1199319.0645178	1199319.0650017	80	1199322.1081033	1199322.1085986	40	1199325.5649853	1199325.5654846	100	del	1199330.5794119	nan	nan	nan	nan	nan
1351.48095703125	0.0	80	2767833	80	73	110	0	1	1199333.1286334	1199333.1291074	80	1199336.3547768	1199336.3552682	40	1199339.7814752	1199339.781859	100	del	1199342.9954488	nan	nan	nan	nan	nan
1354.70703125	0.0	40	2774440	80	73	110	0	1	1199333.1286334	1199333.1291074	80	1199336.3547768	1199336.3552682	40	1199339.7814752	1199339.781859	100	del	1199342.9954488	nan	nan	nan	nan	nan
1358.13330078125	0.0	100	2781457	80	73	110	0	1	1199333.1286334	1199333.1291074	80	1199336.3547768	1199336.3552682	40	1199339.7814752	1199339.781859	100	del	1199342.9954488	nan	nan	nan	nan	nan
1425.31005859375	0.0	80	2919035	81	50	200	1	0	1199406.9596463	1199406.960139	80	1199410.2747104	1199410.2752227	40	1199413.6979207	1199413.698429	100	imm	1199415.5872352	1199416.0963914	1199416.0966849	120.0	1.0	1199419.554755
1428.625	0.0	40	2925824	81	50	200	1	0	1199406.9596463	1199406.960139	80	1199410.2747104	1199410.2752227	40	1199413.6979207	1199413.698429	100	imm	1199415.5872352	1199416.0963914	1199416.0966849	120.0	1.0	1199419.554755
1432.0478515625	0.0	100	2932834	81	50	200	1	0	1199406.9596463	1199406.960139	80	1199410.2747104	1199410.2752227	40	1199413.6979207	1199413.698429	100	imm	1199415.5872352	1199416.0963914	1199416.0966849	120.0	1.0	1199419.554755
1434.4462890625	0.0	120	2937746	81	50	200	1	0	1199406.9596463	1199406.960139	80	1199410.2747104	1199410.2752227	40	1199413.6979207	1199413.698429	100	imm	1199415.5872352	1199416.0963914	1199416.0966849	120.0	1.0	1199419.554755
1440.36181640625	0.0	80	2949861	82	87	110	0	1	1199422.0118942	1199422.0124015	80	1199425.4848643	1199425.4853719	40	1199428.5944458	1199428.5949748	100	del	1199429.6028649	nan	nan	nan	nan	nan
1443.83447265625	0.0	40	2956973	82	87	110	0	1	1199422.0118942	1199422.0124015	80	1199425.4848643	1199425.4853719	40	1199428.5944458	1199428.5949748	100	del	1199429.6028649	nan	nan	nan	nan	nan
1446.9443359375	0.0	100	2963342	82	87	110	0	1	1199422.0118942	1199422.0124015	80	1199425.4848643	1199425.4853719	40	1199428.5944458	1199428.5949748	100	del	1199429.6028649	nan	nan	nan	nan	nan
1450.59912109375	0.0	80	2970827	83	97	200	1	1	1199432.2495076	1199432.2499974	80	1199435.7046198	1199435.704955	40	1199439.0141897	1199439.0146886	100	del	1199440.0509679	1199440.5617473	1199440.5621884	120.0	3.0	1199442.1711286
1454.05419921875	0.0	40	2977903	83	97	200	1	1	1199432.2495076	1199432.2499974	80	1199435.7046198	1199435.704955	40	1199439.0141897	1199439.0146886	100	del	1199440.0509679	1199440.5617473	1199440.5621884	120.0	3.0	1199442.1711286
1457.36376953125	0.0	100	2984681	83	97	200	1	1	1199432.2495076	1199432.2499974	80	1199435.7046198	1199435.704955	40	1199439.0141897	1199439.0146886	100	del	1199440.0509679	1199440.5617473	1199440.5621884	120.0	3.0	1199442.1711286
1458.9111328125	0.0	120	2987850	83	97	200	1	1	1199432.2495076	1199432.2499974	80	1199435.7046198	1199435.704955	40	1199439.0141897	1199439.0146886	100	del	1199440.0509679	1199440.5617473	1199440.5621884	120.0	3.0	1199442.1711286
1462.7880859375	0.0	80	2995790	84	63	700	1	1	1199444.4388204	1199444.4394164	80	1199447.7517102	1199447.7520399	40	1199451.1752522	1199451.1757944	100	imm	1199453.4924184	1199454.0019331	1199454.0022727	120.0	2.0	1199460.7554135
1466.1005859375	0.0	40	3002574	84	63	700	1	1	1199444.4388204	1199444.4394164	80	1199447.7517102	1199447.7520399	40	1199451.1752522	1199451.1757944	100	imm	1199453.4924184	1199454.0019331	1199454.0022727	120.0	2.0	1199460.7554135
1469.5244140625	0.0	100	3009586	84	63	700	1	1	1199444.4388204	1199444.4394164	80	1199447.7517102	1199447.7520399	40	1199451.1752522	1199451.1757944	100	imm	1199453.4924184	1199454.0019331	1199454.0022727	120.0	2.0	1199460.7554135
1472.3505859375	0.0	120	3015374	84	63	700	1	1	1199444.4388204	1199444.4394164	80	1199447.7517102	1199447.7520399	40	1199451.1752522	1199451.1757944	100	imm	1199453.4924184	1199454.0019331	1199454.0022727	120.0	2.0	1199460.7554135
1481.3818359375	0.0	80	3033870	85	87	40	0	1	1199463.0334286	1199463.0336818	80	1199466.1424202	1199466.1429126	40	1199469.3823464	1199469.3828677	100	del	1199472.642518	nan	nan	nan	nan	nan
1484.4912109375	0.0	40	3040238	85	87	40	0	1	1199463.0334286	1199463.0336818	80	1199466.1424202	1199466.1429126	40	1199469.3823464	1199469.3828677	100	del	1199472.642518	nan	nan	nan	nan	nan
1487.73095703125	0.0	100	3046873	85	87	40	0	1	1199463.0334286	1199463.0336818	80	1199466.1424202	1199466.1429126	40	1199469.3823464	1199469.3828677	100	del	1199472.642518	nan	nan	nan	nan	nan
1493.72265625	0.0	80	3059144	86	73	60	1	1	1199475.3742191	1199475.3746987	80	1199478.8661047	1199478.8666112	40	1199482.1894721	1199482.1900186	100	del	1199483.6204201	1199484.1310943	1199484.1314921	120.0	3.0	1199486.1707704
1497.21435546875	0.0	40	3066295	86	73	60	1	1	1199475.3742191	1199475.3746987	80	1199478.8661047	1199478.8666112	40	1199482.1894721	1199482.1900186	100	del	1199483.6204201	1199484.1310943	1199484.1314921	120.0	3.0	1199486.1707704
1500.53759765625	0.0	100	3073101	86	73	60	1	1	1199475.3742191	1199475.3746987	80	1199478.8661047	1199478.8666112	40	1199482.1894721	1199482.1900186	100	del	1199483.6204201	1199484.1310943	1199484.1314921	120.0	3.0	1199486.1707704
1502.47900390625	0.0	120	3077077	86	73	60	1	1	1199475.3742191	1199475.3746987	80	1199478.8661047	1199478.8666112	40	1199482.1894721	1199482.1900186	100	del	1199483.6204201	1199484.1310943	1199484.1314921	120.0	3.0	1199486.1707704
1506.8828125	0.0	80	3086096	87	93	240	0	1	1199488.5345616	1199488.5350436	80	1199491.9033203	1199491.9038378	40	1199495.0902086	1199495.090721	100	del	1199513.5713993	nan	nan	nan	nan	nan
1510.25146484375	0.0	40	3092995	87	93	240	0	1	1199488.5345616	1199488.5350436	80	1199491.9033203	1199491.9038378	40	1199495.0902086	1199495.090721	100	del	1199513.5713993	nan	nan	nan	nan	nan
1513.43798828125	0.0	100	3099521	87	93	240	0	1	1199488.5345616	1199488.5350436	80	1199491.9033203	1199491.9038378	40	1199495.0902086	1199495.090721	100	del	1199513.5713993	nan	nan	nan	nan	nan
1534.693359375	0.0	80	3143052	88	97	240	0	1	1199516.3462357	1199516.3466701	80	1199519.6336235	1199519.6340652	40	1199522.7258548	1199522.7263846	100	del	1199523.9392854	nan	nan	nan	nan	nan
1537.98095703125	0.0	40	3149785	88	97	240	0	1	1199516.3462357	1199516.3466701	80	1199519.6336235	1199519.6340652	40	1199522.7258548	1199522.7263846	100	del	1199523.9392854	nan	nan	nan	nan	nan
1541.07275390625	0.0	100	3156117	88	97	240	0	1	1199516.3462357	1199516.3466701	80	1199519.6336235	1199519.6340652	40	1199522.7258548	1199522.7263846	100	del	1199523.9392854	nan	nan	nan	nan	nan
1545.0859375	0.0	80	3164336	89	90	240	0	1	1199526.7387452	1199526.739286	80	1199530.0936017	1199530.0942041	40	1199533.3206286	1199533.3211442	100	del	1199534.1232165	nan	nan	nan	nan	nan
1548.4404296875	0.0	40	3171206	89	90	240	0	1	1199526.7387452	1199526.739286	80	1199530.0936017	1199530.0942041	40	1199533.3206286	1199533.3211442	100	del	1199534.1232165	nan	nan	nan	nan	nan
1551.66748046875	0.0	100	3177815	89	90	240	0	1	1199526.7387452	1199526.739286	80	1199530.0936017	1199530.0942041	40	1199533.3206286	1199533.3211442	100	del	1199534.1232165	nan	nan	nan	nan	nan
1555.4033203125	0.0	80	3185466	90	70	40	0	1	1199537.0566537	1199537.0571303	80	1199540.4309529	1199540.4314641	40	1199543.6236852	1199543.6241754	100	del	1199544.3395635	nan	nan	nan	nan	nan
1558.77734375	0.0	40	3192376	90	70	40	0	1	1199537.0566537	1199537.0571303	80	1199540.4309529	1199540.4314641	40	1199543.6236852	1199543.6241754	100	del	1199544.3395635	nan	nan	nan	nan	nan
1561.97021484375	0.0	100	3198915	90	70	40	0	1	1199537.0566537	1199537.0571303	80	1199540.4309529	1199540.4314641	40	1199543.6236852	1199543.6241754	100	del	1199544.3395635	nan	nan	nan	nan	nan
1565.4306640625	0.0	80	3206002	91	63	240	0	0	1199547.0844699	1199547.0848804	80	1199550.2850449	1199550.2855116	40	1199553.6859632	1199553.6864388	100	imm	1199556.5870777	nan	nan	nan	nan	nan
1568.63134765625	0.0	40	3212557	91	63	240	0	0	1199547.0844699	1199547.0848804	80	1199550.2850449	1199550.2855116	40	1199553.6859632	1199553.6864388	100	imm	1199556.5870777	nan	nan	nan	nan	nan
1572.0322265625	0.0	100	3219522	91	63	240	0	0	1199547.0844699	1199547.0848804	80	1199550.2850449	1199550.2855116	40	1199553.6859632	1199553.6864388	100	imm	1199556.5870777	nan	nan	nan	nan	nan
1577.81787109375	0.0	80	3231371	92	70	110	0	0	1199559.4716103	1199559.4720946	80	1199562.6954329	1199562.6959301	40	1199566.0549157	1199566.0554334	100	del	1199570.0033078	nan	nan	nan	nan	nan
1581.04150390625	0.0	40	3237973	92	70	110	0	0	1199559.4716103	1199559.4720946	80	1199562.6954329	1199562.6959301	40	1199566.0549157	1199566.0554334	100	del	1199570.0033078	nan	nan	nan	nan	nan
1584.40087890625	0.0	100	3244853	92	70	110	0	0	1199559.4716103	1199559.4720946	80	1199562.6954329	1199562.6959301	40	1199566.0549157	1199566.0554334	100	del	1199570.0033078	nan	nan	nan	nan	nan
1591.33984375	0.0	80	3259064	93	100	1120	0	0	1199572.9941927	1199572.9946381	80	1199576.3939402	1199576.3943789	40	1199579.7602989	1199579.760761	100	imm	1199587.1951647	nan	nan	nan	nan	nan
1594.73974609375	0.0	40	3266027	93	100	1120	0	0	1199572.9941927	1199572.9946381	80	1199576.3939402	1199576.3943789	40	1199579.7602989	1199579.760761	100	imm	1199587.1951647	nan	nan	nan	nan	nan
1598.10595703125	0.0	100	3272921	93	100	1120	0	0	1199572.9941927	1199572.9946381	80	1199576.3939402	1199576.3943789	40	1199579.7602989	1199579.760761	100	imm	1199587.1951647	nan	nan	nan	nan	nan
1608.11181640625	0.0	80	3293413	94	93	270	1	0	1199589.7665385	1199589.7670042	80	1199592.9689903	1199592.9694772	40	1199596.2801802	1199596.2806905	100	del	1199597.523491	1199598.0370533	1199598.0375356	120.0	3.0	1199598.6286324
1611.31396484375	0.0	40	3299971	94	93	270	1	0	1199589.7665385	1199589.7670042	80	1199592.9689903	1199592.9694772	40	1199596.2801802	1199596.2806905	100	del	1199597.523491	1199598.0370533	1199598.0375356	120.0	3.0	1199598.6286324
1614.62548828125	0.0	100	3306753	94	93	270	1	0	1199589.7665385	1199589.7670042	80	1199592.9689903	1199592.9694772	40	1199596.2801802	1199596.2806905	100	del	1199597.523491	1199598.0370533	1199598.0375356	120.0	3.0	1199598.6286324
1616.3818359375	0.0	120	3310350	94	93	270	1	0	1199589.7665385	1199589.7670042	80	1199592.9689903	1199592.9694772	40	1199596.2801802	1199596.2806905	100	del	1199597.523491	1199598.0370533	1199598.0375356	120.0	3.0	1199598.6286324
1619.21435546875	0.0	80	3316151	95	53	240	0	0	1199600.8696372	1199600.8700844	80	1199603.9023487	1199603.9028813	40	1199607.0308571	1199607.0313339	100	imm	1199612.8833763	nan	nan	nan	nan	nan
1622.2470703125	0.0	40	3322362	95	53	240	0	0	1199600.8696372	1199600.8700844	80	1199603.9023487	1199603.9028813	40	1199607.0308571	1199607.0313339	100	imm	1199612.8833763	nan	nan	nan	nan	nan
1625.37548828125	0.0	100	3328769	95	53	240	0	0	1199600.8696372	1199600.8700844	80	1199603.9023487	1199603.9028813	40	1199607.0308571	1199607.0313339	100	imm	1199612.8833763	nan	nan	nan	nan	nan
1634.162109375	0.0	80	3346764	96	60	60	1	1	1199615.8176163	1199615.8181231	80	1199618.8318195	1199618.8321392	40	1199622.2768335	1199622.2773485	100	del	1199623.2593608	1199623.7697186	1199623.7700618	120.0	1.0	1199625.8281514
1637.17626953125	0.0	40	3352937	96	60	60	1	1	1199615.8176163	1199615.8181231	80	1199618.8318195	1199618.8321392	40	1199622.2768335	1199622.2773485	100	del	1199623.2593608	1199623.7697186	1199623.7700618	120.0	1.0	1199625.8281514
1640.62109375	0.0	100	3359992	96	60	60	1	1	1199615.8176163	1199615.8181231	80	1199618.8318195	1199618.8321392	40	1199622.2768335	1199622.2773485	100	del	1199623.2593608	1199623.7697186	1199623.7700618	120.0	1.0	1199625.8281514
1642.11376953125	0.0	120	3363049	96	60	60	1	1	1199615.8176163	1199615.8181231	80	1199618.8318195	1199618.8321392	40	1199622.2768335	1199622.2773485	100	del	1199623.2593608	1199623.7697186	1199623.7700618	120.0	1.0	1199625.8281514
1646.22314453125	0.0	80	3371465	97	77	700	1	0	1199627.879168	1199627.8794968	80	1199631.2211816	1199631.2216552	40	1199634.4846076	1199634.4852568	100	del	1199637.2914019	1199637.8034409	1199637.8038888	120.0	3.0	1199638.411341
1649.5654296875	0.0	40	3378310	97	77	700	1	0	1199627.879168	1199627.8794968	80	1199631.2211816	1199631.2216552	40	1199634.4846076	1199634.4852568	100	del	1199637.2914019	1199637.8034409	1199637.8038888	120.0	3.0	1199638.411341
1652.82861328125	0.0	100	3384993	97	77	700	1	0	1199627.879168	1199627.8794968	80	1199631.2211816	1199631.2216552	40	1199634.4846076	1199634.4852568	100	del	1199637.2914019	1199637.8034409	1199637.8038888	120.0	3.0	1199638.411341
1656.1474609375	0.0	120	3391790	97	77	700	1	0	1199627.879168	1199627.8794968	80	1199631.2211816	1199631.2216552	40	1199634.4846076	1199634.4852568	100	del	1199637.2914019	1199637.8034409	1199637.8038888	120.0	3.0	1199638.411341
1658.87548828125	0.0	80	3397377	98	63	26	1	1	1199640.5315587	1199640.5331178	80	1199643.8265238	1199643.8270279	40	1199646.9007119	1199646.9013339	100	na	1199650.1153476	1199650.6243736	1199650.6247409	120.0	4.0	1199656.490948
1662.17041015625	0.0	40	3404125	98	63	26	1	1	1199640.5315587	1199640.5331178	80	1199643.8265238	1199643.8270279	40	1199646.9007119	1199646.9013339	100	na	1199650.1153476	1199650.6243736	1199650.6247409	120.0	4.0	1199656.490948
1665.24462890625	0.0	100	3410421	98	63	26	1	1	1199640.5315587	1199640.5331178	80	1199643.8265238	1199643.8270279	40	1199646.9007119	1199646.9013339	100	na	1199650.1153476	1199650.6243736	1199650.6247409	120.0	4.0	1199656.490948
1668.9677734375	0.0	120	3418046	98	63	26	1	1	1199640.5315587	1199640.5331178	80	1199643.8265238	1199643.8270279	40	1199646.9007119	1199646.9013339	100	na	1199650.1153476	1199650.6243736	1199650.6247409	120.0	4.0	1199656.490948
1677.18603515625	0.0	80	3434877	99	53	40	0	1	1199658.8429507	1199658.8434337	80	1199662.1505989	1199662.1510789	40	1199665.1923366	1199665.19281	100	del	1199666.2910693	nan	nan	nan	nan	nan
1680.49365234375	0.0	40	3441651	99	53	40	0	1	1199658.8429507	1199658.8434337	80	1199662.1505989	1199662.1510789	40	1199665.1923366	1199665.19281	100	del	1199666.2910693	nan	nan	nan	nan	nan
1683.53564453125	0.0	100	3447881	99	53	40	0	1	1199658.8429507	1199658.8434337	80	1199662.1505989	1199662.1510789	40	1199665.1923366	1199665.19281	100	del	1199666.2910693	nan	nan	nan	nan	nan
1687.1806640625	0.0	80	3455346	100	100	40	0	0	1199668.8374722	1199668.837959	80	1199671.9211961	1199671.9216574	40	1199674.9391788	1199674.9394143	100	del	1199679.7874254	nan	nan	nan	nan	nan
1690.26416015625	0.0	40	3461661	100	100	40	0	0	1199668.8374722	1199668.837959	80	1199671.9211961	1199671.9216574	40	1199674.9391788	1199674.9394143	100	del	1199679.7874254	nan	nan	nan	nan	nan
1693.2822265625	0.0	100	3467842	100	100	40	0	0	1199668.8374722	1199668.837959	80	1199671.9211961	1199671.9216574	40	1199674.9391788	1199674.9394143	100	del	1199679.7874254	nan	nan	nan	nan	nan
1783.75439453125	0.0	80	3653129	101	70	26	1	0	1199765.4140533	1199765.414342	80	1199768.8384047	1199768.8389148	40	1199772.1607554	1199772.1612521	100	del	1199773.0751356	1199773.5883405	1199773.5888943	120.0	2.0	1199775.9634885
1787.1787109375	0.0	40	3660142	101	70	26	1	0	1199765.4140533	1199765.414342	80	1199768.8384047	1199768.8389148	40	1199772.1607554	1199772.1612521	100	del	1199773.0751356	1199773.5883405	1199773.5888943	120.0	2.0	1199775.9634885
1790.5009765625	0.0	100	3666946	101	70	26	1	0	1199765.4140533	1199765.414342	80	1199768.8384047	1199768.8389148	40	1199772.1607554	1199772.1612521	100	del	1199773.0751356	1199773.5883405	1199773.5888943	120.0	2.0	1199775.9634885
1791.9287109375	0.0	120	3669870	101	70	26	1	0	1199765.4140533	1199765.414342	80	1199768.8384047	1199768.8389148	40	1199772.1607554	1199772.1612521	100	del	1199773.0751356	1199773.5883405	1199773.5888943	120.0	2.0	1199775.9634885
1796.58251953125	0.0	80	3679401	102	57	60	1	1	1199778.2425041	1199778.2430301	80	1199781.6805619	1199781.6808976	40	1199784.7429189	1199784.7433768	100	del	1199786.5070723	1199787.0160188	1199787.0163328	120.0	1.0	1199789.8350502
1800.0205078125	0.0	40	3686442	102	57	60	1	1	1199778.2425041	1199778.2430301	80	1199781.6805619	1199781.6808976	40	1199784.7429189	1199784.7433768	100	del	1199786.5070723	1199787.0160188	1199787.0163328	120.0	1.0	1199789.8350502
1803.0830078125	0.0	100	3692714	102	57	60	1	1	1199778.2425041	1199778.2430301	80	1199781.6805619	1199781.6808976	40	1199784.7429189	1199784.7433768	100	del	1199786.5070723	1199787.0160188	1199787.0163328	120.0	1.0	1199789.8350502
1805.35595703125	0.0	120	3697369	102	57	60	1	1	1199778.2425041	1199778.2430301	80	1199781.6805619	1199781.6808976	40	1199784.7429189	1199784.7433768	100	del	1199786.5070723	1199787.0160188	1199787.0163328	120.0	1.0	1199789.8350502
1810.64501953125	0.0	80	3708201	103	80	240	0	1	1199792.3053581	1199792.3058502	80	1199795.3669944	1199795.3679776	40	1199798.6393761	1199798.6398818	100	del	1199808.8518618	nan	nan	nan	nan	nan
1813.70654296875	0.0	40	3714471	103	80	240	0	1	1199792.3053581	1199792.3058502	80	1199795.3669944	1199795.3679776	40	1199798.6393761	1199798.6398818	100	del	1199808.8518618	nan	nan	nan	nan	nan
1816.97900390625	0.0	100	3721173	103	80	240	0	1	1199792.3053581	1199792.3058502	80	1199795.3669944	1199795.3679776	40	1199798.6393761	1199798.6398818	100	del	1199808.8518618	nan	nan	nan	nan	nan
1829.77880859375	0.0	80	3747387	104	90	270	1	0	1199811.439507	1199811.4400187	80	1199814.726663	1199814.7271557	40	1199817.7419147	1199817.7423922	100	del	1199818.7477686	1199819.2606516	1199819.26138	120.0	1.0	1199824.2116686
1833.06591796875	0.0	40	3754119	104	90	270	1	0	1199811.439507	1199811.4400187	80	1199814.726663	1199814.7271557	40	1199817.7419147	1199817.7423922	100	del	1199818.7477686	1199819.2606516	1199819.26138	120.0	1.0	1199824.2116686
1836.0810546875	0.0	100	3760294	104	90	270	1	0	1199811.439507	1199811.4400187	80	1199814.726663	1199814.7271557	40	1199817.7419147	1199817.7423922	100	del	1199818.7477686	1199819.2606516	1199819.26138	120.0	1.0	1199824.2116686
1837.599609375	0.0	120	3763404	104	90	270	1	0	1199811.439507	1199811.4400187	80	1199814.726663	1199814.7271557	40	1199817.7419147	1199817.7423922	100	del	1199818.7477686	1199819.2606516	1199819.26138	120.0	1.0	1199824.2116686
1844.9453125	0.0	80	3778448	105	73	240	0	1	1199826.6066741	1199826.6070266	80	1199830.0380615	1199830.0385559	40	1199833.509521	1199833.5100109	100	del	1199838.1319699	nan	nan	nan	nan	nan
1848.37646484375	0.0	40	3785475	105	73	240	0	1	1199826.6066741	1199826.6070266	80	1199830.0380615	1199830.0385559	40	1199833.509521	1199833.5100109	100	del	1199838.1319699	nan	nan	nan	nan	nan
1851.84814453125	0.0	100	3792585	105	73	240	0	1	1199826.6066741	1199826.6070266	80	1199830.0380615	1199830.0385559	40	1199833.509521	1199833.5100109	100	del	1199838.1319699	nan	nan	nan	nan	nan
1859.48095703125	0.0	80	3808217	106	87	200	1	0	1199841.1425484	1199841.1429207	80	1199844.4032816	1199844.4037714	40	1199847.5525194	1199847.5529877	100	imm	1199853.0437196	1199853.552393	1199853.5527285	120.0	2.0	1199856.1796817
1862.74169921875	0.0	40	3814895	106	87	200	1	0	1199841.1425484	1199841.1429207	80	1199844.4032816	1199844.4037714	40	1199847.5525194	1199847.5529877	100	imm	1199853.0437196	1199853.552393	1199853.5527285	120.0	2.0	1199856.1796817
1865.890625	0.0	100	3821344	106	87	200	1	0	1199841.1425484	1199841.1429207	80	1199844.4032816	1199844.4037714	40	1199847.5525194	1199847.5529877	100	imm	1199853.0437196	1199853.552393	1199853.5527285	120.0	2.0	1199856.1796817
1871.89013671875	0.0	120	3833631	106	87	200	1	0	1199841.1425484	1199841.1429207	80	1199844.4032816	1199844.4037714	40	1199847.5525194	1199847.5529877	100	imm	1199853.0437196	1199853.552393	1199853.5527285	120.0	2.0	1199856.1796817
1876.5830078125	0.0	80	3843242	107	100	60	1	0	1199858.245065	1199858.245523	80	1199861.506411	1199861.5069507	40	1199864.8129371	1199864.8134091	100	na	1199871.6910798	1199872.2035062	1199872.2039689	120.0	4.0	1199875.0989881
1879.84423828125	0.0	40	3849921	107	100	60	1	0	1199858.245065	1199858.245523	80	1199861.506411	1199861.5069507	40	1199864.8129371	1199864.8134091	100	na	1199871.6910798	1199872.2035062	1199872.2039689	120.0	4.0	1199875.0989881
1883.150390625	0.0	100	3856692	107	100	60	1	0	1199858.245065	1199858.245523	80	1199861.506411	1199861.5069507	40	1199864.8129371	1199864.8134091	100	na	1199871.6910798	1199872.2035062	1199872.2039689	120.0	4.0	1199875.0989881
1890.541015625	0.0	120	3871828	107	100	60	1	0	1199858.245065	1199858.245523	80	1199861.506411	1199861.5069507	40	1199864.8129371	1199864.8134091	100	na	1199871.6910798	1199872.2035062	1199872.2039689	120.0	4.0	1199875.0989881
1895.83056640625	0.0	80	3882661	108	70	440	0	0	1199877.4934224	1199877.4937589	80	1199880.5423914	1199880.542881	40	1199883.8861114	1199883.8865983	100	imm	1199886.3158501	nan	nan	nan	nan	nan
1898.87939453125	0.0	40	3888905	108	70	440	0	0	1199877.4934224	1199877.4937589	80	1199880.5423914	1199880.542881	40	1199883.8861114	1199883.8865983	100	imm	1199886.3158501	nan	nan	nan	nan	nan
1902.22314453125	0.0	100	3895753	108	70	440	0	0	1199877.4934224	1199877.4937589	80	1199880.5423914	1199880.542881	40	1199883.8861114	1199883.8865983	100	imm	1199886.3158501	nan	nan	nan	nan	nan
1907.4287109375	0.0	80	3906414	109	83	270	1	0	1199889.0915282	1199889.0932261	80	1199892.1856181	1199892.1861312	40	1199895.6675129	1199895.6680658	100	del	1199897.1317398	1199897.64168	1199897.6420085	120.0	2.0	1199903.7397468
1910.5224609375	0.0	40	3912750	109	83	270	1	0	1199889.0915282	1199889.0932261	80	1199892.1856181	1199892.1861312	40	1199895.6675129	1199895.6680658	100	del	1199897.1317398	1199897.64168	1199897.6420085	120.0	2.0	1199903.7397468
1914.00439453125	0.0	100	3919881	109	83	270	1	0	1199889.0915282	1199889.0932261	80	1199892.1856181	1199892.1861312	40	1199895.6675129	1199895.6680658	100	del	1199897.1317398	1199897.64168	1199897.6420085	120.0	2.0	1199903.7397468
1915.978515625	0.0	120	3923924	109	83	270	1	0	1199889.0915282	1199889.0932261	80	1199892.1856181	1199892.1861312	40	1199895.6675129	1199895.6680658	100	del	1199897.1317398	1199897.64168	1199897.6420085	120.0	2.0	1199903.7397468
1924.3818359375	0.0	80	3941134	110	100	700	1	1	1199906.0452082	1199906.0455317	80	1199909.2730291	1199909.2735169	40	1199912.7573036	1199912.7577898	100	del	1199914.0754806	1199914.5866301	1199914.5870816	120.0	2.0	1199918.4673721
1927.609375	0.0	40	3947744	110	100	700	1	1	1199906.0452082	1199906.0455317	80	1199909.2730291	1199909.2735169	40	1199912.7573036	1199912.7577898	100	del	1199914.0754806	1199914.5866301	1199914.5870816	120.0	2.0	1199918.4673721
1931.09375	0.0	100	3954880	110	100	700	1	1	1199906.0452082	1199906.0455317	80	1199909.2730291	1199909.2735169	40	1199912.7573036	1199912.7577898	100	del	1199914.0754806	1199914.5866301	1199914.5870816	120.0	2.0	1199918.4673721
1932.9228515625	0.0	120	3958626	110	100	700	1	1	1199906.0452082	1199906.0455317	80	1199909.2730291	1199909.2735169	40	1199912.7573036	1199912.7577898	100	del	1199914.0754806	1199914.5866301	1199914.5870816	120.0	2.0	1199918.4673721
1939.1474609375	0.0	80	3971374	111	50	270	1	1	1199920.8115449	1199920.8121014	80	1199924.0439881	1199924.0443434	40	1199927.4772903	1199927.4778016	100	imm	1199929.9714258	1199930.4813903	1199930.4817595	120.0	3.0	1199935.7233352
1942.3798828125	0.0	40	3977994	111	50	270	1	1	1199920.8115449	1199920.8121014	80	1199924.0439881	1199924.0443434	40	1199927.4772903	1199927.4778016	100	imm	1199929.9714258	1199930.4813903	1199930.4817595	120.0	3.0	1199935.7233352
1945.81298828125	0.0	100	3985025	111	50	270	1	1	1199920.8115449	1199920.8121014	80	1199924.0439881	1199924.0443434	40	1199927.4772903	1199927.4778016	100	imm	1199929.9714258	1199930.4813903	1199930.4817595	120.0	3.0	1199935.7233352
1948.8173828125	0.0	120	3991178	111	50	270	1	1	1199920.8115449	1199920.8121014	80	1199924.0439881	1199924.0443434	40	1199927.4772903	1199927.4778016	100	imm	1199929.9714258	1199930.4813903	1199930.4817595	120.0	3.0	1199935.7233352
1956.3369140625	0.0	80	4006578	112	53	60	1	0	1199938.001387	1199938.0017451	80	1199941.285694	1199941.2861928	40	1199944.6392013	1199944.6397257	100	imm	1199945.4993564	1199946.0094616	1199946.0097669	120.0	1.0	1199947.4116284
1959.62109375	0.0	40	4013304	112	53	60	1	0	1199938.001387	1199938.0017451	80	1199941.285694	1199941.2861928	40	1199944.6392013	1199944.6397257	100	imm	1199945.4993564	1199946.0094616	1199946.0097669	120.0	1.0	1199947.4116284
1962.974609375	0.0	100	4020172	112	53	60	1	0	1199938.001387	1199938.0017451	80	1199941.285694	1199941.2861928	40	1199944.6392013	1199944.6397257	100	imm	1199945.4993564	1199946.0094616	1199946.0097669	120.0	1.0	1199947.4116284
1964.3447265625	0.0	120	4022978	112	53	60	1	0	1199938.001387	1199938.0017451	80	1199941.285694	1199941.2861928	40	1199944.6392013	1199944.6397257	100	imm	1199945.4993564	1199946.0094616	1199946.0097669	120.0	1.0	1199947.4116284
1967.9462890625	0.0	80	4030354	113	80	40	0	0	1199949.6112051	1199949.6116636	80	1199952.738297	1199952.738716	40	1199956.0410151	1199956.0415111	100	del	1199956.5322365	nan	nan	nan	nan	nan
1971.07373046875	0.0	40	4036759	113	80	40	0	0	1199949.6112051	1199949.6116636	80	1199952.738297	1199952.738716	40	1199956.0410151	1199956.0415111	100	del	1199956.5322365	nan	nan	nan	nan	nan
1974.3759765625	0.0	100	4043522	113	80	40	0	0	1199949.6112051	1199949.6116636	80	1199952.738297	1199952.738716	40	1199956.0410151	1199956.0415111	100	del	1199956.5322365	nan	nan	nan	nan	nan
1977.81884765625	0.0	80	4050573	114	67	440	0	0	1199959.4835618	1199959.4839725	80	1199962.6942589	1199962.6947548	40	1199965.763889	1199965.764587	100	del	1199972.2998671	nan	nan	nan	nan	nan
1981.029296875	0.0	40	4057148	114	67	440	0	0	1199959.4835618	1199959.4839725	80	1199962.6942589	1199962.6947548	40	1199965.763889	1199965.764587	100	del	1199972.2998671	nan	nan	nan	nan	nan
1984.09912109375	0.0	100	4063435	114	67	440	0	0	1199959.4835618	1199959.4839725	80	1199962.6942589	1199962.6947548	40	1199965.763889	1199965.764587	100	del	1199972.2998671	nan	nan	nan	nan	nan
1993.37353515625	0.0	80	4082429	115	83	440	0	1	1199975.0390575	1199975.039516	80	1199978.1980271	1199978.198508	40	1199981.4116097	1199981.412184	100	del	1199983.2192094	nan	nan	nan	nan	nan
1996.53271484375	0.0	40	4088899	115	83	440	0	1	1199975.0390575	1199975.039516	80	1199978.1980271	1199978.198508	40	1199981.4116097	1199981.412184	100	del	1199983.2192094	nan	nan	nan	nan	nan
1999.74609375	0.0	100	4095480	115	83	440	0	1	1199975.0390575	1199975.039516	80	1199978.1980271	1199978.198508	40	1199981.4116097	1199981.412184	100	del	1199983.2192094	nan	nan	nan	nan	nan
2004.48779296875	0.0	80	4105191	116	87	26	1	0	1199986.1535572	1199986.1540638	80	1199989.3632486	1199989.363716	40	1199992.5714402	1199992.5719143	100	del	1200000.4832426	1200000.993528	1200000.9940061	120.0	2.0	1200001.3873709
2007.697265625	0.0	40	4111764	116	87	26	1	0	1199986.1535572	1199986.1540638	80	1199989.3632486	1199989.363716	40	1199992.5714402	1199992.5719143	100	del	1200000.4832426	1200000.993528	1200000.9940061	120.0	2.0	1200001.3873709
2010.90576171875	0.0	100	4118335	116	87	26	1	0	1199986.1535572	1199986.1540638	80	1199989.3632486	1199989.363716	40	1199992.5714402	1199992.5719143	100	del	1200000.4832426	1200000.993528	1200000.9940061	120.0	2.0	1200001.3873709
2019.32763671875	0.0	120	4135583	116	87	26	1	0	1199986.1535572	1199986.1540638	80	1199989.3632486	1199989.363716	40	1199992.5714402	1199992.5719143	100	del	1200000.4832426	1200000.993528	1200000.9940061	120.0	2.0	1200001.3873709
2021.91650390625	0.0	80	4140885	117	67	60	1	0	1200003.58246	1200003.5828696	80	1200006.6613624	1200006.6618923	40	1200009.8044845	1200009.8049787	100	del	1200010.4673307	1200010.9782005	1200010.9785778	120.0	3.0	1200012.627484
2024.9951171875	0.0	40	4147190	117	67	60	1	0	1200003.58246	1200003.5828696	80	1200006.6613624	1200006.6618923	40	1200009.8044845	1200009.8049787	100	del	1200010.4673307	1200010.9782005	1200010.9785778	120.0	3.0	1200012.627484
2028.13818359375	0.0	100	4153627	117	67	60	1	0	1200003.58246	1200003.5828696	80	1200006.6613624	1200006.6618923	40	1200009.8044845	1200009.8049787	100	del	1200010.4673307	1200010.9782005	1200010.9785778	120.0	3.0	1200012.627484
2029.31201171875	0.0	120	4156031	117	67	60	1	0	1200003.58246	1200003.5828696	80	1200006.6613624	1200006.6618923	40	1200009.8044845	1200009.8049787	100	del	1200010.4673307	1200010.9782005	1200010.9785778	120.0	3.0	1200012.627484
2033.0205078125	0.0	80	4163626	118	93	200	1	1	1200014.6868322	1200014.6873635	80	1200017.9099418	1200017.9104533	40	1200021.0507385	1200021.0511933	100	del	1200027.2194071	1200027.7315046	1200027.7319663	120.0	2.0	1200031.5166972
2036.2431640625	0.0	40	4170226	118	93	200	1	1	1200014.6868322	1200014.6873635	80	1200017.9099418	1200017.9104533	40	1200021.0507385	1200021.0511933	100	del	1200027.2194071	1200027.7315046	1200027.7319663	120.0	2.0	1200031.5166972
2039.38427734375	0.0	100	4176659	118	93	200	1	1	1200014.6868322	1200014.6873635	80	1200017.9099418	1200017.9104533	40	1200021.0507385	1200021.0511933	100	del	1200027.2194071	1200027.7315046	1200027.7319663	120.0	2.0	1200031.5166972
2046.064453125	0.0	120	4190340	118	93	200	1	1	1200014.6868322	1200014.6873635	80	1200017.9099418	1200017.9104533	40	1200021.0507385	1200021.0511933	100	del	1200027.2194071	1200027.7315046	1200027.7319663	120.0	2.0	1200031.5166972
2052.01220703125	0.0	80	4202521	119	77	240	0	0	1200033.6794299	1200033.6799305	80	1200036.8991963	1200036.8997005	40	1200039.9725117	1200039.973065	100	del	1200041.3171664	nan	nan	nan	nan	nan
2055.23193359375	0.0	40	4209115	119	77	240	0	0	1200033.6794299	1200033.6799305	80	1200036.8991963	1200036.8997005	40	1200039.9725117	1200039.973065	100	del	1200041.3171664	nan	nan	nan	nan	nan
2058.30517578125	0.0	100	4215409	119	77	240	0	0	1200033.6794299	1200033.6799305	80	1200036.8991963	1200036.8997005	40	1200039.9725117	1200039.973065	100	del	1200041.3171664	nan	nan	nan	nan	nan
2062.4130859375	0.0	80	4223822	120	100	270	1	0	1200044.0802599	1200044.0807147	80	1200047.4402215	1200047.4405551	40	1200050.574953	1200050.5754703	100	del	1200052.5872782	1200053.0973292	1200053.0976661	120.0	3.0	1200053.7648752
2065.77294921875	0.0	40	4230703	120	100	270	1	0	1200044.0802599	1200044.0807147	80	1200047.4402215	1200047.4405551	40	1200050.574953	1200050.5754703	100	del	1200052.5872782	1200053.0973292	1200053.0976661	120.0	3.0	1200053.7648752
2068.90771484375	0.0	100	4237123	120	100	270	1	0	1200044.0802599	1200044.0807147	80	1200047.4402215	1200047.4405551	40	1200050.574953	1200050.5754703	100	del	1200052.5872782	1200053.0973292	1200053.0976661	120.0	3.0	1200053.7648752
2071.4296875	0.0	120	4242288	120	100	270	1	0	1200044.0802599	1200044.0807147	80	1200047.4402215	1200047.4405551	40	1200050.574953	1200050.5754703	100	del	1200052.5872782	1200053.0973292	1200053.0976661	120.0	3.0	1200053.7648752
2154.1318359375	0.0	80	4411662	121	77	440	0	1	1200135.8015578	1200135.8019961	80	1200138.8462542	1200138.8466733	40	1200142.0558902	1200142.0564149	100	del	1200148.5395666	nan	nan	nan	nan	nan
2157.17626953125	0.0	40	4417897	121	77	440	0	1	1200135.8015578	1200135.8019961	80	1200138.8462542	1200138.8466733	40	1200142.0558902	1200142.0564149	100	del	1200148.5395666	nan	nan	nan	nan	nan
2160.3857421875	0.0	100	4424470	121	77	440	0	1	1200135.8015578	1200135.8019961	80	1200138.8462542	1200138.8466733	40	1200142.0558902	1200142.0564149	100	del	1200148.5395666	nan	nan	nan	nan	nan
2169.38720703125	0.0	80	4442905	122	63	1120	0	1	1200151.0575596	1200151.0579914	80	1200154.1773034	1200154.1777652	40	1200157.1908643	1200157.1913006	100	imm	1200157.9476659	nan	nan	nan	nan	nan
2172.5068359375	0.0	40	4449294	122	63	1120	0	1	1200151.0575596	1200151.0579914	80	1200154.1773034	1200154.1777652	40	1200157.1908643	1200157.1913006	100	imm	1200157.9476659	nan	nan	nan	nan	nan
2175.5205078125	0.0	100	4455466	122	63	1120	0	1	1200151.0575596	1200151.0579914	80	1200154.1773034	1200154.1777652	40	1200157.1908643	1200157.1913006	100	imm	1200157.9476659	nan	nan	nan	nan	nan
2178.890625	0.0	80	4462368	123	70	270	1	0	1200160.5608899	1200160.5613993	80	1200163.6396617	1200163.6401714	40	1200166.7879543	1200166.7884417	100	del	1200167.7153603	1200168.226196	1200168.2265826	120.0	2.0	1200171.3956696
2181.96923828125	0.0	40	4468673	123	70	270	1	0	1200160.5608899	1200160.5613993	80	1200163.6396617	1200163.6401714	40	1200166.7879543	1200166.7884417	100	del	1200167.7153603	1200168.226196	1200168.2265826	120.0	2.0	1200171.3956696
2185.1171875	0.0	100	4475120	123	70	270	1	0	1200160.5608899	1200160.5613993	80	1200163.6396617	1200163.6401714	40	1200166.7879543	1200166.7884417	100	del	1200167.7153603	1200168.226196	1200168.2265826	120.0	2.0	1200171.3956696
2186.5556640625	0.0	120	4478066	123	70	270	1	0	1200160.5608899	1200160.5613993	80	1200163.6396617	1200163.6401714	40	1200166.7879543	1200166.7884417	100	del	1200167.7153603	1200168.226196	1200168.2265826	120.0	2.0	1200171.3956696
2191.8251953125	0.0	80	4488858	124	100	110	0	0	1200173.495995	1200173.4963812	80	1200176.5730608	1200176.5734941	40	1200179.8854703	1200179.8859934	100	del	1200181.0679213	nan	nan	nan	nan	nan
2194.90234375	0.0	40	4495160	124	100	110	0	0	1200173.495995	1200173.4963812	80	1200176.5730608	1200176.5734941	40	1200179.8854703	1200179.8859934	100	del	1200181.0679213	nan	nan	nan	nan	nan
2198.21435546875	0.0	100	4501943	124	100	110	0	0	1200173.495995	1200173.4963812	80	1200176.5730608	1200176.5734941	40	1200179.8854703	1200179.8859934	100	del	1200181.0679213	nan	nan	nan	nan	nan
2202.36474609375	0.0	80	4510443	125	50	26	1	0	1200184.0357068	1200184.0361948	80	1200187.5117073	1200187.5120621	40	1200190.6316074	1200190.6319587	100	del	1200195.0998342	1200195.6118755	1200195.6123245	120.0	3.0	1200196.3163035
2205.84033203125	0.0	40	4517561	125	50	26	1	0	1200184.0357068	1200184.0361948	80	1200187.5117073	1200187.5120621	40	1200190.6316074	1200190.6319587	100	del	1200195.0998342	1200195.6118755	1200195.6123245	120.0	3.0	1200196.3163035
2208.96044921875	0.0	100	4523951	125	50	26	1	0	1200184.0357068	1200184.0361948	80	1200187.5117073	1200187.5120621	40	1200190.6316074	1200190.6319587	100	del	1200195.0998342	1200195.6118755	1200195.6123245	120.0	3.0	1200196.3163035
2213.9404296875	0.0	120	4534150	125	50	26	1	0	1200184.0357068	1200184.0361948	80	1200187.5117073	1200187.5120621	40	1200190.6316074	1200190.6319587	100	del	1200195.0998342	1200195.6118755	1200195.6123245	120.0	3.0	1200196.3163035
2216.90185546875	0.0	80	4540215	126	63	110	0	0	1200198.5731481	1200198.573657	80	1200201.7681973	1200201.7686423	40	1200205.0395339	1200205.0397378	100	del	1200206.6998292	nan	nan	nan	nan	nan
2220.0966796875	0.0	40	4546758	126	63	110	0	0	1200198.5731481	1200198.573657	80	1200201.7681973	1200201.7686423	40	1200205.0395339	1200205.0397378	100	del	1200206.6998292	nan	nan	nan	nan	nan
2223.3681640625	0.0	100	4553458	126	63	110	0	0	1200198.5731481	1200198.573657	80	1200201.7681973	1200201.7686423	40	1200205.0395339	1200205.0397378	100	del	1200206.6998292	nan	nan	nan	nan	nan
2227.67626953125	0.0	80	4562281	127	90	110	0	0	1200209.3479746	1200209.3483243	80	1200212.3882622	1200212.3885623	40	1200215.6192912	1200215.6198917	100	del	1200216.2852388	nan	nan	nan	nan	nan
2230.71630859375	0.0	40	4568507	127	90	110	0	0	1200209.3479746	1200209.3483243	80	1200212.3882622	1200212.3885623	40	1200215.6192912	1200215.6198917	100	del	1200216.2852388	nan	nan	nan	nan	nan
2233.947265625	0.0	100	4575124	127	90	110	0	0	1200209.3479746	1200209.3483243	80	1200212.3882622	1200212.3885623	40	1200215.6192912	1200215.6198917	100	del	1200216.2852388	nan	nan	nan	nan	nan
2237.21728515625	0.0	80	4581821	128	83	60	1	1	1200218.8893647	1200218.8899009	80	1200221.9098197	1200221.9103161	40	1200225.402554	1200225.4031249	100	del	1200234.7012654	1200235.2123337	1200235.2127952	120.0	3.0	1200242.1653734
2240.23779296875	0.0	40	4588007	128	83	60	1	1	1200218.8893647	1200218.8899009	80	1200221.9098197	1200221.9103161	40	1200225.402554	1200225.4031249	100	del	1200234.7012654	1200235.2123337	1200235.2127952	120.0	3.0	1200242.1653734
2243.73046875	0.0	100	4595160	128	83	60	1	1	1200218.8893647	1200218.8899009	80	1200221.9098197	1200221.9103161	40	1200225.402554	1200225.4031249	100	del	1200234.7012654	1200235.2123337	1200235.2127952	120.0	3.0	1200242.1653734
2253.5400390625	0.0	120	4615250	128	83	60	1	1	1200218.8893647	1200218.8899009	80	1200221.9098197	1200221.9103161	40	1200225.402554	1200225.4031249	100	del	1200234.7012654	1200235.2123337	1200235.2127952	120.0	3.0	1200242.1653734
2262.72216796875	0.0	80	4634055	129	87	1120	0	0	1200244.394746	1200244.3952215	80	1200247.8838854	1200247.8844156	40	1200251.2740888	1200251.2744217	100	imm	1200251.9001119	nan	nan	nan	nan	nan
2266.2109375	0.0	40	4641200	129	87	1120	0	0	1200244.394746	1200244.3952215	80	1200247.8838854	1200247.8844156	40	1200251.2740888	1200251.2744217	100	imm	1200251.9001119	nan	nan	nan	nan	nan
2269.60107421875	0.0	100	4648143	129	87	1120	0	0	1200244.394746	1200244.3952215	80	1200247.8838854	1200247.8844156	40	1200251.2740888	1200251.2744217	100	imm	1200251.9001119	nan	nan	nan	nan	nan
2272.7451171875	0.0	80	4654582	130	67	110	0	0	1200254.418057	1200254.4184625	80	1200257.7641064	1200257.7644854	40	1200261.1297083	1200261.1303262	100	del	1200262.8116022	nan	nan	nan	nan	nan
2276.0908203125	0.0	40	4661434	130	67	110	0	0	1200254.418057	1200254.4184625	80	1200257.7641064	1200257.7644854	40	1200261.1297083	1200261.1303262	100	del	1200262.8116022	nan	nan	nan	nan	nan
2279.45654296875	0.0	100	4668327	130	67	110	0	0	1200254.418057	1200254.4184625	80	1200257.7641064	1200257.7644854	40	1200261.1297083	1200261.1303262	100	del	1200262.8116022	nan	nan	nan	nan	nan
2283.97900390625	0.0	80	4677589	131	97	440	0	0	1200265.6521439	1200265.6526521	80	1200268.9357444	1200268.9362534	40	1200272.0578133	1200272.0583356	100	del	1200272.9319346	nan	nan	nan	nan	nan
2287.26220703125	0.0	40	4684313	131	97	440	0	0	1200265.6521439	1200265.6526521	80	1200268.9357444	1200268.9362534	40	1200272.0578133	1200272.0583356	100	del	1200272.9319346	nan	nan	nan	nan	nan
2290.38427734375	0.0	100	4690707	131	97	440	0	0	1200265.6521439	1200265.6526521	80	1200268.9357444	1200268.9362534	40	1200272.0578133	1200272.0583356	100	del	1200272.9319346	nan	nan	nan	nan	nan
2294.1611328125	0.0	80	4698442	132	83	40	0	1	1200275.8349755	1200275.8353934	80	1200278.9564317	1200278.9569269	40	1200282.1546433	1200282.1551117	100	del	1200282.8294642	nan	nan	nan	nan	nan
2297.28271484375	0.0	40	4704835	132	83	40	0	1	1200275.8349755	1200275.8353934	80	1200278.9564317	1200278.9569269	40	1200282.1546433	1200282.1551117	100	del	1200282.8294642	nan	nan	nan	nan	nan
2300.48095703125	0.0	100	4711385	132	83	40	0	1	1200275.8349755	1200275.8353934	80	1200278.9564317	1200278.9569269	40	1200282.1546433	1200282.1551117	100	del	1200282.8294642	nan	nan	nan	nan	nan
2304.11376953125	0.0	80	4718825	133	73	440	0	1	1200285.7879883	1200285.7883109	80	1200289.223585	1200289.2240662	40	1200292.4378651	1200292.4383411	100	del	1200293.723421	nan	nan	nan	nan	nan
2307.5498046875	0.0	40	4725862	133	73	440	0	1	1200285.7879883	1200285.7883109	80	1200289.223585	1200289.2240662	40	1200292.4378651	1200292.4383411	100	del	1200293.723421	nan	nan	nan	nan	nan
2310.763671875	0.0	100	4732444	133	73	440	0	1	1200285.7879883	1200285.7883109	80	1200289.223585	1200289.2240662	40	1200292.4378651	1200292.4383411	100	del	1200293.723421	nan	nan	nan	nan	nan
2314.7275390625	0.0	80	4740562	134	50	40	0	1	1200296.4015126	1200296.4020045	80	1200299.7138166	1200299.7142906	40	1200303.1824363	1200303.1829414	100	del	1200305.1797786	nan	nan	nan	nan	nan
