onset	duration	value	sample	trial_idx	val	del	is_cued	rev_opts	del_pres_displaytime	del_pres_triggertime	del_pres_triggercode	val_pres_displaytime	val_pres_triggertime	val_pres_triggercode	choice_displaytime	choice_triggertime	choice_triggercode	choice	choice_time	viv_displaytime	viv_triggertime	viv_triggercode	viv	viv_time
68.158203125	0.0	80	139588	1	73	370	1	0	1946689.1019682	1946689.1065657	80	1946692.296167	1946692.2985284	40	1946695.7984301	1946695.8011392	100	del	1946697.2930672	1946697.8104094	1946697.8122941	120.0	2.0	1946699.7886442
71.35205078125	0.0	40	146129	1	73	370	1	0	1946689.1019682	1946689.1065657	80	1946692.296167	1946692.2985284	40	1946695.7984301	1946695.8011392	100	del	1946697.2930672	1946697.8104094	1946697.8122941	120.0	2.0	1946699.7886442
74.85400390625	0.0	100	153301	1	73	370	1	0	1946689.1019682	1946689.1065657	80	1946692.296167	1946692.2985284	40	1946695.7984301	1946695.8011392	100	del	1946697.2930672	1946697.8104094	1946697.8122941	120.0	2.0	1946699.7886442
76.8662109375	0.0	120	157422	1	73	370	1	0	1946689.1019682	1946689.1065657	80	1946692.296167	1946692.2985284	40	1946695.7984301	1946695.8011392	100	del	1946697.2930672	1946697.8104094	1946697.8122941	120.0	2.0	1946699.7886442
80.9267578125	0.0	80	165738	2	97	160	0	1	1946701.8709504	1946701.8729232	80	1946705.2456948	1946705.2467115	40	1946708.5855344	1946708.5876461	100	del	1946710.5714617	nan	nan	nan	nan	nan
84.30126953125	0.0	40	172649	2	97	160	0	1	1946701.8709504	1946701.8729232	80	1946705.2456948	1946705.2467115	40	1946708.5855344	1946708.5876461	100	del	1946710.5714617	nan	nan	nan	nan	nan
87.64111328125	0.0	100	179489	2	97	160	0	1	1946701.8709504	1946701.8729232	80	1946705.2456948	1946705.2467115	40	1946708.5855344	1946708.5876461	100	del	1946710.5714617	nan	nan	nan	nan	nan
92.56787109375	0.0	80	189579	3	60	160	0	1	1946713.5126093	1946713.5130929	80	1946716.7199468	1946716.7204189	40	1946720.1087181	1946720.1092246	100	imm	1946721.4600635	nan	nan	nan	nan	nan
95.775390625	0.0	40	196148	3	60	160	0	1	1946713.5126093	1946713.5130929	80	1946716.7199468	1946716.7204189	40	1946720.1087181	1946720.1092246	100	imm	1946721.4600635	nan	nan	nan	nan	nan
99.1640625	0.0	100	203088	3	60	160	0	1	1946713.5126093	1946713.5130929	80	1946716.7199468	1946716.7204189	40	1946720.1087181	1946720.1092246	100	imm	1946721.4600635	nan	nan	nan	nan	nan
103.44970703125	0.0	80	211865	4	77	40	1	1	1946724.3947594	1946724.3951928	80	1946727.5637681	1946727.5642536	40	1946730.8530436	1946730.8534668	100	imm	1946732.2356616	1946732.7492129	1946732.7517382	120.0	3.0	1946735.0594941
106.61865234375	0.0	40	218355	4	77	40	1	1	1946724.3947594	1946724.3951928	80	1946727.5637681	1946727.5642536	40	1946730.8530436	1946730.8534668	100	imm	1946732.2356616	1946732.7492129	1946732.7517382	120.0	3.0	1946735.0594941
109.908203125	0.0	100	225092	4	77	40	1	1	1946724.3947594	1946724.3951928	80	1946727.5637681	1946727.5642536	40	1946730.8530436	1946730.8534668	100	imm	1946732.2356616	1946732.7492129	1946732.7517382	120.0	3.0	1946735.0594941
111.80419921875	0.0	120	228975	4	77	40	1	1	1946724.3947594	1946724.3951928	80	1946727.5637681	1946727.5642536	40	1946730.8530436	1946730.8534668	100	imm	1946732.2356616	1946732.7492129	1946732.7517382	120.0	3.0	1946735.0594941
116.61767578125	0.0	80	238833	5	87	140	1	1	1946737.5627807	1946737.5632797	80	1946740.8463251	1946740.8467527	40	1946744.0254172	1946744.0259046	100	del	1946747.9958177	1946748.5071351	1946748.5077259	120.0	4.0	1946749.7715417
119.90087890625	0.0	40	245557	5	87	140	1	1	1946737.5627807	1946737.5632797	80	1946740.8463251	1946740.8467527	40	1946744.0254172	1946744.0259046	100	del	1946747.9958177	1946748.5071351	1946748.5077259	120.0	4.0	1946749.7715417
123.080078125	0.0	100	252068	5	87	140	1	1	1946737.5627807	1946737.5632797	80	1946740.8463251	1946740.8467527	40	1946744.0254172	1946744.0259046	100	del	1946747.9958177	1946748.5071351	1946748.5077259	120.0	4.0	1946749.7715417
127.56201171875	0.0	120	261247	5	87	140	1	1	1946737.5627807	1946737.5632797	80	1946740.8463251	1946740.8467527	40	1946744.0254172	1946744.0259046	100	del	1946747.9958177	1946748.5071351	1946748.5077259	120.0	4.0	1946749.7715417
131.1474609375	0.0	80	268590	6	60	260	0	1	1946752.0931778	1946752.0935269	80	1946755.2816103	1946755.282051	40	1946758.6730764	1946758.6735452	100	imm	1946760.9719618	nan	nan	nan	nan	nan
134.3359375	0.0	40	275120	6	60	260	0	1	1946752.0931778	1946752.0935269	80	1946755.2816103	1946755.282051	40	1946758.6730764	1946758.6735452	100	imm	1946760.9719618	nan	nan	nan	nan	nan
137.7275390625	0.0	100	282066	6	60	260	0	1	1946752.0931778	1946752.0935269	80	1946755.2816103	1946755.282051	40	1946758.6730764	1946758.6735452	100	imm	1946760.9719618	nan	nan	nan	nan	nan
142.74853515625	0.0	80	292349	7	80	370	1	1	1946763.6943911	1946763.6948264	80	1946766.9472025	1946766.9476202	40	1946770.3073253	1946770.3078471	100	del	1946771.5888287	1946772.1010296	1946772.1014298	120.0	2.0	1946776.3078319
146.00146484375	0.0	40	299011	7	80	370	1	1	1946763.6943911	1946763.6948264	80	1946766.9472025	1946766.9476202	40	1946770.3073253	1946770.3078471	100	del	1946771.5888287	1946772.1010296	1946772.1014298	120.0	2.0	1946776.3078319
149.361328125	0.0	100	305892	7	80	370	1	1	1946763.6943911	1946763.6948264	80	1946766.9472025	1946766.9476202	40	1946770.3073253	1946770.3078471	100	del	1946771.5888287	1946772.1010296	1946772.1014298	120.0	2.0	1946776.3078319
151.15478515625	0.0	120	309565	7	80	370	1	1	1946763.6943911	1946763.6948264	80	1946766.9472025	1946766.9476202	40	1946770.3073253	1946770.3078471	100	del	1946771.5888287	1946772.1010296	1946772.1014298	120.0	2.0	1946776.3078319
157.86279296875	0.0	80	323303	8	60	970	0	1	1946778.8090602	1946778.8095621	80	1946781.9810648	1946781.9815789	40	1946785.4134669	1946785.413964	100	imm	1946786.3312345	nan	nan	nan	nan	nan
161.03466796875	0.0	40	329799	8	60	970	0	1	1946778.8090602	1946778.8095621	80	1946781.9810648	1946781.9815789	40	1946785.4134669	1946785.413964	100	imm	1946786.3312345	nan	nan	nan	nan	nan
164.46728515625	0.0	100	336829	8	60	970	0	1	1946778.8090602	1946778.8095621	80	1946781.9810648	1946781.9815789	40	1946785.4134669	1946785.413964	100	imm	1946786.3312345	nan	nan	nan	nan	nan
168.27294921875	0.0	80	344623	9	50	160	0	1	1946789.2191796	1946789.2196667	80	1946792.7038875	1946792.7043408	40	1946795.7339129	1946795.7344543	100	imm	1946797.1475835	nan	nan	nan	nan	nan
171.75732421875	0.0	40	351759	9	50	160	0	1	1946789.2191796	1946789.2196667	80	1946792.7038875	1946792.7043408	40	1946795.7339129	1946795.7344543	100	imm	1946797.1475835	nan	nan	nan	nan	nan
174.787109375	0.0	100	357964	9	50	160	0	1	1946789.2191796	1946789.2196667	80	1946792.7038875	1946792.7043408	40	1946795.7339129	1946795.7344543	100	imm	1946797.1475835	nan	nan	nan	nan	nan
178.900390625	0.0	80	366388	10	80	970	0	1	1946799.8470179	1946799.8474385	80	1946803.1857521	1946803.1862785	40	1946806.3395224	1946806.3401614	100	imm	1946807.3408434	nan	nan	nan	nan	nan
182.23876953125	0.0	40	373225	10	80	970	0	1	1946799.8470179	1946799.8474385	80	1946803.1857521	1946803.1862785	40	1946806.3395224	1946806.3401614	100	imm	1946807.3408434	nan	nan	nan	nan	nan
185.392578125	0.0	100	379684	10	80	970	0	1	1946799.8470179	1946799.8474385	80	1946803.1857521	1946803.1862785	40	1946806.3395224	1946806.3401614	100	imm	1946807.3408434	nan	nan	nan	nan	nan
189.02392578125	0.0	80	387121	11	60	40	1	1	1946809.970986	1946809.9714488	80	1946813.3334358	1946813.3338064	40	1946816.6584646	1946816.6589904	100	del	1946817.987903	1946818.4990994	1946818.4994314	120.0	2.0	1946821.1394114
192.38623046875	0.0	40	394007	11	60	40	1	1	1946809.970986	1946809.9714488	80	1946813.3334358	1946813.3338064	40	1946816.6584646	1946816.6589904	100	del	1946817.987903	1946818.4990994	1946818.4994314	120.0	2.0	1946821.1394114
195.71142578125	0.0	100	400817	11	60	40	1	1	1946809.970986	1946809.9714488	80	1946813.3334358	1946813.3338064	40	1946816.6584646	1946816.6589904	100	del	1946817.987903	1946818.4990994	1946818.4994314	120.0	2.0	1946821.1394114
197.5517578125	0.0	120	404586	11	60	40	1	1	1946809.970986	1946809.9714488	80	1946813.3334358	1946813.3338064	40	1946816.6584646	1946816.6589904	100	del	1946817.987903	1946818.4990994	1946818.4994314	120.0	2.0	1946821.1394114
202.50146484375	0.0	80	414723	12	93	160	0	1	1946823.448903	1946823.4493629	80	1946826.7861001	1946826.7864854	40	1946829.8229968	1946829.8234939	100	del	1946831.1072099	nan	nan	nan	nan	nan
205.8388671875	0.0	40	421558	12	93	160	0	1	1946823.448903	1946823.4493629	80	1946826.7861001	1946826.7864854	40	1946829.8229968	1946829.8234939	100	del	1946831.1072099	nan	nan	nan	nan	nan
208.87548828125	0.0	100	427777	12	93	160	0	1	1946823.448903	1946823.4493629	80	1946826.7861001	1946826.7864854	40	1946829.8229968	1946829.8234939	100	del	1946831.1072099	nan	nan	nan	nan	nan
212.85107421875	0.0	80	435919	13	100	260	0	0	1946833.7987042	1946833.7991812	80	1946837.0321019	1946837.0325926	40	1946840.1665318	1946840.1670073	100	del	1946860.6192765	nan	nan	nan	nan	nan
216.08447265625	0.0	40	442541	13	100	260	0	0	1946833.7987042	1946833.7991812	80	1946837.0321019	1946837.0325926	40	1946840.1665318	1946840.1670073	100	del	1946860.6192765	nan	nan	nan	nan	nan
219.21875	0.0	100	448960	13	100	260	0	0	1946833.7987042	1946833.7991812	80	1946837.0321019	1946837.0325926	40	1946840.1665318	1946840.1670073	100	del	1946860.6192765	nan	nan	nan	nan	nan
242.54345703125	0.0	80	496729	14	90	140	1	0	1946863.4916546	1946863.4920682	80	1946866.9268496	1946866.9273394	40	1946870.0806788	1946870.08116	100	del	1946876.2282168	1946876.7420785	1946876.7425517	120.0	1.0	1946879.3235194
245.978515625	0.0	40	503764	14	90	140	1	0	1946863.4916546	1946863.4920682	80	1946866.9268496	1946866.9273394	40	1946870.0806788	1946870.08116	100	del	1946876.2282168	1946876.7420785	1946876.7425517	120.0	1.0	1946879.3235194
249.13232421875	0.0	100	510223	14	90	140	1	0	1946863.4916546	1946863.4920682	80	1946866.9268496	1946866.9273394	40	1946870.0806788	1946870.08116	100	del	1946876.2282168	1946876.7420785	1946876.7425517	120.0	1.0	1946879.3235194
255.79345703125	0.0	120	523865	14	90	140	1	0	1946863.4916546	1946863.4920682	80	1946866.9268496	1946866.9273394	40	1946870.0806788	1946870.08116	100	del	1946876.2282168	1946876.7420785	1946876.7425517	120.0	1.0	1946879.3235194
260.75439453125	0.0	80	534025	15	100	40	1	1	1946881.7031867	1946881.7036705	80	1946884.77953	1946884.7799738	40	1946888.2114674	1946888.2119874	100	del	1946889.0207905	1946889.5329656	1946889.5334543	120.0	4.0	1946891.7472153
263.83056640625	0.0	40	540325	15	100	40	1	1	1946881.7031867	1946881.7036705	80	1946884.77953	1946884.7799738	40	1946888.2114674	1946888.2119874	100	del	1946889.0207905	1946889.5329656	1946889.5334543	120.0	4.0	1946891.7472153
267.2626953125	0.0	100	547354	15	100	40	1	1	1946881.7031867	1946881.7036705	80	1946884.77953	1946884.7799738	40	1946888.2114674	1946888.2119874	100	del	1946889.0207905	1946889.5329656	1946889.5334543	120.0	4.0	1946891.7472153
268.583984375	0.0	120	550060	15	100	40	1	1	1946881.7031867	1946881.7036705	80	1946884.77953	1946884.7799738	40	1946888.2114674	1946888.2119874	100	del	1946889.0207905	1946889.5329656	1946889.5334543	120.0	4.0	1946891.7472153
272.8828125	0.0	80	558864	16	60	700	1	1	1946893.831642	1946893.8321661	80	1946897.1338688	1946897.134334	40	1946900.3315208	1946900.3320493	100	imm	1946902.1476607	1946902.6584059	1946902.658899	120.0	2.0	1946905.315188
276.1845703125	0.0	40	565626	16	60	700	1	1	1946893.831642	1946893.8321661	80	1946897.1338688	1946897.134334	40	1946900.3315208	1946900.3320493	100	imm	1946902.1476607	1946902.6584059	1946902.658899	120.0	2.0	1946905.315188
279.38232421875	0.0	100	572175	16	60	700	1	1	1946893.831642	1946893.8321661	80	1946897.1338688	1946897.134334	40	1946900.3315208	1946900.3320493	100	imm	1946902.1476607	1946902.6584059	1946902.658899	120.0	2.0	1946905.315188
281.708984375	0.0	120	576940	16	60	700	1	1	1946893.831642	1946893.8321661	80	1946897.1338688	1946897.134334	40	1946900.3315208	1946900.3320493	100	imm	1946902.1476607	1946902.6584059	1946902.658899	120.0	2.0	1946905.315188
286.783203125	0.0	80	587332	17	53	700	1	1	1946907.7327142	1946907.7331447	80	1946910.9919463	1946910.9923658	40	1946914.2508222	1946914.2512701	100	imm	1946915.4988883	1946916.0123163	1946916.012891	120.0	1.0	1946918.1950952
290.04248046875	0.0	40	594007	17	53	700	1	1	1946907.7327142	1946907.7331447	80	1946910.9919463	1946910.9923658	40	1946914.2508222	1946914.2512701	100	imm	1946915.4988883	1946916.0123163	1946916.012891	120.0	1.0	1946918.1950952
293.30126953125	0.0	100	600681	17	53	700	1	1	1946907.7327142	1946907.7331447	80	1946910.9919463	1946910.9923658	40	1946914.2508222	1946914.2512701	100	imm	1946915.4988883	1946916.0123163	1946916.012891	120.0	1.0	1946918.1950952
295.06298828125	0.0	120	604289	17	53	700	1	1	1946907.7327142	1946907.7331447	80	1946910.9919463	1946910.9923658	40	1946914.2508222	1946914.2512701	100	imm	1946915.4988883	1946916.0123163	1946916.012891	120.0	1.0	1946918.1950952
299.6962890625	0.0	80	613778	18	77	970	0	0	1946920.6462437	1946920.6466138	80	1946923.8308574	1946923.8313325	40	1946927.0689203	1946927.0694311	100	imm	1946928.1245667	nan	nan	nan	nan	nan
302.880859375	0.0	40	620300	18	77	970	0	0	1946920.6462437	1946920.6466138	80	1946923.8308574	1946923.8313325	40	1946927.0689203	1946927.0694311	100	imm	1946928.1245667	nan	nan	nan	nan	nan
306.119140625	0.0	100	626932	18	77	970	0	0	1946920.6462437	1946920.6466138	80	1946923.8308574	1946923.8313325	40	1946927.0689203	1946927.0694311	100	imm	1946928.1245667	nan	nan	nan	nan	nan
310.173828125	0.0	80	635236	19	63	180	1	1	1946931.1235509	1946931.1240753	80	1946934.1528844	1946934.1532664	40	1946937.6523421	1946937.6528435	100	del	1946943.8034515	1946944.3170093	1946944.3174949	120.0	4.0	1946947.2513434
313.20263671875	0.0	40	641439	19	63	180	1	1	1946931.1235509	1946931.1240753	80	1946934.1528844	1946934.1532664	40	1946937.6523421	1946937.6528435	100	del	1946943.8034515	1946944.3170093	1946944.3174949	120.0	4.0	1946947.2513434
316.7021484375	0.0	100	648606	19	63	180	1	1	1946931.1235509	1946931.1240753	80	1946934.1528844	1946934.1532664	40	1946937.6523421	1946937.6528435	100	del	1946943.8034515	1946944.3170093	1946944.3174949	120.0	4.0	1946947.2513434
323.36669921875	0.0	120	662255	19	63	180	1	1	1946931.1235509	1946931.1240753	80	1946934.1528844	1946934.1532664	40	1946937.6523421	1946937.6528435	100	del	1946943.8034515	1946944.3170093	1946944.3174949	120.0	4.0	1946947.2513434
328.4072265625	0.0	80	672578	20	50	700	1	0	1946949.3579116	1946949.3582451	80	1946952.6984464	1946952.6989349	40	1946956.0042536	1946956.004751	100	imm	1946957.6510683	1946958.1617449	1946958.1621404	120.0	1.0	1946960.4837497
331.748046875	0.0	40	679420	20	50	700	1	0	1946949.3579116	1946949.3582451	80	1946952.6984464	1946952.6989349	40	1946956.0042536	1946956.004751	100	imm	1946957.6510683	1946958.1617449	1946958.1621404	120.0	1.0	1946960.4837497
335.0537109375	0.0	100	686190	20	50	700	1	0	1946949.3579116	1946949.3582451	80	1946952.6984464	1946952.6989349	40	1946956.0042536	1946956.004751	100	imm	1946957.6510683	1946958.1617449	1946958.1621404	120.0	1.0	1946960.4837497
337.2109375	0.0	120	690608	20	50	700	1	0	1946949.3579116	1946949.3582451	80	1946952.6984464	1946952.6989349	40	1946956.0042536	1946956.004751	100	imm	1946957.6510683	1946958.1617449	1946958.1621404	120.0	1.0	1946960.4837497
355.4990234375	0.0	80	728062	21	63	510	0	1	1946976.4500137	1946976.4503577	80	1946979.6387713	1946979.639302	40	1946982.962542	1946982.9630203	100	imm	1946984.6042809	nan	nan	nan	nan	nan
358.6875	0.0	40	734592	21	63	510	0	1	1946976.4500137	1946976.4503577	80	1946979.6387713	1946979.639302	40	1946982.962542	1946982.9630203	100	imm	1946984.6042809	nan	nan	nan	nan	nan
362.01123046875	0.0	100	741399	21	63	510	0	1	1946976.4500137	1946976.4503577	80	1946979.6387713	1946979.639302	40	1946982.962542	1946982.9630203	100	imm	1946984.6042809	nan	nan	nan	nan	nan
366.57568359375	0.0	80	750747	22	93	700	1	0	1946987.5272358	1946987.5276658	80	1946990.5443802	1946990.544898	40	1946993.5990991	1946993.5995797	100	del	1946998.6188398	1946999.1285078	1946999.1288163	120.0	3.0	1947001.7868054
369.5927734375	0.0	40	756926	22	93	700	1	0	1946987.5272358	1946987.5276658	80	1946990.5443802	1946990.544898	40	1946993.5990991	1946993.5995797	100	del	1946998.6188398	1946999.1285078	1946999.1288163	120.0	3.0	1947001.7868054
372.6474609375	0.0	100	763182	22	93	700	1	0	1946987.5272358	1946987.5276658	80	1946990.5443802	1946990.544898	40	1946993.5990991	1946993.5995797	100	del	1946998.6188398	1946999.1285078	1946999.1288163	120.0	3.0	1947001.7868054
378.1767578125	0.0	120	774506	22	93	700	1	0	1946987.5272358	1946987.5276658	80	1946990.5443802	1946990.544898	40	1946993.5990991	1946993.5995797	100	del	1946998.6188398	1946999.1285078	1946999.1288163	120.0	3.0	1947001.7868054
383.3369140625	0.0	80	785074	23	57	180	1	0	1947004.2887753	1947004.2892736	80	1947007.6221973	1947007.6226977	40	1947010.7519219	1947010.7524658	100	del	1947012.8126282	1947013.3240072	1947013.3245503	120.0	4.0	1947014.8191024
386.67041015625	0.0	40	791901	23	57	180	1	0	1947004.2887753	1947004.2892736	80	1947007.6221973	1947007.6226977	40	1947010.7519219	1947010.7524658	100	del	1947012.8126282	1947013.3240072	1947013.3245503	120.0	4.0	1947014.8191024
389.7998046875	0.0	100	798310	23	57	180	1	0	1947004.2887753	1947004.2892736	80	1947007.6221973	1947007.6226977	40	1947010.7519219	1947010.7524658	100	del	1947012.8126282	1947013.3240072	1947013.3245503	120.0	4.0	1947014.8191024
392.3720703125	0.0	120	803578	23	57	180	1	0	1947004.2887753	1947004.2892736	80	1947007.6221973	1947007.6226977	40	1947010.7519219	1947010.7524658	100	del	1947012.8126282	1947013.3240072	1947013.3245503	120.0	4.0	1947014.8191024
396.08642578125	0.0	80	811185	24	73	80	0	0	1947017.0386672	1947017.0391449	80	1947020.1072177	1947020.1076937	40	1947023.2551483	1947023.2556984	100	del	1947024.9874805	nan	nan	nan	nan	nan
399.1552734375	0.0	40	817470	24	73	80	0	0	1947017.0386672	1947017.0391449	80	1947020.1072177	1947020.1076937	40	1947023.2551483	1947023.2556984	100	del	1947024.9874805	nan	nan	nan	nan	nan
402.302734375	0.0	100	823916	24	73	80	0	0	1947017.0386672	1947017.0391449	80	1947020.1072177	1947020.1076937	40	1947023.2551483	1947023.2556984	100	del	1947024.9874805	nan	nan	nan	nan	nan
406.6787109375	0.0	80	832878	25	90	40	1	0	1947027.631234	1947027.6315735	80	1947030.8039198	1947030.804349	40	1947033.8928073	1947033.8933146	100	del	1947034.7873771	1947035.2989117	1947035.2993107	120.0	4.0	1947037.6190364
409.8515625	0.0	40	839376	25	90	40	1	0	1947027.631234	1947027.6315735	80	1947030.8039198	1947030.804349	40	1947033.8928073	1947033.8933146	100	del	1947034.7873771	1947035.2989117	1947035.2993107	120.0	4.0	1947037.6190364
412.9404296875	0.0	100	845702	25	90	40	1	0	1947027.631234	1947027.6315735	80	1947030.8039198	1947030.804349	40	1947033.8928073	1947033.8933146	100	del	1947034.7873771	1947035.2989117	1947035.2993107	120.0	4.0	1947037.6190364
414.34619140625	0.0	120	848581	25	90	40	1	0	1947027.631234	1947027.6315735	80	1947030.8039198	1947030.804349	40	1947033.8928073	1947033.8933146	100	del	1947034.7873771	1947035.2989117	1947035.2993107	120.0	4.0	1947037.6190364
418.85595703125	0.0	80	857817	26	97	370	1	0	1947039.8088499	1947039.8093552	80	1947042.8769653	1947042.8772906	40	1947046.332915	1947046.3334194	100	del	1947047.5154061	1947048.024251	1947048.0245534	120.0	3.0	1947050.0745397
421.92431640625	0.0	40	864101	26	97	370	1	0	1947039.8088499	1947039.8093552	80	1947042.8769653	1947042.8772906	40	1947046.332915	1947046.3334194	100	del	1947047.5154061	1947048.024251	1947048.0245534	120.0	3.0	1947050.0745397
425.3798828125	0.0	100	871178	26	97	370	1	0	1947039.8088499	1947039.8093552	80	1947042.8769653	1947042.8772906	40	1947046.332915	1947046.3334194	100	del	1947047.5154061	1947048.024251	1947048.0245534	120.0	3.0	1947050.0745397
427.0712890625	0.0	120	874642	26	97	370	1	0	1947039.8088499	1947039.8093552	80	1947042.8769653	1947042.8772906	40	1947046.332915	1947046.3334194	100	del	1947047.5154061	1947048.024251	1947048.0245534	120.0	3.0	1947050.0745397
431.18115234375	0.0	80	883059	27	67	970	0	0	1947052.1343058	1947052.1346268	80	1947055.6049447	1947055.6052042	40	1947058.8139085	1947058.8141804	100	imm	1947059.8508927	nan	nan	nan	nan	nan
434.65185546875	0.0	40	890167	27	67	970	0	0	1947052.1343058	1947052.1346268	80	1947055.6049447	1947055.6052042	40	1947058.8139085	1947058.8141804	100	imm	1947059.8508927	nan	nan	nan	nan	nan
437.86083984375	0.0	100	896739	27	67	970	0	0	1947052.1343058	1947052.1346268	80	1947055.6049447	1947055.6052042	40	1947058.8139085	1947058.8141804	100	imm	1947059.8508927	nan	nan	nan	nan	nan
441.435546875	0.0	80	904060	28	50	140	1	1	1947062.3889002	1947062.3892385	80	1947065.5678431	1947065.5683029	40	1947068.9497402	1947068.9502098	100	del	1947076.4592898	1947076.9702762	1947076.9707358	120.0	4.0	1947077.9947575
444.61474609375	0.0	40	910571	28	50	140	1	1	1947062.3889002	1947062.3892385	80	1947065.5678431	1947065.5683029	40	1947068.9497402	1947068.9502098	100	del	1947076.4592898	1947076.9702762	1947076.9707358	120.0	4.0	1947077.9947575
447.99658203125	0.0	100	917497	28	50	140	1	1	1947062.3889002	1947062.3892385	80	1947065.5678431	1947065.5683029	40	1947068.9497402	1947068.9502098	100	del	1947076.4592898	1947076.9702762	1947076.9707358	120.0	4.0	1947077.9947575
456.0166015625	0.0	120	933922	28	50	140	1	1	1947062.3889002	1947062.3892385	80	1947065.5678431	1947065.5683029	40	1947068.9497402	1947068.9502098	100	del	1947076.4592898	1947076.9702762	1947076.9707358	120.0	4.0	1947077.9947575
459.4521484375	0.0	80	940958	29	60	180	1	1	1947080.4058058	1947080.406295	80	1947083.6864464	1947083.6869453	40	1947087.0428974	1947087.0434904	100	del	1947088.2270336	1947088.740269	1947088.7408835	120.0	4.0	1947093.4032987
462.73291015625	0.0	40	947677	29	60	180	1	1	1947080.4058058	1947080.406295	80	1947083.6864464	1947083.6869453	40	1947087.0428974	1947087.0434904	100	del	1947088.2270336	1947088.740269	1947088.7408835	120.0	4.0	1947093.4032987
466.08935546875	0.0	100	954551	29	60	180	1	1	1947080.4058058	1947080.406295	80	1947083.6864464	1947083.6869453	40	1947087.0428974	1947087.0434904	100	del	1947088.2270336	1947088.740269	1947088.7408835	120.0	4.0	1947093.4032987
467.78662109375	0.0	120	958027	29	60	180	1	1	1947080.4058058	1947080.406295	80	1947083.6864464	1947083.6869453	40	1947087.0428974	1947087.0434904	100	del	1947088.2270336	1947088.740269	1947088.7408835	120.0	4.0	1947093.4032987
474.9111328125	0.0	80	972618	30	50	970	0	0	1947095.8650728	1947095.8655274	80	1947098.8999937	1947098.9005099	40	1947102.0651192	1947102.0655924	100	imm	1947106.6585105	nan	nan	nan	nan	nan
477.94580078125	0.0	40	978833	30	50	970	0	0	1947095.8650728	1947095.8655274	80	1947098.8999937	1947098.9005099	40	1947102.0651192	1947102.0655924	100	imm	1947106.6585105	nan	nan	nan	nan	nan
481.11083984375	0.0	100	985315	30	50	970	0	0	1947095.8650728	1947095.8655274	80	1947098.8999937	1947098.9005099	40	1947102.0651192	1947102.0655924	100	imm	1947106.6585105	nan	nan	nan	nan	nan
488.24560546875	0.0	80	999927	31	80	40	1	1	1947109.1997908	1947109.2002422	80	1947112.3040219	1947112.3044129	40	1947115.677623	1947115.6782308	100	del	1947117.5229264	1947118.0335516	1947118.0339279	120.0	4.0	1947118.9389491
491.349609375	0.0	40	1006284	31	80	40	1	1	1947109.1997908	1947109.2002422	80	1947112.3040219	1947112.3044129	40	1947115.677623	1947115.6782308	100	del	1947117.5229264	1947118.0335516	1947118.0339279	120.0	4.0	1947118.9389491
494.72314453125	0.0	100	1013193	31	80	40	1	1	1947109.1997908	1947109.2002422	80	1947112.3040219	1947112.3044129	40	1947115.677623	1947115.6782308	100	del	1947117.5229264	1947118.0335516	1947118.0339279	120.0	4.0	1947118.9389491
497.0791015625	0.0	120	1018018	31	80	40	1	1	1947109.1997908	1947109.2002422	80	1947112.3040219	1947112.3044129	40	1947115.677623	1947115.6782308	100	del	1947117.5229264	1947118.0335516	1947118.0339279	120.0	4.0	1947118.9389491
500.361328125	0.0	80	1024740	32	57	700	1	1	1947121.3157797	1947121.3162432	80	1947124.7610171	1947124.7613931	40	1947128.0650385	1947128.0655055	100	imm	1947129.8911745	1947130.4017104	1947130.4022343	120.0	1.0	1947135.7007119
503.80615234375	0.0	40	1031795	32	57	700	1	1	1947121.3157797	1947121.3162432	80	1947124.7610171	1947124.7613931	40	1947128.0650385	1947128.0655055	100	imm	1947129.8911745	1947130.4017104	1947130.4022343	120.0	1.0	1947135.7007119
507.1103515625	0.0	100	1038562	32	57	700	1	1	1947121.3157797	1947121.3162432	80	1947124.7610171	1947124.7613931	40	1947128.0650385	1947128.0655055	100	imm	1947129.8911745	1947130.4017104	1947130.4022343	120.0	1.0	1947135.7007119
509.44677734375	0.0	120	1043347	32	57	700	1	1	1947121.3157797	1947121.3162432	80	1947124.7610171	1947124.7613931	40	1947128.0650385	1947128.0655055	100	imm	1947129.8911745	1947130.4017104	1947130.4022343	120.0	1.0	1947135.7007119
516.79443359375	0.0	80	1058395	33	70	970	0	0	1947137.7492921	1947137.7497527	80	1947141.2206212	1947141.2211106	40	1947144.6337039	1947144.6341798	100	imm	1947145.5946101	nan	nan	nan	nan	nan
520.265625	0.0	40	1065504	33	70	970	0	0	1947137.7492921	1947137.7497527	80	1947141.2206212	1947141.2211106	40	1947144.6337039	1947144.6341798	100	imm	1947145.5946101	nan	nan	nan	nan	nan
523.67822265625	0.0	100	1072493	33	70	970	0	0	1947137.7492921	1947137.7497527	80	1947141.2206212	1947141.2211106	40	1947144.6337039	1947144.6341798	100	imm	1947145.5946101	nan	nan	nan	nan	nan
527.298828125	0.0	80	1079908	34	63	370	1	0	1947148.2540692	1947148.254559	80	1947151.5342341	1947151.5347126	40	1947155.0404378	1947155.0409427	100	imm	1947156.234825	1947156.7438475	1947156.744203	120.0	3.0	1947160.0122922
530.57861328125	0.0	40	1086625	34	63	370	1	0	1947148.2540692	1947148.254559	80	1947151.5342341	1947151.5347126	40	1947155.0404378	1947155.0409427	100	imm	1947156.234825	1947156.7438475	1947156.744203	120.0	3.0	1947160.0122922
534.0849609375	0.0	100	1093806	34	63	370	1	0	1947148.2540692	1947148.254559	80	1947151.5342341	1947151.5347126	40	1947155.0404378	1947155.0409427	100	imm	1947156.234825	1947156.7438475	1947156.744203	120.0	3.0	1947160.0122922
535.7880859375	0.0	120	1097294	34	63	370	1	0	1947148.2540692	1947148.254559	80	1947151.5342341	1947151.5347126	40	1947155.0404378	1947155.0409427	100	imm	1947156.234825	1947156.7438475	1947156.744203	120.0	3.0	1947160.0122922
541.42626953125	0.0	80	1108841	35	57	260	0	1	1947162.3817401	1947162.3820772	80	1947165.8086326	1947165.809087	40	1947169.0388551	1947169.0393907	100	imm	1947170.7000054	nan	nan	nan	nan	nan
544.85302734375	0.0	40	1115859	35	57	260	0	1	1947162.3817401	1947162.3820772	80	1947165.8086326	1947165.809087	40	1947169.0388551	1947169.0393907	100	imm	1947170.7000054	nan	nan	nan	nan	nan
548.0830078125	0.0	100	1122474	35	57	260	0	1	1947162.3817401	1947162.3820772	80	1947165.8086326	1947165.809087	40	1947169.0388551	1947169.0393907	100	imm	1947170.7000054	nan	nan	nan	nan	nan
552.49560546875	0.0	80	1131511	36	97	40	1	0	1947173.4516714	1947173.4520986	80	1947176.7396242	1947176.7400816	40	1947179.8877896	1947179.8883776	100	del	1947182.0989913	1947182.6117808	1947182.6123338	120.0	3.0	1947184.196013
555.78369140625	0.0	40	1138245	36	97	40	1	0	1947173.4516714	1947173.4520986	80	1947176.7396242	1947176.7400816	40	1947179.8877896	1947179.8883776	100	del	1947182.0989913	1947182.6117808	1947182.6123338	120.0	3.0	1947184.196013
558.931640625	0.0	100	1144692	36	97	40	1	0	1947173.4516714	1947173.4520986	80	1947176.7396242	1947176.7400816	40	1947179.8877896	1947179.8883776	100	del	1947182.0989913	1947182.6117808	1947182.6123338	120.0	3.0	1947184.196013
561.65576171875	0.0	120	1150271	36	97	40	1	0	1947173.4516714	1947173.4520986	80	1947176.7396242	1947176.7400816	40	1947179.8877896	1947179.8883776	100	del	1947182.0989913	1947182.6117808	1947182.6123338	120.0	3.0	1947184.196013
565.6298828125	0.0	80	1158410	37	67	80	0	0	1947186.5861689	1947186.5866014	80	1947189.8458834	1947189.8464788	40	1947193.1829207	1947193.1834575	100	del	1947200.5702576	nan	nan	nan	nan	nan
568.8896484375	0.0	40	1165086	37	67	80	0	0	1947186.5861689	1947186.5866014	80	1947189.8458834	1947189.8464788	40	1947193.1829207	1947193.1834575	100	del	1947200.5702576	nan	nan	nan	nan	nan
572.2265625	0.0	100	1171920	37	67	80	0	0	1947186.5861689	1947186.5866014	80	1947189.8458834	1947189.8464788	40	1947193.1829207	1947193.1834575	100	del	1947200.5702576	nan	nan	nan	nan	nan
582.28515625	0.0	80	1192520	38	87	370	1	1	1947203.2419566	1947203.2423651	80	1947206.3196198	1947206.3201231	40	1947209.5701695	1947209.570671	100	del	1947212.4186404	1947212.9295162	1947212.9298856	120.0	4.0	1947214.3787808
585.36279296875	0.0	40	1198823	38	87	370	1	1	1947203.2419566	1947203.2423651	80	1947206.3196198	1947206.3201231	40	1947209.5701695	1947209.570671	100	del	1947212.4186404	1947212.9295162	1947212.9298856	120.0	4.0	1947214.3787808
588.61328125	0.0	100	1205480	38	87	370	1	1	1947203.2419566	1947203.2423651	80	1947206.3196198	1947206.3201231	40	1947209.5701695	1947209.570671	100	del	1947212.4186404	1947212.9295162	1947212.9298856	120.0	4.0	1947214.3787808
591.97265625	0.0	120	1212360	38	87	370	1	1	1947203.2419566	1947203.2423651	80	1947206.3196198	1947206.3201231	40	1947209.5701695	1947209.570671	100	del	1947212.4186404	1947212.9295162	1947212.9298856	120.0	4.0	1947214.3787808
595.615234375	0.0	80	1219820	39	80	160	0	1	1947216.5724896	1947216.5727871	80	1947219.9744877	1947219.9749466	40	1947223.3780656	1947223.3785252	100	del	1947225.7947121	nan	nan	nan	nan	nan
599.017578125	0.0	40	1226788	39	80	160	0	1	1947216.5724896	1947216.5727871	80	1947219.9744877	1947219.9749466	40	1947223.3780656	1947223.3785252	100	del	1947225.7947121	nan	nan	nan	nan	nan
602.4208984375	0.0	100	1233758	39	80	160	0	1	1947216.5724896	1947216.5727871	80	1947219.9744877	1947219.9749466	40	1947223.3780656	1947223.3785252	100	del	1947225.7947121	nan	nan	nan	nan	nan
607.68701171875	0.0	80	1244543	40	93	510	0	1	1947228.6442016	1947228.6446378	80	1947231.7159855	1947231.7161884	40	1947234.7387998	1947234.7392908	100	del	1947236.5543405	nan	nan	nan	nan	nan
610.7587890625	0.0	40	1250834	40	93	510	0	1	1947228.6442016	1947228.6446378	80	1947231.7159855	1947231.7161884	40	1947234.7387998	1947234.7392908	100	del	1947236.5543405	nan	nan	nan	nan	nan
613.78125	0.0	100	1257024	40	93	510	0	1	1947228.6442016	1947228.6446378	80	1947231.7159855	1947231.7161884	40	1947234.7387998	1947234.7392908	100	del	1947236.5543405	nan	nan	nan	nan	nan
639.73046875	0.0	80	1310168	41	83	180	1	0	1947260.6886304	1947260.6889927	80	1947263.8451582	1947263.8455265	40	1947267.3285214	1947267.329023	100	del	1947269.9461771	1947270.4570799	1947270.4576142	120.0	3.0	1947271.8030697
642.88671875	0.0	40	1316632	41	83	180	1	0	1947260.6886304	1947260.6889927	80	1947263.8451582	1947263.8455265	40	1947267.3285214	1947267.329023	100	del	1947269.9461771	1947270.4570799	1947270.4576142	120.0	3.0	1947271.8030697
646.3701171875	0.0	100	1323766	41	83	180	1	0	1947260.6886304	1947260.6889927	80	1947263.8451582	1947263.8455265	40	1947267.3285214	1947267.329023	100	del	1947269.9461771	1947270.4570799	1947270.4576142	120.0	3.0	1947271.8030697
649.49853515625	0.0	120	1330173	41	83	180	1	0	1947260.6886304	1947260.6889927	80	1947263.8451582	1947263.8455265	40	1947267.3285214	1947267.329023	100	del	1947269.9461771	1947270.4570799	1947270.4576142	120.0	3.0	1947271.8030697
653.34619140625	0.0	80	1338053	42	77	160	0	1	1947274.3042488	1947274.3044681	80	1947277.4554378	1947277.455942	40	1947280.8693668	1947280.8698487	100	del	1947285.2918254	nan	nan	nan	nan	nan
656.4970703125	0.0	40	1344506	42	77	160	0	1	1947274.3042488	1947274.3044681	80	1947277.4554378	1947277.455942	40	1947280.8693668	1947280.8698487	100	del	1947285.2918254	nan	nan	nan	nan	nan
659.91064453125	0.0	100	1351497	42	77	160	0	1	1947274.3042488	1947274.3044681	80	1947277.4554378	1947277.455942	40	1947280.8693668	1947280.8698487	100	del	1947285.2918254	nan	nan	nan	nan	nan
667.298828125	0.0	80	1366628	43	93	40	1	1	1947288.2573721	1947288.2577918	80	1947291.5638653	1947291.5643992	40	1947295.0186131	1947295.0191521	100	del	1947296.6190571	1947297.1298665	1947297.1302104	120.0	4.0	1947299.4839518
670.60498046875	0.0	40	1373399	43	93	40	1	1	1947288.2573721	1947288.2577918	80	1947291.5638653	1947291.5643992	40	1947295.0186131	1947295.0191521	100	del	1947296.6190571	1947297.1298665	1947297.1302104	120.0	4.0	1947299.4839518
674.0595703125	0.0	100	1380474	43	93	40	1	1	1947288.2573721	1947288.2577918	80	1947291.5638653	1947291.5643992	40	1947295.0186131	1947295.0191521	100	del	1947296.6190571	1947297.1298665	1947297.1302104	120.0	4.0	1947299.4839518
676.1708984375	0.0	120	1384798	43	93	40	1	1	1947288.2573721	1947288.2577918	80	1947291.5638653	1947291.5643992	40	1947295.0186131	1947295.0191521	100	del	1947296.6190571	1947297.1298665	1947297.1302104	120.0	4.0	1947299.4839518
681.0087890625	0.0	80	1394706	44	87	510	0	0	1947301.9679646	1947301.9682526	80	1947305.2505401	1947305.2510015	40	1947308.6280417	1947308.6285088	100	del	1947309.8740683	nan	nan	nan	nan	nan
684.29150390625	0.0	40	1401429	44	87	510	0	0	1947301.9679646	1947301.9682526	80	1947305.2505401	1947305.2510015	40	1947308.6280417	1947308.6285088	100	del	1947309.8740683	nan	nan	nan	nan	nan
687.6689453125	0.0	100	1408346	44	87	510	0	0	1947301.9679646	1947301.9682526	80	1947305.2505401	1947305.2510015	40	1947308.6280417	1947308.6285088	100	del	1947309.8740683	nan	nan	nan	nan	nan
691.720703125	0.0	80	1416644	45	77	140	1	1	1947312.6801583	1947312.6807573	80	1947315.7009482	1947315.7014592	40	1947318.9378119	1947318.9382681	100	del	1947321.4276299	1947321.938558	1947321.9389778	120.0	4.0	1947323.4740682
694.74169921875	0.0	40	1422831	45	77	140	1	1	1947312.6801583	1947312.6807573	80	1947315.7009482	1947315.7014592	40	1947318.9378119	1947318.9382681	100	del	1947321.4276299	1947321.938558	1947321.9389778	120.0	4.0	1947323.4740682
697.97802734375	0.0	100	1429459	45	77	140	1	1	1947312.6801583	1947312.6807573	80	1947315.7009482	1947315.7014592	40	1947318.9378119	1947318.9382681	100	del	1947321.4276299	1947321.938558	1947321.9389778	120.0	4.0	1947323.4740682
700.97900390625	0.0	120	1435605	45	77	140	1	1	1947312.6801583	1947312.6807573	80	1947315.7009482	1947315.7014592	40	1947318.9378119	1947318.9382681	100	del	1947321.4276299	1947321.938558	1947321.9389778	120.0	4.0	1947323.4740682
704.8515625	0.0	80	1443536	46	83	260	0	1	1947325.8112456	1947325.811715	80	1947329.0810686	1947329.081573	40	1947332.2808196	1947332.2813202	100	imm	1947333.9387371	nan	nan	nan	nan	nan
708.12109375	0.0	40	1450232	46	83	260	0	1	1947325.8112456	1947325.811715	80	1947329.0810686	1947329.081573	40	1947332.2808196	1947332.2813202	100	imm	1947333.9387371	nan	nan	nan	nan	nan
711.32080078125	0.0	100	1456785	46	83	260	0	1	1947325.8112456	1947325.811715	80	1947329.0810686	1947329.081573	40	1947332.2808196	1947332.2813202	100	imm	1947333.9387371	nan	nan	nan	nan	nan
715.96337890625	0.0	80	1466293	47	67	370	1	1	1947336.9232315	1947336.9236933	80	1947340.3464526	1947340.3469047	40	1947343.7882855	1947343.7887606	100	imm	1947345.0183478	1947345.5324614	1947345.5329632	120.0	1.0	1947348.1144524
719.38623046875	0.0	40	1473303	47	67	370	1	1	1947336.9232315	1947336.9236933	80	1947340.3464526	1947340.3469047	40	1947343.7882855	1947343.7887606	100	imm	1947345.0183478	1947345.5324614	1947345.5329632	120.0	1.0	1947348.1144524
722.828125	0.0	100	1480352	47	67	370	1	1	1947336.9232315	1947336.9236933	80	1947340.3464526	1947340.3469047	40	1947343.7882855	1947343.7887606	100	imm	1947345.0183478	1947345.5324614	1947345.5329632	120.0	1.0	1947348.1144524
724.572265625	0.0	120	1483924	47	67	370	1	1	1947336.9232315	1947336.9236933	80	1947340.3464526	1947340.3469047	40	1947343.7882855	1947343.7887606	100	imm	1947345.0183478	1947345.5324614	1947345.5329632	120.0	1.0	1947348.1144524
729.35595703125	0.0	80	1493721	48	67	700	1	1	1947350.3162249	1947350.3166384	80	1947353.6203779	1947353.6208224	40	1947357.0700923	1947357.0705857	100	imm	1947359.9062656	1947360.4196521	1947360.4201369	120.0	4.0	1947361.338195
732.66015625	0.0	40	1500488	48	67	700	1	1	1947350.3162249	1947350.3166384	80	1947353.6203779	1947353.6208224	40	1947357.0700923	1947357.0705857	100	imm	1947359.9062656	1947360.4196521	1947360.4201369	120.0	4.0	1947361.338195
736.109375	0.0	100	1507552	48	67	700	1	1	1947350.3162249	1947350.3166384	80	1947353.6203779	1947353.6208224	40	1947357.0700923	1947357.0705857	100	imm	1947359.9062656	1947360.4196521	1947360.4201369	120.0	4.0	1947361.338195
739.458984375	0.0	120	1514412	48	67	700	1	1	1947350.3162249	1947350.3166384	80	1947353.6203779	1947353.6208224	40	1947357.0700923	1947357.0705857	100	imm	1947359.9062656	1947360.4196521	1947360.4201369	120.0	4.0	1947361.338195
742.857421875	0.0	80	1521372	49	80	180	1	0	1947363.8180427	1947363.8184107	80	1947367.1600511	1947367.1605321	40	1947370.2766764	1947370.2771342	100	del	1947372.0997254	1947372.6107251	1947372.6110933	120.0	4.0	1947373.2346735
746.19921875	0.0	40	1528216	49	80	180	1	0	1947363.8180427	1947363.8184107	80	1947367.1600511	1947367.1605321	40	1947370.2766764	1947370.2771342	100	del	1947372.0997254	1947372.6107251	1947372.6110933	120.0	4.0	1947373.2346735
749.31591796875	0.0	100	1534599	49	80	180	1	0	1947363.8180427	1947363.8184107	80	1947367.1600511	1947367.1605321	40	1947370.2766764	1947370.2771342	100	del	1947372.0997254	1947372.6107251	1947372.6110933	120.0	4.0	1947373.2346735
751.64990234375	0.0	120	1539379	49	80	180	1	0	1947363.8180427	1947363.8184107	80	1947367.1600511	1947367.1605321	40	1947370.2766764	1947370.2771342	100	del	1947372.0997254	1947372.6107251	1947372.6110933	120.0	4.0	1947373.2346735
754.61474609375	0.0	80	1545451	50	70	700	1	0	1947375.5756881	1947375.576241	80	1947378.6192842	1947378.6197731	40	1947381.8354934	1947381.8359637	100	imm	1947385.9147786	1947386.4269688	1947386.4273511	120.0	2.0	1947388.0020944
757.658203125	0.0	40	1551684	50	70	700	1	0	1947375.5756881	1947375.576241	80	1947378.6192842	1947378.6197731	40	1947381.8354934	1947381.8359637	100	imm	1947385.9147786	1947386.4269688	1947386.4273511	120.0	2.0	1947388.0020944
760.87451171875	0.0	100	1558271	50	70	700	1	0	1947375.5756881	1947375.576241	80	1947378.6192842	1947378.6197731	40	1947381.8354934	1947381.8359637	100	imm	1947385.9147786	1947386.4269688	1947386.4273511	120.0	2.0	1947388.0020944
765.4658203125	0.0	120	1567674	50	70	700	1	0	1947375.5756881	1947375.576241	80	1947378.6192842	1947378.6197731	40	1947381.8354934	1947381.8359637	100	imm	1947385.9147786	1947386.4269688	1947386.4273511	120.0	2.0	1947388.0020944
769.39013671875	0.0	80	1575711	51	57	370	1	1	1947390.3512542	1947390.3519207	80	1947393.8262252	1947393.8267258	40	1947397.2418196	1947397.2421614	100	imm	1947398.7139832	1947399.2248403	1947399.2251748	120.0	1.0	1947400.8518247
772.86474609375	0.0	40	1582827	51	57	370	1	1	1947390.3512542	1947390.3519207	80	1947393.8262252	1947393.8267258	40	1947397.2418196	1947397.2421614	100	imm	1947398.7139832	1947399.2248403	1947399.2251748	120.0	1.0	1947400.8518247
776.2802734375	0.0	100	1589822	51	57	370	1	1	1947390.3512542	1947390.3519207	80	1947393.8262252	1947393.8267258	40	1947397.2418196	1947397.2421614	100	imm	1947398.7139832	1947399.2248403	1947399.2251748	120.0	1.0	1947400.8518247
778.26318359375	0.0	120	1593883	51	57	370	1	1	1947390.3512542	1947390.3519207	80	1947393.8262252	1947393.8267258	40	1947397.2418196	1947397.2421614	100	imm	1947398.7139832	1947399.2248403	1947399.2251748	120.0	1.0	1947400.8518247
782.1484375	0.0	80	1601840	52	53	160	0	0	1947403.1100036	1947403.1104508	80	1947406.4958279	1947406.4963512	40	1947409.717163	1947409.7176769	100	imm	1947411.7945746	nan	nan	nan	nan	nan
785.5341796875	0.0	40	1608774	52	53	160	0	0	1947403.1100036	1947403.1104508	80	1947406.4958279	1947406.4963512	40	1947409.717163	1947409.7176769	100	imm	1947411.7945746	nan	nan	nan	nan	nan
788.75537109375	0.0	100	1615371	52	53	160	0	0	1947403.1100036	1947403.1104508	80	1947406.4958279	1947406.4963512	40	1947409.717163	1947409.7176769	100	imm	1947411.7945746	nan	nan	nan	nan	nan
793.8359375	0.0	80	1625776	53	67	260	0	0	1947414.7977292	1947414.7981744	80	1947418.2992046	1947418.2996878	40	1947421.7414679	1947421.741866	100	imm	1947422.8018101	nan	nan	nan	nan	nan
797.3369140625	0.0	40	1632946	53	67	260	0	0	1947414.7977292	1947414.7981744	80	1947418.2992046	1947418.2996878	40	1947421.7414679	1947421.741866	100	imm	1947422.8018101	nan	nan	nan	nan	nan
800.779296875	0.0	100	1639996	53	67	260	0	0	1947414.7977292	1947414.7981744	80	1947418.2992046	1947418.2996878	40	1947421.7414679	1947421.741866	100	imm	1947422.8018101	nan	nan	nan	nan	nan
804.552734375	0.0	80	1647724	54	53	370	1	1	1947425.5147556	1947425.5152615	80	1947428.7500833	1947428.7506568	40	1947431.8869557	1947431.8874656	100	imm	1947435.2903301	1947435.80182	1947435.8022297	120.0	1.0	1947436.8179253
807.7880859375	0.0	40	1654350	54	53	370	1	1	1947425.5147556	1947425.5152615	80	1947428.7500833	1947428.7506568	40	1947431.8869557	1947431.8874656	100	imm	1947435.2903301	1947435.80182	1947435.8022297	120.0	1.0	1947436.8179253
810.9248046875	0.0	100	1660774	54	53	370	1	1	1947425.5147556	1947425.5152615	80	1947428.7500833	1947428.7506568	40	1947431.8869557	1947431.8874656	100	imm	1947435.2903301	1947435.80182	1947435.8022297	120.0	1.0	1947436.8179253
814.83935546875	0.0	120	1668791	54	53	370	1	1	1947425.5147556	1947425.5152615	80	1947428.7500833	1947428.7506568	40	1947431.8869557	1947431.8874656	100	imm	1947435.2903301	1947435.80182	1947435.8022297	120.0	1.0	1947436.8179253
818.2626953125	0.0	80	1675802	55	63	80	0	0	1947439.2253115	1947439.2258363	80	1947442.6742189	1947442.6746609	40	1947446.14386	1947446.1443544	100	imm	1947449.7945213	nan	nan	nan	nan	nan
821.71142578125	0.0	40	1682865	55	63	80	0	0	1947439.2253115	1947439.2258363	80	1947442.6742189	1947442.6746609	40	1947446.14386	1947446.1443544	100	imm	1947449.7945213	nan	nan	nan	nan	nan
825.18115234375	0.0	100	1689971	55	63	80	0	0	1947439.2253115	1947439.2258363	80	1947442.6742189	1947442.6746609	40	1947446.14386	1947446.1443544	100	imm	1947449.7945213	nan	nan	nan	nan	nan
831.626953125	0.0	80	1703172	56	83	40	1	1	1947452.5899025	1947452.5903512	80	1947455.8973806	1947455.8979357	40	1947458.9856348	1947458.9861073	100	del	1947460.6505634	1947461.1617364	1947461.1621743	120.0	4.0	1947461.8584494
834.9345703125	0.0	40	1709946	56	83	40	1	1	1947452.5899025	1947452.5903512	80	1947455.8973806	1947455.8979357	40	1947458.9856348	1947458.9861073	100	del	1947460.6505634	1947461.1617364	1947461.1621743	120.0	4.0	1947461.8584494
838.0224609375	0.0	100	1716270	56	83	40	1	1	1947452.5899025	1947452.5903512	80	1947455.8973806	1947455.8979357	40	1947458.9856348	1947458.9861073	100	del	1947460.6505634	1947461.1617364	1947461.1621743	120.0	4.0	1947461.8584494
840.19873046875	0.0	120	1720727	56	83	40	1	1	1947452.5899025	1947452.5903512	80	1947455.8973806	1947455.8979357	40	1947458.9856348	1947458.9861073	100	del	1947460.6505634	1947461.1617364	1947461.1621743	120.0	4.0	1947461.8584494
843.35888671875	0.0	80	1727199	57	97	80	0	1	1947464.3219357	1947464.3224602	80	1947467.5546259	1947467.5550887	40	1947470.6706539	1947470.671101	100	del	1947472.002355	nan	nan	nan	nan	nan
846.59130859375	0.0	40	1733819	57	97	80	0	1	1947464.3219357	1947464.3224602	80	1947467.5546259	1947467.5550887	40	1947470.6706539	1947470.671101	100	del	1947472.002355	nan	nan	nan	nan	nan
849.70751953125	0.0	100	1740201	57	97	80	0	1	1947464.3219357	1947464.3224602	80	1947467.5546259	1947467.5550887	40	1947470.6706539	1947470.671101	100	del	1947472.002355	nan	nan	nan	nan	nan
854.0048828125	0.0	80	1749002	58	80	510	0	1	1947474.967962	1947474.9685675	80	1947478.3569183	1947478.3573378	40	1947481.8116044	1947481.812289	100	imm	1947483.0912198	nan	nan	nan	nan	nan
857.3935546875	0.0	40	1755942	58	80	510	0	1	1947474.967962	1947474.9685675	80	1947478.3569183	1947478.3573378	40	1947481.8116044	1947481.812289	100	imm	1947483.0912198	nan	nan	nan	nan	nan
860.84814453125	0.0	100	1763017	58	80	510	0	1	1947474.967962	1947474.9685675	80	1947478.3569183	1947478.3573378	40	1947481.8116044	1947481.812289	100	imm	1947483.0912198	nan	nan	nan	nan	nan
864.78857421875	0.0	80	1771087	59	70	140	1	1	1947485.752405	1947485.7529001	80	1947489.0985431	1947489.0990718	40	1947492.4437398	1947492.4443418	100	del	1947498.9860893	1947499.4970428	1947499.4973523	120.0	3.0	1947501.6899233
868.134765625	0.0	40	1777940	59	70	140	1	1	1947485.752405	1947485.7529001	80	1947489.0985431	1947489.0990718	40	1947492.4437398	1947492.4443418	100	del	1947498.9860893	1947499.4970428	1947499.4973523	120.0	3.0	1947501.6899233
871.47998046875	0.0	100	1784791	59	70	140	1	1	1947485.752405	1947485.7529001	80	1947489.0985431	1947489.0990718	40	1947492.4437398	1947492.4443418	100	del	1947498.9860893	1947499.4970428	1947499.4973523	120.0	3.0	1947501.6899233
878.53271484375	0.0	120	1799235	59	70	140	1	1	1947485.752405	1947485.7529001	80	1947489.0985431	1947489.0990718	40	1947492.4437398	1947492.4443418	100	del	1947498.9860893	1947499.4970428	1947499.4973523	120.0	3.0	1947501.6899233
882.80078125	0.0	80	1807976	60	57	160	0	1	1947503.7650131	1947503.765552	80	1947506.976744	1947506.9772048	40	1947510.1275542	1947510.1280645	100	imm	1947511.330067	nan	nan	nan	nan	nan
886.0126953125	0.0	40	1814554	60	57	160	0	1	1947503.7650131	1947503.765552	80	1947506.976744	1947506.9772048	40	1947510.1275542	1947510.1280645	100	imm	1947511.330067	nan	nan	nan	nan	nan
889.1630859375	0.0	100	1821006	60	57	160	0	1	1947503.7650131	1947503.765552	80	1947506.976744	1947506.9772048	40	1947510.1275542	1947510.1280645	100	imm	1947511.330067	nan	nan	nan	nan	nan
932.29345703125	0.0	80	1909337	61	73	40	1	0	1947553.258627	1947553.259112	80	1947556.4076787	1947556.4081592	40	1947559.8693604	1947559.8700187	100	del	1947561.1389471	1947561.6522342	1947561.6528943	120.0	2.0	1947563.8833453
935.4423828125	0.0	40	1915786	61	73	40	1	0	1947553.258627	1947553.259112	80	1947556.4076787	1947556.4081592	40	1947559.8693604	1947559.8700187	100	del	1947561.1389471	1947561.6522342	1947561.6528943	120.0	2.0	1947563.8833453
938.90380859375	0.0	100	1922875	61	73	40	1	0	1947553.258627	1947553.259112	80	1947556.4076787	1947556.4081592	40	1947559.8693604	1947559.8700187	100	del	1947561.1389471	1947561.6522342	1947561.6528943	120.0	2.0	1947563.8833453
940.6865234375	0.0	120	1926526	61	73	40	1	0	1947553.258627	1947553.259112	80	1947556.4076787	1947556.4081592	40	1947559.8693604	1947559.8700187	100	del	1947561.1389471	1947561.6522342	1947561.6528943	120.0	2.0	1947563.8833453
945.34765625	0.0	80	1936072	62	93	970	0	1	1947566.3132492	1947566.3137645	80	1947569.5131832	1947569.5133643	40	1947572.7748013	1947572.7752829	100	imm	1947573.6263196	nan	nan	nan	nan	nan
948.5478515625	0.0	40	1942626	62	93	970	0	1	1947566.3132492	1947566.3137645	80	1947569.5131832	1947569.5133643	40	1947572.7748013	1947572.7752829	100	imm	1947573.6263196	nan	nan	nan	nan	nan
951.80908203125	0.0	100	1949305	62	93	970	0	1	1947566.3132492	1947566.3137645	80	1947569.5131832	1947569.5133643	40	1947572.7748013	1947572.7752829	100	imm	1947573.6263196	nan	nan	nan	nan	nan
955.525390625	0.0	80	1956916	63	80	700	1	1	1947576.491509	1947576.4923101	80	1947579.9162124	1947579.9167698	40	1947583.237243	1947583.2380833	100	imm	1947585.8674772	1947586.3769857	1947586.3773166	120.0	1.0	1947588.3298847
958.9501953125	0.0	40	1963930	63	80	700	1	1	1947576.491509	1947576.4923101	80	1947579.9162124	1947579.9167698	40	1947583.237243	1947583.2380833	100	imm	1947585.8674772	1947586.3769857	1947586.3773166	120.0	1.0	1947588.3298847
962.27099609375	0.0	100	1970731	63	80	700	1	1	1947576.491509	1947576.4923101	80	1947579.9162124	1947579.9167698	40	1947583.237243	1947583.2380833	100	imm	1947585.8674772	1947586.3769857	1947586.3773166	120.0	1.0	1947588.3298847
965.41064453125	0.0	120	1977161	63	80	700	1	1	1947576.491509	1947576.4923101	80	1947579.9162124	1947579.9167698	40	1947583.237243	1947583.2380833	100	imm	1947585.8674772	1947586.3769857	1947586.3773166	120.0	1.0	1947588.3298847
969.66748046875	0.0	80	1985879	64	70	180	1	1	1947590.633954	1947590.6346966	80	1947593.8034382	1947593.8037247	40	1947597.04276	1947597.0431296	100	del	1947599.8752929	1947600.3888246	1947600.3893282	120.0	1.0	1947601.5704711
972.8369140625	0.0	40	1992370	64	70	180	1	1	1947590.633954	1947590.6346966	80	1947593.8034382	1947593.8037247	40	1947597.04276	1947597.0431296	100	del	1947599.8752929	1947600.3888246	1947600.3893282	120.0	1.0	1947601.5704711
976.076171875	0.0	100	1999004	64	70	180	1	1	1947590.633954	1947590.6346966	80	1947593.8034382	1947593.8037247	40	1947597.04276	1947597.0431296	100	del	1947599.8752929	1947600.3888246	1947600.3893282	120.0	1.0	1947601.5704711
979.42236328125	0.0	120	2005857	64	70	180	1	1	1947590.633954	1947590.6346966	80	1947593.8034382	1947593.8037247	40	1947597.04276	1947597.0431296	100	del	1947599.8752929	1947600.3888246	1947600.3893282	120.0	1.0	1947601.5704711
982.9755859375	0.0	80	2013134	65	90	180	1	0	1947603.9421067	1947603.9426208	80	1947607.3922062	1947607.3926356	40	1947610.7656836	1947610.7661561	100	del	1947612.2430986	1947612.754514	1947612.7549089	120.0	2.0	1947614.0191278
986.42529296875	0.0	40	2020199	65	90	180	1	0	1947603.9421067	1947603.9426208	80	1947607.3922062	1947607.3926356	40	1947610.7656836	1947610.7661561	100	del	1947612.2430986	1947612.754514	1947612.7549089	120.0	2.0	1947614.0191278
989.798828125	0.0	100	2027108	65	90	180	1	0	1947603.9421067	1947603.9426208	80	1947607.3922062	1947607.3926356	40	1947610.7656836	1947610.7661561	100	del	1947612.2430986	1947612.754514	1947612.7549089	120.0	2.0	1947614.0191278
991.78759765625	0.0	120	2031181	65	90	180	1	0	1947603.9421067	1947603.9426208	80	1947607.3922062	1947607.3926356	40	1947610.7656836	1947610.7661561	100	del	1947612.2430986	1947612.754514	1947612.7549089	120.0	2.0	1947614.0191278
995.0751953125	0.0	80	2037914	66	60	510	0	0	1947616.0423951	1947616.0426954	80	1947619.3876934	1947619.388164	40	1947622.6201638	1947622.620683	100	imm	1947623.7951267	nan	nan	nan	nan	nan
998.4208984375	0.0	40	2044766	66	60	510	0	0	1947616.0423951	1947616.0426954	80	1947619.3876934	1947619.388164	40	1947622.6201638	1947622.620683	100	imm	1947623.7951267	nan	nan	nan	nan	nan
1001.65283203125	0.0	100	2051385	66	60	510	0	0	1947616.0423951	1947616.0426954	80	1947619.3876934	1947619.388164	40	1947622.6201638	1947622.620683	100	imm	1947623.7951267	nan	nan	nan	nan	nan
1005.5625	0.0	80	2059392	67	77	80	0	0	1947626.5296376	1947626.5301617	80	1947629.5959288	1947629.5964502	40	1947633.0167208	1947633.0172363	100	imm	1947637.6095761	nan	nan	nan	nan	nan
1008.62890625	0.0	40	2065672	67	77	80	0	0	1947626.5296376	1947626.5301617	80	1947629.5959288	1947629.5964502	40	1947633.0167208	1947633.0172363	100	imm	1947637.6095761	nan	nan	nan	nan	nan
1012.04931640625	0.0	100	2072677	67	77	80	0	0	1947626.5296376	1947626.5301617	80	1947629.5959288	1947629.5964502	40	1947633.0167208	1947633.0172363	100	imm	1947637.6095761	nan	nan	nan	nan	nan
1019.32177734375	0.0	80	2087571	68	83	970	0	1	1947640.2893235	1947640.2897901	80	1947643.420391	1947643.4209183	40	1947646.6045242	1947646.6050389	100	imm	1947647.7615397	nan	nan	nan	nan	nan
1022.45263671875	0.0	40	2093983	68	83	970	0	1	1947640.2893235	1947640.2897901	80	1947643.420391	1947643.4209183	40	1947646.6045242	1947646.6050389	100	imm	1947647.7615397	nan	nan	nan	nan	nan
1025.63671875	0.0	100	2100504	68	83	970	0	1	1947640.2893235	1947640.2897901	80	1947643.420391	1947643.4209183	40	1947646.6045242	1947646.6050389	100	imm	1947647.7615397	nan	nan	nan	nan	nan
1029.49609375	0.0	80	2108408	69	57	80	0	1	1947650.4639163	1947650.4641751	80	1947653.7447778	1947653.7452863	40	1947657.0358573	1947657.0363248	100	imm	1947659.6582541	nan	nan	nan	nan	nan
1032.77685546875	0.0	40	2115127	69	57	80	0	1	1947650.4639163	1947650.4641751	80	1947653.7447778	1947653.7452863	40	1947657.0358573	1947657.0363248	100	imm	1947659.6582541	nan	nan	nan	nan	nan
1036.06787109375	0.0	100	2121867	69	57	80	0	1	1947650.4639163	1947650.4641751	80	1947653.7447778	1947653.7452863	40	1947657.0358573	1947657.0363248	100	imm	1947659.6582541	nan	nan	nan	nan	nan
1041.40234375	0.0	80	2132792	70	80	140	1	1	1947662.3706298	1947662.370996	80	1947665.5778469	1947665.5783436	40	1947668.8488614	1947668.8494291	100	del	1947669.8343178	1947670.3476571	1947670.3481794	120.0	3.0	1947672.1142184
1044.60986328125	0.0	40	2139361	70	80	140	1	1	1947662.3706298	1947662.370996	80	1947665.5778469	1947665.5783436	40	1947668.8488614	1947668.8494291	100	del	1947669.8343178	1947670.3476571	1947670.3481794	120.0	3.0	1947672.1142184
1047.880859375	0.0	100	2146060	70	80	140	1	1	1947662.3706298	1947662.370996	80	1947665.5778469	1947665.5783436	40	1947668.8488614	1947668.8494291	100	del	1947669.8343178	1947670.3476571	1947670.3481794	120.0	3.0	1947672.1142184
1049.37939453125	0.0	120	2149129	70	80	140	1	1	1947662.3706298	1947662.370996	80	1947665.5778469	1947665.5783436	40	1947668.8488614	1947668.8494291	100	del	1947669.8343178	1947670.3476571	1947670.3481794	120.0	3.0	1947672.1142184
1053.4892578125	0.0	80	2157546	71	60	370	1	0	1947674.4575693	1947674.4580076	80	1947677.9409959	1947677.9414849	40	1947681.3151213	1947681.3156247	100	imm	1947693.3062077	1947693.8197197	1947693.8215205	120.0	1.0	1947696.7300703
1056.97265625	0.0	40	2164680	71	60	370	1	0	1947674.4575693	1947674.4580076	80	1947677.9409959	1947677.9414849	40	1947681.3151213	1947681.3156247	100	imm	1947693.3062077	1947693.8197197	1947693.8215205	120.0	1.0	1947696.7300703
1060.3466796875	0.0	100	2171590	71	60	370	1	0	1947674.4575693	1947674.4580076	80	1947677.9409959	1947677.9414849	40	1947681.3151213	1947681.3156247	100	imm	1947693.3062077	1947693.8197197	1947693.8215205	120.0	1.0	1947696.7300703
1072.8505859375	0.0	120	2197198	71	60	370	1	0	1947674.4575693	1947674.4580076	80	1947677.9409959	1947677.9414849	40	1947681.3151213	1947681.3156247	100	imm	1947693.3062077	1947693.8197197	1947693.8215205	120.0	1.0	1947696.7300703
1077.97314453125	0.0	80	2207689	72	90	510	0	0	1947698.9419997	1947698.9422618	80	1947702.3651485	1947702.3656259	40	1947705.4456717	1947705.4461427	100	imm	1947709.1296833	nan	nan	nan	nan	nan
1081.39599609375	0.0	40	2214699	72	90	510	0	0	1947698.9419997	1947698.9422618	80	1947702.3651485	1947702.3656259	40	1947705.4456717	1947705.4461427	100	imm	1947709.1296833	nan	nan	nan	nan	nan
1084.4765625	0.0	100	2221008	72	90	510	0	0	1947698.9419997	1947698.9422618	80	1947702.3651485	1947702.3656259	40	1947705.4456717	1947705.4461427	100	imm	1947709.1296833	nan	nan	nan	nan	nan
1090.70361328125	0.0	80	2233761	73	90	700	1	0	1947711.6727773	1947711.6729713	80	1947714.7224638	1947714.7228387	40	1947717.818515	1947717.8190358	100	del	1947718.7694118	1947719.2787513	1947719.2790598	120.0	1.0	1947720.9693443
1093.7529296875	0.0	40	2240006	73	90	700	1	0	1947711.6727773	1947711.6729713	80	1947714.7224638	1947714.7228387	40	1947717.818515	1947717.8190358	100	del	1947718.7694118	1947719.2787513	1947719.2790598	120.0	1.0	1947720.9693443
1096.84912109375	0.0	100	2246347	73	90	700	1	0	1947711.6727773	1947711.6729713	80	1947714.7224638	1947714.7228387	40	1947717.818515	1947717.8190358	100	del	1947718.7694118	1947719.2787513	1947719.2790598	120.0	1.0	1947720.9693443
1098.30908203125	0.0	120	2249337	73	90	700	1	0	1947711.6727773	1947711.6729713	80	1947714.7224638	1947714.7228387	40	1947717.818515	1947717.8190358	100	del	1947718.7694118	1947719.2787513	1947719.2790598	120.0	1.0	1947720.9693443
1102.1767578125	0.0	80	2257258	74	53	970	0	0	1947723.1462959	1947723.1468101	80	1947726.3044744	1947726.3049659	40	1947729.3237632	1947729.3242818	100	imm	1947732.4016292	nan	nan	nan	nan	nan
1105.3349609375	0.0	40	2263726	74	53	970	0	0	1947723.1462959	1947723.1468101	80	1947726.3044744	1947726.3049659	40	1947729.3237632	1947729.3242818	100	imm	1947732.4016292	nan	nan	nan	nan	nan
1108.35400390625	0.0	100	2269909	74	53	970	0	0	1947723.1462959	1947723.1468101	80	1947726.3044744	1947726.3049659	40	1947729.3237632	1947729.3242818	100	imm	1947732.4016292	nan	nan	nan	nan	nan
1114.21630859375	0.0	80	2281915	75	83	700	1	0	1947735.1863313	1947735.1867923	80	1947738.2414948	1947738.2419762	40	1947741.3276351	1947741.3281471	100	imm	1947743.2413337	1947743.7559603	1947743.7564557	120.0	2.0	1947745.6814695
1117.271484375	0.0	40	2288172	75	83	700	1	0	1947735.1863313	1947735.1867923	80	1947738.2414948	1947738.2419762	40	1947741.3276351	1947741.3281471	100	imm	1947743.2413337	1947743.7559603	1947743.7564557	120.0	2.0	1947745.6814695
1120.357421875	0.0	100	2294492	75	83	700	1	0	1947735.1863313	1947735.1867923	80	1947738.2414948	1947738.2419762	40	1947741.3276351	1947741.3281471	100	imm	1947743.2413337	1947743.7559603	1947743.7564557	120.0	2.0	1947745.6814695
1122.78564453125	0.0	120	2299465	75	83	700	1	0	1947735.1863313	1947735.1867923	80	1947738.2414948	1947738.2419762	40	1947741.3276351	1947741.3281471	100	imm	1947743.2413337	1947743.7559603	1947743.7564557	120.0	2.0	1947745.6814695
1127.0400390625	0.0	80	2308178	76	53	40	1	1	1947748.0102724	1947748.0107274	80	1947751.4486155	1947751.4490283	40	1947754.9490129	1947754.9495347	100	imm	1947757.9051102	1947758.4160268	1947758.4163176	120.0	2.0	1947761.5055219
1130.478515625	0.0	40	2315220	76	53	40	1	1	1947748.0102724	1947748.0107274	80	1947751.4486155	1947751.4490283	40	1947754.9490129	1947754.9495347	100	imm	1947757.9051102	1947758.4160268	1947758.4163176	120.0	2.0	1947761.5055219
1133.978515625	0.0	100	2322388	76	53	40	1	1	1947748.0102724	1947748.0107274	80	1947751.4486155	1947751.4490283	40	1947754.9490129	1947754.9495347	100	imm	1947757.9051102	1947758.4160268	1947758.4163176	120.0	2.0	1947761.5055219
1137.4453125	0.0	120	2329488	76	53	40	1	1	1947748.0102724	1947748.0107274	80	1947751.4486155	1947751.4490283	40	1947754.9490129	1947754.9495347	100	imm	1947757.9051102	1947758.4160268	1947758.4163176	120.0	2.0	1947761.5055219
1142.83251953125	0.0	80	2340521	77	73	700	1	1	1947763.8031515	1947763.8034903	80	1947767.3088576	1947767.3092896	40	1947770.6001753	1947770.6006479	100	del	1947772.4173479	1947772.9300008	1947772.9304323	120.0	2.0	1947773.9775999
1146.33837890625	0.0	40	2347701	77	73	700	1	1	1947763.8031515	1947763.8034903	80	1947767.3088576	1947767.3092896	40	1947770.6001753	1947770.6006479	100	del	1947772.4173479	1947772.9300008	1947772.9304323	120.0	2.0	1947773.9775999
1149.62939453125	0.0	100	2354441	77	73	700	1	1	1947763.8031515	1947763.8034903	80	1947767.3088576	1947767.3092896	40	1947770.6001753	1947770.6006479	100	del	1947772.4173479	1947772.9300008	1947772.9304323	120.0	2.0	1947773.9775999
1151.958984375	0.0	120	2359212	77	73	700	1	1	1947763.8031515	1947763.8034903	80	1947767.3088576	1947767.3092896	40	1947770.6001753	1947770.6006479	100	del	1947772.4173479	1947772.9300008	1947772.9304323	120.0	2.0	1947773.9775999
1155.27978515625	0.0	80	2366013	78	100	180	1	0	1947776.2505013	1947776.2509611	80	1947779.4233224	1947779.4237339	40	1947782.6517519	1947782.652239	100	del	1947786.5379741	1947787.0501322	1947787.0505594	120.0	3.0	1947788.2090664
1158.4521484375	0.0	40	2372510	78	100	180	1	0	1947776.2505013	1947776.2509611	80	1947779.4233224	1947779.4237339	40	1947782.6517519	1947782.652239	100	del	1947786.5379741	1947787.0501322	1947787.0505594	120.0	3.0	1947788.2090664
1161.6806640625	0.0	100	2379122	78	100	180	1	0	1947776.2505013	1947776.2509611	80	1947779.4233224	1947779.4237339	40	1947782.6517519	1947782.652239	100	del	1947786.5379741	1947787.0501322	1947787.0505594	120.0	3.0	1947788.2090664
1166.0791015625	0.0	120	2388130	78	100	180	1	0	1947776.2505013	1947776.2509611	80	1947779.4233224	1947779.4237339	40	1947782.6517519	1947782.652239	100	del	1947786.5379741	1947787.0501322	1947787.0505594	120.0	3.0	1947788.2090664
1169.49853515625	0.0	80	2395133	79	87	260	0	0	1947790.4696011	1947790.4701178	80	1947793.5124424	1947793.512893	40	1947796.9692319	1947796.9697273	100	imm	1947798.7776729	nan	nan	nan	nan	nan
1172.541015625	0.0	40	2401364	79	87	260	0	0	1947790.4696011	1947790.4701178	80	1947793.5124424	1947793.512893	40	1947796.9692319	1947796.9697273	100	imm	1947798.7776729	nan	nan	nan	nan	nan
1175.998046875	0.0	100	2408444	79	87	260	0	0	1947790.4696011	1947790.4701178	80	1947793.5124424	1947793.512893	40	1947796.9692319	1947796.9697273	100	imm	1947798.7776729	nan	nan	nan	nan	nan
1180.35595703125	0.0	80	2417369	80	73	160	0	1	1947801.3272692	1947801.3277442	80	1947804.5530756	1947804.5535247	40	1947807.9798681	1947807.9804278	100	del	1947810.8578725	nan	nan	nan	nan	nan
1183.58154296875	0.0	40	2423975	80	73	160	0	1	1947801.3272692	1947801.3277442	80	1947804.5530756	1947804.5535247	40	1947807.9798681	1947807.9804278	100	del	1947810.8578725	nan	nan	nan	nan	nan
1187.00830078125	0.0	100	2430993	80	73	160	0	1	1947801.3272692	1947801.3277442	80	1947804.5530756	1947804.5535247	40	1947807.9798681	1947807.9804278	100	del	1947810.8578725	nan	nan	nan	nan	nan
1235.40771484375	0.0	80	2530115	81	50	180	1	0	1947856.3807381	1947856.3810087	80	1947859.6948107	1947859.69531	40	1947863.1177645	1947863.1182511	100	imm	1947865.3215725	1947865.8309762	1947865.8312941	120.0	1.0	1947866.5371685
1238.7216796875	0.0	40	2536902	81	50	180	1	0	1947856.3807381	1947856.3810087	80	1947859.6948107	1947859.69531	40	1947863.1177645	1947863.1182511	100	imm	1947865.3215725	1947865.8309762	1947865.8312941	120.0	1.0	1947866.5371685
1242.14453125	0.0	100	2543912	81	50	180	1	0	1947856.3807381	1947856.3810087	80	1947859.6948107	1947859.69531	40	1947863.1177645	1947863.1182511	100	imm	1947865.3215725	1947865.8309762	1947865.8312941	120.0	1.0	1947866.5371685
1244.85791015625	0.0	120	2549469	81	50	180	1	0	1947856.3807381	1947856.3810087	80	1947859.6948107	1947859.69531	40	1947863.1177645	1947863.1182511	100	imm	1947865.3215725	1947865.8309762	1947865.8312941	120.0	1.0	1947866.5371685
1248.02099609375	0.0	80	2555947	82	87	160	0	1	1947868.9943175	1947868.9946515	80	1947872.4668866	1947872.4672845	40	1947875.5753248	1947875.5758245	100	imm	1947878.2177266	nan	nan	nan	nan	nan
1251.49365234375	0.0	40	2563059	82	87	160	0	1	1947868.9943175	1947868.9946515	80	1947872.4668866	1947872.4672845	40	1947875.5753248	1947875.5758245	100	imm	1947878.2177266	nan	nan	nan	nan	nan
1254.60205078125	0.0	100	2569425	82	87	160	0	1	1947868.9943175	1947868.9946515	80	1947872.4668866	1947872.4672845	40	1947875.5753248	1947875.5758245	100	imm	1947878.2177266	nan	nan	nan	nan	nan
1259.890625	0.0	80	2580256	83	97	180	1	1	1947880.8638155	1947880.864455	80	1947884.3204141	1947884.3209402	40	1947887.6301924	1947887.6307125	100	del	1947888.1768409	1947888.6871105	1947888.6874422	120.0	2.0	1947889.3465986
1263.3466796875	0.0	40	2587334	83	97	180	1	1	1947880.8638155	1947880.864455	80	1947884.3204141	1947884.3209402	40	1947887.6301924	1947887.6307125	100	del	1947888.1768409	1947888.6871105	1947888.6874422	120.0	2.0	1947889.3465986
1266.65673828125	0.0	100	2594113	83	97	180	1	1	1947880.8638155	1947880.864455	80	1947884.3204141	1947884.3209402	40	1947887.6301924	1947887.6307125	100	del	1947888.1768409	1947888.6871105	1947888.6874422	120.0	2.0	1947889.3465986
1267.71337890625	0.0	120	2596277	83	97	180	1	1	1947880.8638155	1947880.864455	80	1947884.3204141	1947884.3209402	40	1947887.6301924	1947887.6307125	100	del	1947888.1768409	1947888.6871105	1947888.6874422	120.0	2.0	1947889.3465986
1270.63720703125	0.0	80	2602265	84	63	700	1	1	1947891.6104182	1947891.6106149	80	1947894.9239836	1947894.9244712	40	1947898.3480061	1947898.3484383	100	imm	1947899.5857333	1947900.0964887	1947900.096853	120.0	3.0	1947903.1130588
1273.9501953125	0.0	40	2609050	84	63	700	1	1	1947891.6104182	1947891.6106149	80	1947894.9239836	1947894.9244712	40	1947898.3480061	1947898.3484383	100	imm	1947899.5857333	1947900.0964887	1947900.096853	120.0	3.0	1947903.1130588
1277.3740234375	0.0	100	2616062	84	63	700	1	1	1947891.6104182	1947891.6106149	80	1947894.9239836	1947894.9244712	40	1947898.3480061	1947898.3484383	100	imm	1947899.5857333	1947900.0964887	1947900.096853	120.0	3.0	1947903.1130588
1279.12255859375	0.0	120	2619643	84	63	700	1	1	1947891.6104182	1947891.6106149	80	1947894.9239836	1947894.9244712	40	1947898.3480061	1947898.3484383	100	imm	1947899.5857333	1947900.0964887	1947900.096853	120.0	3.0	1947903.1130588
1284.419921875	0.0	80	2630492	85	87	80	0	1	1947905.3939255	1947905.3945434	80	1947908.5027045	1947908.5031734	40	1947911.7426626	1947911.7431476	100	del	1947916.9777578	nan	nan	nan	nan	nan
1287.5283203125	0.0	40	2636858	85	87	80	0	1	1947905.3939255	1947905.3945434	80	1947908.5027045	1947908.5031734	40	1947911.7426626	1947911.7431476	100	del	1947916.9777578	nan	nan	nan	nan	nan
1290.7685546875	0.0	100	2643494	85	87	80	0	1	1947905.3939255	1947905.3945434	80	1947908.5027045	1947908.5031734	40	1947911.7426626	1947911.7431476	100	del	1947916.9777578	nan	nan	nan	nan	nan
1298.732421875	0.0	80	2659804	86	73	140	1	1	1947919.7068306	1947919.7073483	80	1947923.1989308	1947923.1994165	40	1947926.5221327	1947926.5225941	100	del	1947927.8415538	1947928.3514282	1947928.3518097	120.0	2.0	1947928.8585034
1302.224609375	0.0	40	2666956	86	73	140	1	1	1947919.7068306	1947919.7073483	80	1947923.1989308	1947923.1994165	40	1947926.5221327	1947926.5225941	100	del	1947927.8415538	1947928.3514282	1947928.3518097	120.0	2.0	1947928.8585034
1305.54736328125	0.0	100	2673761	86	73	140	1	1	1947919.7068306	1947919.7073483	80	1947923.1989308	1947923.1994165	40	1947926.5221327	1947926.5225941	100	del	1947927.8415538	1947928.3514282	1947928.3518097	120.0	2.0	1947928.8585034
1307.37646484375	0.0	120	2677507	86	73	140	1	1	1947919.7068306	1947919.7073483	80	1947923.1989308	1947923.1994165	40	1947926.5221327	1947926.5225941	100	del	1947927.8415538	1947928.3514282	1947928.3518097	120.0	2.0	1947928.8585034
1310.24755859375	0.0	80	2683387	87	93	260	0	1	1947931.222219	1947931.2227332	80	1947934.5899619	1947934.590397	40	1947937.7768009	1947937.7772746	100	del	1947938.8496138	nan	nan	nan	nan	nan
1313.615234375	0.0	40	2690284	87	93	260	0	1	1947931.222219	1947931.2227332	80	1947934.5899619	1947934.590397	40	1947937.7768009	1947937.7772746	100	del	1947938.8496138	nan	nan	nan	nan	nan
1316.8017578125	0.0	100	2696810	87	93	260	0	1	1947931.222219	1947931.2227332	80	1947934.5899619	1947934.590397	40	1947937.7768009	1947937.7772746	100	del	1947938.8496138	nan	nan	nan	nan	nan
1320.64892578125	0.0	80	2704689	88	97	260	0	1	1947941.6236492	1947941.6242151	80	1947944.9101204	1947944.910609	40	1947948.0035688	1947948.0041002	100	del	1947959.2414676	nan	nan	nan	nan	nan
1323.93505859375	0.0	40	2711419	88	97	260	0	1	1947941.6236492	1947941.6242151	80	1947944.9101204	1947944.910609	40	1947948.0035688	1947948.0041002	100	del	1947959.2414676	nan	nan	nan	nan	nan
1327.0283203125	0.0	100	2717754	88	97	260	0	1	1947941.6236492	1947941.6242151	80	1947944.9101204	1947944.910609	40	1947948.0035688	1947948.0041002	100	del	1947959.2414676	nan	nan	nan	nan	nan
1341.06689453125	0.0	80	2746505	89	90	260	0	1	1947962.0426444	1947962.0430162	80	1947965.3985185	1947965.3991656	40	1947968.6252852	1947968.6257821	100	del	1947970.6422778	nan	nan	nan	nan	nan
1344.4228515625	0.0	40	2753378	89	90	260	0	1	1947962.0426444	1947962.0430162	80	1947965.3985185	1947965.3991656	40	1947968.6252852	1947968.6257821	100	del	1947970.6422778	nan	nan	nan	nan	nan
1347.6494140625	0.0	100	2759986	89	90	260	0	1	1947962.0426444	1947962.0430162	80	1947965.3985185	1947965.3991656	40	1947968.6252852	1947968.6257821	100	del	1947970.6422778	nan	nan	nan	nan	nan
1352.6015625	0.0	80	2770128	90	70	80	0	1	1947973.5771169	1947973.5775998	80	1947976.9506204	1947976.951054	40	1947980.1449027	1947980.1453928	100	del	1947982.8567117	nan	nan	nan	nan	nan
1355.974609375	0.0	40	2777036	90	70	80	0	1	1947973.5771169	1947973.5775998	80	1947976.9506204	1947976.951054	40	1947980.1449027	1947980.1453928	100	del	1947982.8567117	nan	nan	nan	nan	nan
1359.1689453125	0.0	100	2783578	90	70	80	0	1	1947973.5771169	1947973.5775998	80	1947976.9506204	1947976.951054	40	1947980.1449027	1947980.1453928	100	del	1947982.8567117	nan	nan	nan	nan	nan
1364.6259765625	0.0	80	2794754	91	63	260	0	0	1947985.6018788	1947985.6023268	80	1947988.8034523	1947988.8039567	40	1947992.2048511	1947992.2053363	100	imm	1947992.7686908	nan	nan	nan	nan	nan
1367.8271484375	0.0	40	2801310	91	63	260	0	0	1947985.6018788	1947985.6023268	80	1947988.8034523	1947988.8039567	40	1947992.2048511	1947992.2053363	100	imm	1947992.7686908	nan	nan	nan	nan	nan
1371.228515625	0.0	100	2808276	91	63	260	0	0	1947985.6018788	1947985.6023268	80	1947988.8034523	1947988.8039567	40	1947992.2048511	1947992.2053363	100	imm	1947992.7686908	nan	nan	nan	nan	nan
1374.677734375	0.0	80	2815340	92	70	160	0	0	1947995.6539936	1947995.6545136	80	1947998.8765971	1947998.8770277	40	1948002.2364816	1948002.2369859	100	na	1948008.5209471	nan	nan	nan	nan	nan
1377.900390625	0.0	40	2821940	92	70	160	0	0	1947995.6539936	1947995.6545136	80	1947998.8765971	1947998.8770277	40	1948002.2364816	1948002.2369859	100	na	1948008.5209471	nan	nan	nan	nan	nan
1381.26025390625	0.0	100	2828821	92	70	160	0	0	1947995.6539936	1947995.6545136	80	1947998.8765971	1947998.8770277	40	1948002.2364816	1948002.2369859	100	na	1948008.5209471	nan	nan	nan	nan	nan
1390.533203125	0.0	80	2847812	93	100	970	0	0	1948011.5097128	1948011.510202	80	1948014.9090711	1948014.9095697	40	1948018.2780142	1948018.2784379	100	imm	1948019.1933746	nan	nan	nan	nan	nan
1393.93212890625	0.0	40	2854773	93	100	970	0	0	1948011.5097128	1948011.510202	80	1948014.9090711	1948014.9095697	40	1948018.2780142	1948018.2784379	100	imm	1948019.1933746	nan	nan	nan	nan	nan
1397.30126953125	0.0	100	2861673	93	100	970	0	0	1948011.5097128	1948011.510202	80	1948014.9090711	1948014.9095697	40	1948018.2780142	1948018.2784379	100	imm	1948019.1933746	nan	nan	nan	nan	nan
1400.78955078125	0.0	80	2868817	94	93	370	1	0	1948021.7665221	1948021.7670315	80	1948024.9679243	1948024.9683095	40	1948028.2774531	1948028.2779548	100	del	1948029.273354	1948029.7837206	1948029.7840397	120.0	2.0	1948030.201184
1403.99072265625	0.0	40	2875373	94	93	370	1	0	1948021.7665221	1948021.7670315	80	1948024.9679243	1948024.9683095	40	1948028.2774531	1948028.2779548	100	del	1948029.273354	1948029.7837206	1948029.7840397	120.0	2.0	1948030.201184
1407.30029296875	0.0	100	2882151	94	93	370	1	0	1948021.7665221	1948021.7670315	80	1948024.9679243	1948024.9683095	40	1948028.2774531	1948028.2779548	100	del	1948029.273354	1948029.7837206	1948029.7840397	120.0	2.0	1948030.201184
1408.806640625	0.0	120	2885236	94	93	370	1	0	1948021.7665221	1948021.7670315	80	1948024.9679243	1948024.9683095	40	1948028.2774531	1948028.2779548	100	del	1948029.273354	1948029.7837206	1948029.7840397	120.0	2.0	1948030.201184
1411.46533203125	0.0	80	2890681	95	53	260	0	0	1948032.442576	1948032.4429275	80	1948035.4751846	1948035.4756342	40	1948038.6032058	1948038.6036229	100	imm	1948040.4409774	nan	nan	nan	nan	nan
1414.498046875	0.0	40	2896892	95	53	260	0	0	1948032.442576	1948032.4429275	80	1948035.4751846	1948035.4756342	40	1948038.6032058	1948038.6036229	100	imm	1948040.4409774	nan	nan	nan	nan	nan
1417.6259765625	0.0	100	2903298	95	53	260	0	0	1948032.442576	1948032.4429275	80	1948035.4751846	1948035.4756342	40	1948038.6032058	1948038.6036229	100	imm	1948040.4409774	nan	nan	nan	nan	nan
1422.396484375	0.0	80	2913068	96	60	140	1	1	1948043.3738271	1948043.3743419	80	1948046.3892389	1948046.389808	40	1948049.8346426	1948049.8351333	100	imm	1948051.5611622	1948052.0702024	1948052.0705517	120.0	1.0	1948053.0174336
1425.41162109375	0.0	40	2919243	96	60	140	1	1	1948043.3738271	1948043.3743419	80	1948046.3892389	1948046.389808	40	1948049.8346426	1948049.8351333	100	imm	1948051.5611622	1948052.0702024	1948052.0705517	120.0	1.0	1948053.0174336
1428.85693359375	0.0	100	2926299	96	60	140	1	1	1948043.3738271	1948043.3743419	80	1948046.3892389	1948046.389808	40	1948049.8346426	1948049.8351333	100	imm	1948051.5611622	1948052.0702024	1948052.0705517	120.0	1.0	1948053.0174336
1431.09228515625	0.0	120	2930877	96	60	140	1	1	1948043.3738271	1948043.3743419	80	1948046.3892389	1948046.389808	40	1948049.8346426	1948049.8351333	100	imm	1948051.5611622	1948052.0702024	1948052.0705517	120.0	1.0	1948053.0174336
1434.09375	0.0	80	2937024	97	77	700	1	0	1948055.0717233	1948055.0721831	80	1948058.4138466	1948058.4143052	40	1948061.678285	1948061.6788424	100	imm	1948066.337083	1948066.8465883	1948066.8468474	120.0	2.0	1948068.6653847
1437.43603515625	0.0	40	2943869	97	77	700	1	0	1948055.0717233	1948055.0721831	80	1948058.4138466	1948058.4143052	40	1948061.678285	1948061.6788424	100	imm	1948066.337083	1948066.8465883	1948066.8468474	120.0	2.0	1948068.6653847
1440.7001953125	0.0	100	2950554	97	77	700	1	0	1948055.0717233	1948055.0721831	80	1948058.4138466	1948058.4143052	40	1948061.678285	1948061.6788424	100	imm	1948066.337083	1948066.8465883	1948066.8468474	120.0	2.0	1948068.6653847
1445.8681640625	0.0	120	2961138	97	77	700	1	0	1948055.0717233	1948055.0721831	80	1948058.4138466	1948058.4143052	40	1948061.678285	1948061.6788424	100	imm	1948066.337083	1948066.8465883	1948066.8468474	120.0	2.0	1948068.6653847
1449.81103515625	0.0	80	2969213	98	63	40	1	1	1948070.7891999	1948070.789655	80	1948074.0816935	1948074.0820804	40	1948077.1533317	1948077.1537551	100	del	1948078.4089578	1948078.9218823	1948078.922357	120.0	3.0	1948080.2005334
1453.103515625	0.0	40	2975956	98	63	40	1	1	1948070.7891999	1948070.789655	80	1948074.0816935	1948074.0820804	40	1948077.1533317	1948077.1537551	100	del	1948078.4089578	1948078.9218823	1948078.922357	120.0	3.0	1948080.2005334
1456.1748046875	0.0	100	2982246	98	63	40	1	1	1948070.7891999	1948070.789655	80	1948074.0816935	1948074.0820804	40	1948077.1533317	1948077.1537551	100	del	1948078.4089578	1948078.9218823	1948078.922357	120.0	3.0	1948080.2005334
1457.943359375	0.0	120	2985868	98	63	40	1	1	1948070.7891999	1948070.789655	80	1948074.0816935	1948074.0820804	40	1948077.1533317	1948077.1537551	100	del	1948078.4089578	1948078.9218823	1948078.922357	120.0	3.0	1948080.2005334
1461.572265625	0.0	80	2993300	99	53	80	0	1	1948082.5508354	1948082.5513272	80	1948085.8590537	1948085.8595259	40	1948088.8999973	1948088.9004823	100	imm	1948090.0245541	nan	nan	nan	nan	nan
1464.88037109375	0.0	40	3000075	99	53	80	0	1	1948082.5508354	1948082.5513272	80	1948085.8590537	1948085.8595259	40	1948088.8999973	1948088.9004823	100	imm	1948090.0245541	nan	nan	nan	nan	nan
1467.92138671875	0.0	100	3006303	99	53	80	0	1	1948082.5508354	1948082.5513272	80	1948085.8590537	1948085.8595259	40	1948088.8999973	1948088.9004823	100	imm	1948090.0245541	nan	nan	nan	nan	nan
1471.59130859375	0.0	80	3013819	100	100	80	0	0	1948092.5699931	1948092.5704896	80	1948095.6541107	1948095.6545211	40	1948098.6782734	1948098.678799	100	del	1948099.546201	nan	nan	nan	nan	nan
1474.67529296875	0.0	40	3020135	100	100	80	0	0	1948092.5699931	1948092.5704896	80	1948095.6541107	1948095.6545211	40	1948098.6782734	1948098.678799	100	del	1948099.546201	nan	nan	nan	nan	nan
1477.69921875	0.0	100	3026328	100	100	80	0	0	1948092.5699931	1948092.5704896	80	1948095.6541107	1948095.6545211	40	1948098.6782734	1948098.678799	100	del	1948099.546201	nan	nan	nan	nan	nan
1532.8330078125	0.0	80	3139242	101	70	40	1	0	1948153.8132443	1948153.8135472	80	1948157.2368428	1948157.2373501	40	1948160.5586425	1948160.5591374	100	del	1948162.1045385	1948162.6138665	1948162.6141847	120.0	2.0	1948164.136358
1536.25634765625	0.0	40	3146253	101	70	40	1	0	1948153.8132443	1948153.8135472	80	1948157.2368428	1948157.2373501	40	1948160.5586425	1948160.5591374	100	del	1948162.1045385	1948162.6138665	1948162.6141847	120.0	2.0	1948164.136358
1539.578125	0.0	100	3153056	101	70	40	1	0	1948153.8132443	1948153.8135472	80	1948157.2368428	1948157.2373501	40	1948160.5586425	1948160.5591374	100	del	1948162.1045385	1948162.6138665	1948162.6141847	120.0	2.0	1948164.136358
1541.63330078125	0.0	120	3157265	101	70	40	1	0	1948153.8132443	1948153.8135472	80	1948157.2368428	1948157.2373501	40	1948160.5586425	1948160.5591374	100	del	1948162.1045385	1948162.6138665	1948162.6141847	120.0	2.0	1948164.136358
1545.43017578125	0.0	80	3165041	102	57	140	1	1	1948166.4109624	1948166.4113862	80	1948169.849237	1948169.8494894	40	1948172.910564	1948172.9111112	100	del	1948177.0166469	1948177.5281235	1948177.5284149	120.0	2.0	1948180.6967163
1548.86865234375	0.0	40	3172083	102	57	140	1	1	1948166.4109624	1948166.4113862	80	1948169.849237	1948169.8494894	40	1948172.910564	1948172.9111112	100	del	1948177.0166469	1948177.5281235	1948177.5284149	120.0	2.0	1948180.6967163
1551.9296875	0.0	100	3178352	102	57	140	1	1	1948166.4109624	1948166.4113862	80	1948169.849237	1948169.8494894	40	1948172.910564	1948172.9111112	100	del	1948177.0166469	1948177.5281235	1948177.5284149	120.0	2.0	1948180.6967163
1556.54736328125	0.0	120	3187809	102	57	140	1	1	1948166.4109624	1948166.4113862	80	1948169.849237	1948169.8494894	40	1948172.910564	1948172.9111112	100	del	1948177.0166469	1948177.5281235	1948177.5284149	120.0	2.0	1948180.6967163
1562.18359375	0.0	80	3199352	103	80	260	0	1	1948183.1644736	1948183.1649049	80	1948186.2258297	1948186.2263001	40	1948189.4976535	1948189.4981482	100	imm	1948190.6810674	nan	nan	nan	nan	nan
1565.24462890625	0.0	40	3205621	103	80	260	0	1	1948183.1644736	1948183.1649049	80	1948186.2258297	1948186.2263001	40	1948189.4976535	1948189.4981482	100	imm	1948190.6810674	nan	nan	nan	nan	nan
1568.5166015625	0.0	100	3212322	103	80	260	0	1	1948183.1644736	1948183.1649049	80	1948186.2258297	1948186.2263001	40	1948189.4976535	1948189.4981482	100	imm	1948190.6810674	nan	nan	nan	nan	nan
1572.2861328125	0.0	80	3220042	104	90	370	1	0	1948193.2673616	1948193.2676729	80	1948196.5542742	1948196.5547773	40	1948199.5698476	1948199.570256	100	del	1948202.1287868	1948202.6417422	1948202.6423305	120.0	3.0	1948203.2572786
1575.57275390625	0.0	40	3226773	104	90	370	1	0	1948193.2673616	1948193.2676729	80	1948196.5542742	1948196.5547773	40	1948199.5698476	1948199.570256	100	del	1948202.1287868	1948202.6417422	1948202.6423305	120.0	3.0	1948203.2572786
1578.58837890625	0.0	100	3232949	104	90	370	1	0	1948193.2673616	1948193.2676729	80	1948196.5542742	1948196.5547773	40	1948199.5698476	1948199.570256	100	del	1948202.1287868	1948202.6417422	1948202.6423305	120.0	3.0	1948203.2572786
1581.66015625	0.0	120	3239240	104	90	370	1	0	1948193.2673616	1948193.2676729	80	1948196.5542742	1948196.5547773	40	1948199.5698476	1948199.570256	100	del	1948202.1287868	1948202.6417422	1948202.6423305	120.0	3.0	1948203.2572786
1584.67529296875	0.0	80	3245415	105	73	260	0	1	1948205.6566498	1948205.6570727	80	1948209.0886332	1948209.0890798	40	1948212.5611926	1948212.5617113	100	na	1948214.8644871	nan	nan	nan	nan	nan
1588.10693359375	0.0	40	3252443	105	73	260	0	1	1948205.6566498	1948205.6570727	80	1948209.0886332	1948209.0890798	40	1948212.5611926	1948212.5617113	100	na	1948214.8644871	nan	nan	nan	nan	nan
1591.57958984375	0.0	100	3259555	105	73	260	0	1	1948205.6566498	1948205.6570727	80	1948209.0886332	1948209.0890798	40	1948212.5611926	1948212.5617113	100	na	1948214.8644871	nan	nan	nan	nan	nan
1596.8916015625	0.0	80	3270434	106	87	180	1	0	1948217.8733989	1948217.8739214	80	1948221.1338593	1948221.1342881	40	1948224.2827895	1948224.2832533	100	del	1948226.2002009	1948226.714315	1948226.7147695	120.0	2.0	1948234.5210798
1600.15185546875	0.0	40	3277111	106	87	180	1	0	1948217.8733989	1948217.8739214	80	1948221.1338593	1948221.1342881	40	1948224.2827895	1948224.2832533	100	del	1948226.2002009	1948226.714315	1948226.7147695	120.0	2.0	1948234.5210798
1603.30078125	0.0	100	3283560	106	87	180	1	0	1948217.8733989	1948217.8739214	80	1948221.1338593	1948221.1342881	40	1948224.2827895	1948224.2832533	100	del	1948226.2002009	1948226.714315	1948226.7147695	120.0	2.0	1948234.5210798
1605.732421875	0.0	120	3288540	106	87	180	1	0	1948217.8733989	1948217.8739214	80	1948221.1338593	1948221.1342881	40	1948224.2827895	1948224.2832533	100	del	1948226.2002009	1948226.714315	1948226.7147695	120.0	2.0	1948234.5210798
1615.60498046875	0.0	80	3308759	107	100	140	1	0	1948236.5872142	1948236.5876802	80	1948239.8501149	1948239.8505728	40	1948243.1558734	1948243.1565206	100	del	1948245.5201262	1948246.0328987	1948246.0334116	120.0	4.0	1948247.5209591
1618.86767578125	0.0	40	3315441	107	100	140	1	0	1948236.5872142	1948236.5876802	80	1948239.8501149	1948239.8505728	40	1948243.1558734	1948243.1565206	100	del	1948245.5201262	1948246.0328987	1948246.0334116	120.0	4.0	1948247.5209591
1622.17333984375	0.0	100	3322211	107	100	140	1	0	1948236.5872142	1948236.5876802	80	1948239.8501149	1948239.8505728	40	1948243.1558734	1948243.1565206	100	del	1948245.5201262	1948246.0328987	1948246.0334116	120.0	4.0	1948247.5209591
1625.05029296875	0.0	120	3328103	107	100	140	1	0	1948236.5872142	1948236.5876802	80	1948239.8501149	1948239.8505728	40	1948243.1558734	1948243.1565206	100	del	1948245.5201262	1948246.0328987	1948246.0334116	120.0	4.0	1948247.5209591
1628.9306640625	0.0	80	3336050	108	70	510	0	0	1948249.913621	1948249.9138941	80	1948252.9621326	1948252.9625657	40	1948256.3060558	1948256.3065302	100	imm	1948259.4648004	nan	nan	nan	nan	nan
1631.9794921875	0.0	40	3342294	108	70	510	0	0	1948249.913621	1948249.9138941	80	1948252.9621326	1948252.9625657	40	1948256.3060558	1948256.3065302	100	imm	1948259.4648004	nan	nan	nan	nan	nan
1635.3232421875	0.0	100	3349142	108	70	510	0	0	1948249.913621	1948249.9138941	80	1948252.9621326	1948252.9625657	40	1948256.3060558	1948256.3065302	100	imm	1948259.4648004	nan	nan	nan	nan	nan
1641.25830078125	0.0	80	3361297	109	83	370	1	0	1948262.2412101	1948262.2417158	80	1948265.3341392	1948265.3346483	40	1948268.8171079	1948268.8175773	100	del	1948270.7930371	1948271.3030542	1948271.3034199	120.0	1.0	1948271.9526265
1644.35107421875	0.0	40	3367631	109	83	370	1	0	1948262.2412101	1948262.2417158	80	1948265.3341392	1948265.3346483	40	1948268.8171079	1948268.8175773	100	del	1948270.7930371	1948271.3030542	1948271.3034199	120.0	1.0	1948271.9526265
1647.833984375	0.0	100	3374764	109	83	370	1	0	1948262.2412101	1948262.2417158	80	1948265.3341392	1948265.3346483	40	1948268.8171079	1948268.8175773	100	del	1948270.7930371	1948271.3030542	1948271.3034199	120.0	1.0	1948271.9526265
1650.31982421875	0.0	120	3379855	109	83	370	1	0	1948262.2412101	1948262.2417158	80	1948265.3341392	1948265.3346483	40	1948268.8171079	1948268.8175773	100	del	1948270.7930371	1948271.3030542	1948271.3034199	120.0	1.0	1948271.9526265
1653.27880859375	0.0	80	3385915	110	100	700	1	1	1948274.2618663	1948274.2622699	80	1948277.4909408	1948277.4913977	40	1948280.9752422	1948280.9757023	100	del	1948283.1126876	1948283.6241171	1948283.6244953	120.0	3.0	1948284.4889094
1656.5078125	0.0	40	3392528	110	100	700	1	1	1948274.2618663	1948274.2622699	80	1948277.4909408	1948277.4913977	40	1948280.9752422	1948280.9757023	100	del	1948283.1126876	1948283.6241171	1948283.6244953	120.0	3.0	1948284.4889094
1659.99169921875	0.0	100	3399663	110	100	700	1	1	1948274.2618663	1948274.2622699	80	1948277.4909408	1948277.4913977	40	1948280.9752422	1948280.9757023	100	del	1948283.1126876	1948283.6241171	1948283.6244953	120.0	3.0	1948284.4889094
1662.640625	0.0	120	3405088	110	100	700	1	1	1948274.2618663	1948274.2622699	80	1948277.4909408	1948277.4913977	40	1948280.9752422	1948280.9757023	100	del	1948283.1126876	1948283.6241171	1948283.6244953	120.0	3.0	1948284.4889094
1665.8466796875	0.0	80	3411654	111	50	370	1	1	1948286.8302363	1948286.8307273	80	1948290.0640199	1948290.0645032	40	1948293.4985042	1948293.4990563	100	imm	1948301.1290427	1948301.6390708	1948301.6394063	120.0	1.0	1948304.0259145
1669.08056640625	0.0	40	3418277	111	50	370	1	1	1948286.8302363	1948286.8307273	80	1948290.0640199	1948290.0645032	40	1948293.4985042	1948293.4990563	100	imm	1948301.1290427	1948301.6390708	1948301.6394063	120.0	1.0	1948304.0259145
1672.51513671875	0.0	100	3425311	111	50	370	1	1	1948286.8302363	1948286.8307273	80	1948290.0640199	1948290.0645032	40	1948293.4985042	1948293.4990563	100	imm	1948301.1290427	1948301.6390708	1948301.6394063	120.0	1.0	1948304.0259145
1680.6552734375	0.0	120	3441982	111	50	370	1	1	1948286.8302363	1948286.8307273	80	1948290.0640199	1948290.0645032	40	1948293.4985042	1948293.4990563	100	imm	1948301.1290427	1948301.6390708	1948301.6394063	120.0	1.0	1948304.0259145
1685.32421875	0.0	80	3451544	112	53	140	1	0	1948306.3083827	1948306.3088847	80	1948309.5927936	1948309.5932348	40	1948312.9419043	1948312.9421548	100	del	1948314.2560484	1948314.7673227	1948314.7676643	120.0	3.0	1948317.3607305
1688.60888671875	0.0	40	3458271	112	53	140	1	0	1948306.3083827	1948306.3088847	80	1948309.5927936	1948309.5932348	40	1948312.9419043	1948312.9421548	100	del	1948314.2560484	1948314.7673227	1948314.7676643	120.0	3.0	1948317.3607305
1691.95751953125	0.0	100	3465129	112	53	140	1	0	1948306.3083827	1948306.3088847	80	1948309.5927936	1948309.5932348	40	1948312.9419043	1948312.9421548	100	del	1948314.2560484	1948314.7673227	1948314.7676643	120.0	3.0	1948317.3607305
1693.783203125	0.0	120	3468868	112	53	140	1	0	1948306.3083827	1948306.3088847	80	1948309.5927936	1948309.5932348	40	1948312.9419043	1948312.9421548	100	del	1948314.2560484	1948314.7673227	1948314.7676643	120.0	3.0	1948317.3607305
1698.57373046875	0.0	80	3478679	113	80	80	0	0	1948319.5582378	1948319.5587483	80	1948322.6853271	1948322.6857481	40	1948325.9881189	1948325.9886298	100	del	1948333.9130174	nan	nan	nan	nan	nan
1701.70068359375	0.0	40	3485083	113	80	80	0	0	1948319.5582378	1948319.5587483	80	1948322.6853271	1948322.6857481	40	1948325.9881189	1948325.9886298	100	del	1948333.9130174	nan	nan	nan	nan	nan
1705.00341796875	0.0	100	3491847	113	80	80	0	0	1948319.5582378	1948319.5587483	80	1948322.6853271	1948322.6857481	40	1948325.9881189	1948325.9886298	100	del	1948333.9130174	nan	nan	nan	nan	nan
1715.87890625	0.0	80	3514120	114	67	510	0	0	1948336.8638748	1948336.8643487	80	1948340.0748306	1948340.075254	40	1948343.1455039	1948343.1460196	100	imm	1948345.4000475	nan	nan	nan	nan	nan
1719.08984375	0.0	40	3520696	114	67	510	0	0	1948336.8638748	1948336.8643487	80	1948340.0748306	1948340.075254	40	1948343.1455039	1948343.1460196	100	imm	1948345.4000475	nan	nan	nan	nan	nan
1722.16064453125	0.0	100	3526985	114	67	510	0	0	1948336.8638748	1948336.8643487	80	1948340.0748306	1948340.075254	40	1948343.1455039	1948343.1460196	100	imm	1948345.4000475	nan	nan	nan	nan	nan
1727.15478515625	0.0	80	3537213	115	83	510	0	1	1948348.1396262	1948348.1400849	80	1948351.2974073	1948351.2979032	40	1948354.5112463	1948354.5117554	100	imm	1948356.6489237	nan	nan	nan	nan	nan
1730.3125	0.0	40	3543680	115	83	510	0	1	1948348.1396262	1948348.1400849	80	1948351.2974073	1948351.2979032	40	1948354.5112463	1948354.5117554	100	imm	1948356.6489237	nan	nan	nan	nan	nan
1733.52587890625	0.0	100	3550261	115	83	510	0	1	1948348.1396262	1948348.1400849	80	1948351.2974073	1948351.2979032	40	1948354.5112463	1948354.5117554	100	imm	1948356.6489237	nan	nan	nan	nan	nan
1738.5986328125	0.0	80	3560650	116	87	40	1	0	1948359.5837969	1948359.5842467	80	1948362.7933876	1948362.793873	40	1948366.0015028	1948366.002004	100	del	1948368.2643825	1948368.7776438	1948368.7781414	120.0	3.0	1948369.4418254
1741.80810546875	0.0	40	3567223	116	87	40	1	0	1948359.5837969	1948359.5842467	80	1948362.7933876	1948362.793873	40	1948366.0015028	1948366.002004	100	del	1948368.2643825	1948368.7776438	1948368.7781414	120.0	3.0	1948369.4418254
1745.01611328125	0.0	100	3573793	116	87	40	1	0	1948359.5837969	1948359.5842467	80	1948362.7933876	1948362.793873	40	1948366.0015028	1948366.002004	100	del	1948368.2643825	1948368.7776438	1948368.7781414	120.0	3.0	1948369.4418254
1747.7919921875	0.0	120	3579478	116	87	40	1	0	1948359.5837969	1948359.5842467	80	1948362.7933876	1948362.793873	40	1948366.0015028	1948366.002004	100	del	1948368.2643825	1948368.7776438	1948368.7781414	120.0	3.0	1948369.4418254
1750.6474609375	0.0	80	3585326	117	67	140	1	0	1948371.6329755	1948371.6331636	80	1948374.7108484	1948374.7113005	40	1948377.8539395	1948377.8543865	100	del	1948378.7440972	1948379.2552492	1948379.255654	120.0	2.0	1948380.5365598
1753.72509765625	0.0	40	3591629	117	67	140	1	0	1948371.6329755	1948371.6331636	80	1948374.7108484	1948374.7113005	40	1948377.8539395	1948377.8543865	100	del	1948378.7440972	1948379.2552492	1948379.255654	120.0	2.0	1948380.5365598
1756.8681640625	0.0	100	3598066	117	67	140	1	0	1948371.6329755	1948371.6331636	80	1948374.7108484	1948374.7113005	40	1948377.8539395	1948377.8543865	100	del	1948378.7440972	1948379.2552492	1948379.255654	120.0	2.0	1948380.5365598
1758.26953125	0.0	120	3600936	117	67	140	1	0	1948371.6329755	1948371.6331636	80	1948374.7108484	1948374.7113005	40	1948377.8539395	1948377.8543865	100	del	1948378.7440972	1948379.2552492	1948379.255654	120.0	2.0	1948380.5365598
1761.61181640625	0.0	80	3607781	118	93	180	1	1	1948382.5976254	1948382.5981151	80	1948385.8199261	1948385.8204105	40	1948388.9629334	1948388.9633441	100	del	1948390.5678783	1948391.0810738	1948391.0815344	120.0	2.0	1948391.7443292
1764.833984375	0.0	40	3614380	118	93	180	1	1	1948382.5976254	1948382.5981151	80	1948385.8199261	1948385.8204105	40	1948388.9629334	1948388.9633441	100	del	1948390.5678783	1948391.0810738	1948391.0815344	120.0	2.0	1948391.7443292
1767.97705078125	0.0	100	3620817	118	93	180	1	1	1948382.5976254	1948382.5981151	80	1948385.8199261	1948385.8204105	40	1948388.9629334	1948388.9633441	100	del	1948390.5678783	1948391.0810738	1948391.0815344	120.0	2.0	1948391.7443292
1770.0947265625	0.0	120	3625154	118	93	180	1	1	1948382.5976254	1948382.5981151	80	1948385.8199261	1948385.8204105	40	1948388.9629334	1948388.9633441	100	del	1948390.5678783	1948391.0810738	1948391.0815344	120.0	2.0	1948391.7443292
1772.9208984375	0.0	80	3630942	119	77	260	0	0	1948393.9070578	1948393.9075554	80	1948397.1269126	1948397.1273006	40	1948400.1959304	1948400.1963292	100	na	1948405.8966676	nan	nan	nan	nan	nan
1776.140625	0.0	40	3637536	119	77	260	0	0	1948393.9070578	1948393.9075554	80	1948397.1269126	1948397.1273006	40	1948400.1959304	1948400.1963292	100	na	1948405.8966676	nan	nan	nan	nan	nan
1779.20947265625	0.0	100	3643821	119	77	260	0	0	1948393.9070578	1948393.9075554	80	1948397.1269126	1948397.1273006	40	1948400.1959304	1948400.1963292	100	na	1948405.8966676	nan	nan	nan	nan	nan
1787.67431640625	0.0	80	3661157	120	100	370	1	0	1948408.6610085	1948408.6614318	80	1948412.0218448	1948412.0222696	40	1948415.1562257	1948415.1572412	100	del	1948416.9282969	1948417.4396791	1948417.4400519	120.0	3.0	1948418.7281983
1791.03515625	0.0	40	3668040	120	100	370	1	0	1948408.6610085	1948408.6614318	80	1948412.0218448	1948412.0222696	40	1948415.1562257	1948415.1572412	100	del	1948416.9282969	1948417.4396791	1948417.4400519	120.0	3.0	1948418.7281983
1794.16943359375	0.0	100	3674459	120	100	370	1	0	1948408.6610085	1948408.6614318	80	1948412.0218448	1948412.0222696	40	1948415.1562257	1948415.1572412	100	del	1948416.9282969	1948417.4396791	1948417.4400519	120.0	3.0	1948418.7281983
1796.45263671875	0.0	120	3679135	120	100	370	1	0	1948408.6610085	1948408.6614318	80	1948412.0218448	1948412.0222696	40	1948415.1562257	1948415.1572412	100	del	1948416.9282969	1948417.4396791	1948417.4400519	120.0	3.0	1948418.7281983
1851.66162109375	0.0	80	3792203	121	77	510	0	1	1948472.6496889	1948472.6501833	80	1948475.6943719	1948475.6948498	40	1948478.9010847	1948478.9014658	100	imm	1948479.6400936	nan	nan	nan	nan	nan
1854.7060546875	0.0	40	3798438	121	77	510	0	1	1948472.6496889	1948472.6501833	80	1948475.6943719	1948475.6948498	40	1948478.9010847	1948478.9014658	100	imm	1948479.6400936	nan	nan	nan	nan	nan
1857.91259765625	0.0	100	3805005	121	77	510	0	1	1948472.6496889	1948472.6501833	80	1948475.6943719	1948475.6948498	40	1948478.9010847	1948478.9014658	100	imm	1948479.6400936	nan	nan	nan	nan	nan
1861.16943359375	0.0	80	3811675	122	63	970	0	1	1948482.1578388	1948482.1582902	80	1948485.2763869	1948485.2768527	40	1948488.2895519	1948488.2900606	100	imm	1948489.9845318	nan	nan	nan	nan	nan
1864.2880859375	0.0	40	3818062	122	63	970	0	1	1948482.1578388	1948482.1582902	80	1948485.2763869	1948485.2768527	40	1948488.2895519	1948488.2900606	100	imm	1948489.9845318	nan	nan	nan	nan	nan
1867.30078125	0.0	100	3824232	122	63	970	0	1	1948482.1578388	1948482.1582902	80	1948485.2763869	1948485.2768527	40	1948488.2895519	1948488.2900606	100	imm	1948489.9845318	nan	nan	nan	nan	nan
1871.603515625	0.0	80	3833044	123	70	370	1	0	1948492.5922966	1948492.5926417	80	1948495.6706541	1948495.6710731	40	1948498.8180809	1948498.8185811	100	del	1948500.4962455	1948501.0069414	1948501.007241	120.0	2.0	1948501.631862
1874.68212890625	0.0	40	3839349	123	70	370	1	0	1948492.5922966	1948492.5926417	80	1948495.6706541	1948495.6710731	40	1948498.8180809	1948498.8185811	100	del	1948500.4962455	1948501.0069414	1948501.007241	120.0	2.0	1948501.631862
1877.8291015625	0.0	100	3845794	123	70	370	1	0	1948492.5922966	1948492.5926417	80	1948495.6706541	1948495.6710731	40	1948498.8180809	1948498.8185811	100	del	1948500.4962455	1948501.0069414	1948501.007241	120.0	2.0	1948501.631862
1880.01806640625	0.0	120	3850277	123	70	370	1	0	1948492.5922966	1948492.5926417	80	1948495.6706541	1948495.6710731	40	1948498.8180809	1948498.8185811	100	del	1948500.4962455	1948501.0069414	1948501.007241	120.0	2.0	1948501.631862
1882.7451171875	0.0	80	3855862	124	100	160	0	0	1948503.7340522	1948503.7344723	80	1948506.8106861	1948506.8110967	40	1948510.1229942	1948510.123592	100	del	1948512.9521592	nan	nan	nan	nan	nan
1885.82177734375	0.0	40	3862163	124	100	160	0	0	1948503.7340522	1948503.7344723	80	1948506.8106861	1948506.8110967	40	1948510.1229942	1948510.123592	100	del	1948512.9521592	nan	nan	nan	nan	nan
1889.1337890625	0.0	100	3868946	124	100	160	0	0	1948503.7340522	1948503.7344723	80	1948506.8106861	1948506.8110967	40	1948510.1229942	1948510.123592	100	del	1948512.9521592	nan	nan	nan	nan	nan
1894.9306640625	0.0	80	3880818	125	50	40	1	0	1948515.9197905	1948515.9202778	80	1948519.3971159	1948519.3976083	40	1948522.5206988	1948522.5212309	100	imm	1948526.097676	1948526.6079183	1948526.6082226	120.0	2.0	1948527.9212026
1898.40771484375	0.0	40	3887939	125	50	40	1	0	1948515.9197905	1948515.9202778	80	1948519.3971159	1948519.3976083	40	1948522.5206988	1948522.5212309	100	imm	1948526.097676	1948526.6079183	1948526.6082226	120.0	2.0	1948527.9212026
1901.53125	0.0	100	3894336	125	50	40	1	0	1948515.9197905	1948515.9202778	80	1948519.3971159	1948519.3976083	40	1948522.5206988	1948522.5212309	100	imm	1948526.097676	1948526.6079183	1948526.6082226	120.0	2.0	1948527.9212026
1905.6181640625	0.0	120	3902706	125	50	40	1	0	1948515.9197905	1948515.9202778	80	1948519.3971159	1948519.3976083	40	1948522.5206988	1948522.5212309	100	imm	1948526.097676	1948526.6079183	1948526.6082226	120.0	2.0	1948527.9212026
1909.18896484375	0.0	80	3910019	126	63	160	0	0	1948530.1784075	1948530.178851	80	1948533.3743147	1948533.3747755	40	1948536.6493385	1948536.6498361	100	imm	1948537.704172	nan	nan	nan	nan	nan
1912.384765625	0.0	40	3916564	126	63	160	0	0	1948530.1784075	1948530.178851	80	1948533.3743147	1948533.3747755	40	1948536.6493385	1948536.6498361	100	imm	1948537.704172	nan	nan	nan	nan	nan
1915.65966796875	0.0	100	3923271	126	63	160	0	0	1948530.1784075	1948530.178851	80	1948533.3743147	1948533.3747755	40	1948536.6493385	1948536.6498361	100	imm	1948537.704172	nan	nan	nan	nan	nan
1919.3603515625	0.0	80	3930850	127	90	160	0	0	1948540.3500467	1948540.3503284	80	1948543.390371	1948543.3906941	40	1948546.621822	1948546.6223097	100	del	1948548.5685256	nan	nan	nan	nan	nan
1922.400390625	0.0	40	3937076	127	90	160	0	0	1948540.3500467	1948540.3503284	80	1948543.390371	1948543.3906941	40	1948546.621822	1948546.6223097	100	del	1948548.5685256	nan	nan	nan	nan	nan
1925.6318359375	0.0	100	3943694	127	90	160	0	0	1948540.3500467	1948540.3503284	80	1948543.390371	1948543.3906941	40	1948546.621822	1948546.6223097	100	del	1948548.5685256	nan	nan	nan	nan	nan
1930.18212890625	0.0	80	3953013	128	83	140	1	1	1948551.1723317	1948551.1728193	80	1948554.1910899	1948554.1914161	40	1948557.6810469	1948557.6815903	100	del	1948561.1196619	1948561.6318615	1948561.632324	120.0	2.0	1948562.5455325
1933.20068359375	0.0	40	3959195	128	83	140	1	1	1948551.1723317	1948551.1728193	80	1948554.1910899	1948554.1914161	40	1948557.6810469	1948557.6815903	100	del	1948561.1196619	1948561.6318615	1948561.632324	120.0	2.0	1948562.5455325
1936.69091796875	0.0	100	3966343	128	83	140	1	1	1948551.1723317	1948551.1728193	80	1948554.1910899	1948554.1914161	40	1948557.6810469	1948557.6815903	100	del	1948561.1196619	1948561.6318615	1948561.632324	120.0	2.0	1948562.5455325
1940.6416015625	0.0	120	3974434	128	83	140	1	1	1948551.1723317	1948551.1728193	80	1948554.1910899	1948554.1914161	40	1948557.6810469	1948557.6815903	100	del	1948561.1196619	1948561.6318615	1948561.632324	120.0	2.0	1948562.5455325
1943.78662109375	0.0	80	3980875	129	87	970	0	0	1948564.7770806	1948564.7775215	80	1948568.2653065	1948568.2657843	40	1948571.6603579	1948571.6608643	100	imm	1948573.4636814	nan	nan	nan	nan	nan
1947.27490234375	0.0	40	3988019	129	87	970	0	0	1948564.7770806	1948564.7775215	80	1948568.2653065	1948568.2657843	40	1948571.6603579	1948571.6608643	100	imm	1948573.4636814	nan	nan	nan	nan	nan
1950.669921875	0.0	100	3994972	129	87	970	0	0	1948564.7770806	1948564.7775215	80	1948568.2653065	1948568.2657843	40	1948571.6603579	1948571.6608643	100	imm	1948573.4636814	nan	nan	nan	nan	nan
1954.994140625	0.0	80	4003828	130	67	160	0	0	1948575.9848769	1948575.985353	80	1948579.3318664	1948579.3323124	40	1948582.6961508	1948582.6965822	100	imm	1948583.5604509	nan	nan	nan	nan	nan
1958.3408203125	0.0	40	4010682	130	67	160	0	0	1948575.9848769	1948575.985353	80	1948579.3318664	1948579.3323124	40	1948582.6961508	1948582.6965822	100	imm	1948583.5604509	nan	nan	nan	nan	nan
1961.705078125	0.0	100	4017572	130	67	160	0	0	1948575.9848769	1948575.985353	80	1948579.3318664	1948579.3323124	40	1948582.6961508	1948582.6965822	100	imm	1948583.5604509	nan	nan	nan	nan	nan
1965.40966796875	0.0	80	4025159	131	97	510	0	0	1948586.4004606	1948586.400931	80	1948589.6843445	1948589.6848941	40	1948592.8033157	1948592.8036721	100	imm	1948593.8637531	nan	nan	nan	nan	nan
1968.693359375	0.0	40	4031884	131	97	510	0	0	1948586.4004606	1948586.400931	80	1948589.6843445	1948589.6848941	40	1948592.8033157	1948592.8036721	100	imm	1948593.8637531	nan	nan	nan	nan	nan
1971.81201171875	0.0	100	4038271	131	97	510	0	0	1948586.4004606	1948586.400931	80	1948589.6843445	1948589.6848941	40	1948592.8033157	1948592.8036721	100	imm	1948593.8637531	nan	nan	nan	nan	nan
1975.77685546875	0.0	80	4046391	132	83	80	0	1	1948596.7680868	1948596.768647	80	1948599.8896376	1948599.8900898	40	1948603.0886742	1948603.0891665	100	del	1948604.6014025	nan	nan	nan	nan	nan
1978.8984375	0.0	40	4052784	132	83	80	0	1	1948596.7680868	1948596.768647	80	1948599.8896376	1948599.8900898	40	1948603.0886742	1948603.0891665	100	del	1948604.6014025	nan	nan	nan	nan	nan
1982.09716796875	0.0	100	4059335	132	83	80	0	1	1948596.7680868	1948596.768647	80	1948599.8896376	1948599.8900898	40	1948603.0886742	1948603.0891665	100	del	1948604.6014025	nan	nan	nan	nan	nan
1986.5732421875	0.0	80	4068502	133	73	510	0	1	1948607.5645396	1948607.5650417	80	1948611.0006291	1948611.0010654	40	1948614.214701	1948614.2151926	100	na	1948615.8158608	nan	nan	nan	nan	nan
1990.00927734375	0.0	40	4075539	133	73	510	0	1	1948607.5645396	1948607.5650417	80	1948611.0006291	1948611.0010654	40	1948614.214701	1948614.2151926	100	na	1948615.8158608	nan	nan	nan	nan	nan
1993.22314453125	0.0	100	4082121	133	73	510	0	1	1948607.5645396	1948607.5650417	80	1948611.0006291	1948611.0010654	40	1948614.214701	1948614.2151926	100	na	1948615.8158608	nan	nan	nan	nan	nan
1997.5	0.0	80	4090880	134	50	80	0	1	1948618.4915774	1948618.4920248	80	1948621.8035018	1948621.8039239	40	1948625.2685822	1948625.2688985	100	imm	1948627.0092732	nan	nan	nan	nan	nan
