onset	duration	value	sample	trial_idx	val	del	is_cued	rev_opts	del_pres_displaytime	del_pres_triggertime	del_pres_triggercode	val_pres_displaytime	val_pres_triggertime	val_pres_triggercode	choice_displaytime	choice_triggertime	choice_triggercode	choice	choice_time	viv_displaytime	viv_triggertime	viv_triggercode	viv	viv_time
27.626953125	0.0	80	56580	1	73	365	1	0	1506356.9444376	1506356.9461401	80	1506360.1329939	1506360.1346809	40	1506363.6341177	1506363.6365773	100	imm	1506374.4138337	1506374.9323977	1506374.934012	120.0	2.0	1506377.8788143
30.8154296875	0.0	40	63110	1	73	365	1	0	1506356.9444376	1506356.9461401	80	1506360.1329939	1506360.1346809	40	1506363.6341177	1506363.6365773	100	imm	1506374.4138337	1506374.9323977	1506374.934012	120.0	2.0	1506377.8788143
34.31640625	0.0	100	70280	1	73	365	1	0	1506356.9444376	1506356.9461401	80	1506360.1329939	1506360.1346809	40	1506363.6341177	1506363.6365773	100	imm	1506374.4138337	1506374.9323977	1506374.934012	120.0	2.0	1506377.8788143
45.6142578125	0.0	120	93418	1	73	365	1	0	1506356.9444376	1506356.9461401	80	1506360.1329939	1506360.1346809	40	1506363.6341177	1506363.6365773	100	imm	1506374.4138337	1506374.9323977	1506374.934012	120.0	2.0	1506377.8788143
50.638671875	0.0	80	103708	2	97	110	0	1	1506379.9567072	1506379.9571037	80	1506383.32962	1506383.3300834	40	1506386.666542	1506386.6671612	100	imm	1506391.6142225	nan	nan	nan	nan	nan
54.01123046875	0.0	40	110615	2	97	110	0	1	1506379.9567072	1506379.9571037	80	1506383.32962	1506383.3300834	40	1506386.666542	1506386.6671612	100	imm	1506391.6142225	nan	nan	nan	nan	nan
57.34814453125	0.0	100	117449	2	97	110	0	1	1506379.9567072	1506379.9571037	80	1506383.32962	1506383.3300834	40	1506386.666542	1506386.6671612	100	imm	1506391.6142225	nan	nan	nan	nan	nan
65.23095703125	0.0	80	133593	3	60	110	0	1	1506394.5495418	1506394.5500606	80	1506397.7570978	1506397.7575744	40	1506401.1450604	1506401.1455769	100	imm	1506429.3741654	nan	nan	nan	nan	nan
68.4384765625	0.0	40	140162	3	60	110	0	1	1506394.5495418	1506394.5500606	80	1506397.7570978	1506397.7575744	40	1506401.1450604	1506401.1455769	100	imm	1506429.3741654	nan	nan	nan	nan	nan
71.826171875	0.0	100	147100	3	60	110	0	1	1506394.5495418	1506394.5500606	80	1506397.7570978	1506397.7575744	40	1506401.1450604	1506401.1455769	100	imm	1506429.3741654	nan	nan	nan	nan	nan
102.98828125	0.0	80	210920	4	77	14	1	1	1506432.3077302	1506432.3082499	80	1506435.4755016	1506435.4758337	40	1506438.7660246	1506438.7665225	100	imm	1506448.3739784	1506448.8870325	1506448.887523	120.0	1.0	1506451.1822079
106.15576171875	0.0	40	217407	4	77	14	1	1	1506432.3077302	1506432.3082499	80	1506435.4755016	1506435.4758337	40	1506438.7660246	1506438.7665225	100	imm	1506448.3739784	1506448.8870325	1506448.887523	120.0	1.0	1506451.1822079
109.4462890625	0.0	100	224146	4	77	14	1	1	1506432.3077302	1506432.3082499	80	1506435.4755016	1506435.4758337	40	1506438.7660246	1506438.7665225	100	imm	1506448.3739784	1506448.8870325	1506448.887523	120.0	1.0	1506451.1822079
119.56689453125	0.0	120	244873	4	77	14	1	1	1506432.3077302	1506432.3082499	80	1506435.4755016	1506435.4758337	40	1506438.7660246	1506438.7665225	100	imm	1506448.3739784	1506448.8870325	1506448.887523	120.0	1.0	1506451.1822079
124.3671875	0.0	80	254704	5	87	60	1	1	1506453.6872925	1506453.6878011	80	1506456.9695626	1506456.9700263	40	1506460.1482849	1506460.1488219	100	del	1506469.2866027	1506469.7994011	1506469.7997651	120.0	4.0	1506473.0222587
127.6494140625	0.0	40	261426	5	87	60	1	1	1506453.6872925	1506453.6878011	80	1506456.9695626	1506456.9700263	40	1506460.1482849	1506460.1488219	100	del	1506469.2866027	1506469.7994011	1506469.7997651	120.0	4.0	1506473.0222587
130.828125	0.0	100	267936	5	87	60	1	1	1506453.6872925	1506453.6878011	80	1506456.9695626	1506456.9700263	40	1506460.1482849	1506460.1488219	100	del	1506469.2866027	1506469.7994011	1506469.7997651	120.0	4.0	1506473.0222587
140.47900390625	0.0	120	287701	5	87	60	1	1	1506453.6872925	1506453.6878011	80	1506456.9695626	1506456.9700263	40	1506460.1482849	1506460.1488219	100	del	1506469.2866027	1506469.7994011	1506469.7997651	120.0	4.0	1506473.0222587
146.025390625	0.0	80	299060	6	60	260	0	1	1506475.3457894	1506475.3462831	80	1506478.5336669	1506478.5341431	40	1506481.9250283	1506481.9254763	100	imm	1506514.6539565	nan	nan	nan	nan	nan
149.212890625	0.0	40	305588	6	60	260	0	1	1506475.3457894	1506475.3462831	80	1506478.5336669	1506478.5341431	40	1506481.9250283	1506481.9254763	100	imm	1506514.6539565	nan	nan	nan	nan	nan
152.6044921875	0.0	100	312534	6	60	260	0	1	1506475.3457894	1506475.3462831	80	1506478.5336669	1506478.5341431	40	1506481.9250283	1506481.9254763	100	imm	1506514.6539565	nan	nan	nan	nan	nan
188.05859375	0.0	80	385144	7	80	365	1	1	1506517.3800861	1506517.3805937	80	1506520.6357221	1506520.6362277	40	1506523.9966486	1506523.9971213	100	imm	1506525.5497942	1506526.0630952	1506526.0636074	120.0	1.0	1506529.0624925
191.31396484375	0.0	40	391811	7	80	365	1	1	1506517.3800861	1506517.3805937	80	1506520.6357221	1506520.6362277	40	1506523.9966486	1506523.9971213	100	imm	1506525.5497942	1506526.0630952	1506526.0636074	120.0	1.0	1506529.0624925
194.6748046875	0.0	100	398694	7	80	365	1	1	1506517.3800861	1506517.3805937	80	1506520.6357221	1506520.6362277	40	1506523.9966486	1506523.9971213	100	imm	1506525.5497942	1506526.0630952	1506526.0636074	120.0	1.0	1506529.0624925
196.7412109375	0.0	120	402926	7	80	365	1	1	1506517.3800861	1506517.3805937	80	1506520.6357221	1506520.6362277	40	1506523.9966486	1506523.9971213	100	imm	1506525.5497942	1506526.0630952	1506526.0636074	120.0	1.0	1506529.0624925
202.24267578125	0.0	80	414193	8	60	970	0	1	1506531.5648326	1506531.565264	80	1506534.736528	1506534.7370083	40	1506538.1692212	1506538.1697181	100	del	1506545.3990927	nan	nan	nan	nan	nan
205.41455078125	0.0	40	420689	8	60	970	0	1	1506531.5648326	1506531.565264	80	1506534.736528	1506534.7370083	40	1506538.1692212	1506538.1697181	100	del	1506545.3990927	nan	nan	nan	nan	nan
208.84716796875	0.0	100	427719	8	60	970	0	1	1506531.5648326	1506531.565264	80	1506534.736528	1506534.7370083	40	1506538.1692212	1506538.1697181	100	del	1506545.3990927	nan	nan	nan	nan	nan
218.96435546875	0.0	80	448439	9	50	110	0	1	1506548.2866575	1506548.2871545	80	1506551.771406	1506551.7718339	40	1506554.801326	1506554.8018331	100	imm	1506561.0855602	nan	nan	nan	nan	nan
222.44873046875	0.0	40	455575	9	50	110	0	1	1506548.2866575	1506548.2871545	80	1506551.771406	1506551.7718339	40	1506554.801326	1506554.8018331	100	imm	1506561.0855602	nan	nan	nan	nan	nan
225.47900390625	0.0	100	461781	9	50	110	0	1	1506548.2866575	1506548.2871545	80	1506551.771406	1506551.7718339	40	1506554.801326	1506554.8018331	100	imm	1506561.0855602	nan	nan	nan	nan	nan
234.46044921875	0.0	80	480175	10	80	970	0	1	1506563.783249	1506563.7837401	80	1506567.1220389	1506567.1226006	40	1506570.2760109	1506570.2765305	100	del	1506572.9909917	nan	nan	nan	nan	nan
237.79931640625	0.0	40	487013	10	80	970	0	1	1506563.783249	1506563.7837401	80	1506567.1220389	1506567.1226006	40	1506570.2760109	1506570.2765305	100	del	1506572.9909917	nan	nan	nan	nan	nan
240.953125	0.0	100	493472	10	80	970	0	1	1506563.783249	1506563.7837401	80	1506567.1220389	1506567.1226006	40	1506570.2760109	1506570.2765305	100	del	1506572.9909917	nan	nan	nan	nan	nan
246.30029296875	0.0	80	504423	11	60	14	1	1	1506575.6236018	1506575.6240588	80	1506578.9868537	1506578.9873486	40	1506582.3126363	1506582.3131125	100	imm	1506587.7020598	1506588.2112147	1506588.2114994	120.0	4.0	1506590.7910383
249.66357421875	0.0	40	511311	11	60	14	1	1	1506575.6236018	1506575.6240588	80	1506578.9868537	1506578.9873486	40	1506582.3126363	1506582.3131125	100	imm	1506587.7020598	1506588.2112147	1506588.2114994	120.0	4.0	1506590.7910383
252.9892578125	0.0	100	518122	11	60	14	1	1	1506575.6236018	1506575.6240588	80	1506578.9868537	1506578.9873486	40	1506582.3126363	1506582.3131125	100	imm	1506587.7020598	1506588.2112147	1506588.2114994	120.0	4.0	1506590.7910383
258.8876953125	0.0	120	530202	11	60	14	1	1	1506575.6236018	1506575.6240588	80	1506578.9868537	1506578.9873486	40	1506582.3126363	1506582.3131125	100	imm	1506587.7020598	1506588.2112147	1506588.2114994	120.0	4.0	1506590.7910383
263.779296875	0.0	80	540220	12	93	110	0	1	1506593.1027713	1506593.1031941	80	1506596.4391265	1506596.4394835	40	1506599.477503	1506599.4779412	100	del	1506615.6862985	nan	nan	nan	nan	nan
267.115234375	0.0	40	547052	12	93	110	0	1	1506593.1027713	1506593.1031941	80	1506596.4391265	1506596.4394835	40	1506599.477503	1506599.4779412	100	del	1506615.6862985	nan	nan	nan	nan	nan
270.15380859375	0.0	100	553275	12	93	110	0	1	1506593.1027713	1506593.1031941	80	1506596.4391265	1506596.4394835	40	1506599.477503	1506599.4779412	100	del	1506615.6862985	nan	nan	nan	nan	nan
289.05419921875	0.0	80	591983	13	100	260	0	0	1506618.3784963	1506618.3789117	80	1506621.6118469	1506621.6123114	40	1506624.7458856	1506624.7463325	100	del	1506633.549736	nan	nan	nan	nan	nan
292.28759765625	0.0	40	598605	13	100	260	0	0	1506618.3784963	1506618.3789117	80	1506621.6118469	1506621.6123114	40	1506624.7458856	1506624.7463325	100	del	1506633.549736	nan	nan	nan	nan	nan
295.42138671875	0.0	100	605023	13	100	260	0	0	1506618.3784963	1506618.3789117	80	1506621.6118469	1506621.6123114	40	1506624.7458856	1506624.7463325	100	del	1506633.549736	nan	nan	nan	nan	nan
307.1005859375	0.0	80	628942	14	90	60	1	0	1506636.4250797	1506636.4255745	80	1506639.860806	1506639.8613276	40	1506643.0152307	1506643.0157301	100	del	1506650.6532219	1506651.1642974	1506651.1646751	120.0	1.0	1506657.5588465
310.5361328125	0.0	40	635978	14	90	60	1	0	1506636.4250797	1506636.4255745	80	1506639.860806	1506639.8613276	40	1506643.0152307	1506643.0157301	100	del	1506650.6532219	1506651.1642974	1506651.1646751	120.0	1.0	1506657.5588465
313.6904296875	0.0	100	642438	14	90	60	1	0	1506636.4250797	1506636.4255745	80	1506639.860806	1506639.8613276	40	1506643.0152307	1506643.0157301	100	del	1506650.6532219	1506651.1642974	1506651.1646751	120.0	1.0	1506657.5588465
321.83935546875	0.0	120	659127	14	90	60	1	0	1506636.4250797	1506636.4255745	80	1506639.860806	1506639.8613276	40	1506643.0152307	1506643.0157301	100	del	1506650.6532219	1506651.1642974	1506651.1646751	120.0	1.0	1506657.5588465
330.615234375	0.0	80	677100	15	100	14	1	1	1506659.9402253	1506659.9407151	80	1506663.0169653	1506663.0176239	40	1506666.4482956	1506666.4487146	100	del	1506674.9499061	1506675.4617958	1506675.4623066	120.0	3.0	1506683.1974792
333.69189453125	0.0	40	683401	15	100	14	1	1	1506659.9402253	1506659.9407151	80	1506663.0169653	1506663.0176239	40	1506666.4482956	1506666.4487146	100	del	1506674.9499061	1506675.4617958	1506675.4623066	120.0	3.0	1506683.1974792
337.123046875	0.0	100	690428	15	100	14	1	1	1506659.9402253	1506659.9407151	80	1506663.0169653	1506663.0176239	40	1506666.4482956	1506666.4487146	100	del	1506674.9499061	1506675.4617958	1506675.4623066	120.0	3.0	1506683.1974792
346.13623046875	0.0	120	708887	15	100	14	1	1	1506659.9402253	1506659.9407151	80	1506663.0169653	1506663.0176239	40	1506666.4482956	1506666.4487146	100	del	1506674.9499061	1506675.4617958	1506675.4623066	120.0	3.0	1506683.1974792
355.95751953125	0.0	80	729001	16	60	700	1	1	1506685.2830565	1506685.28359	80	1506688.5852721	1506688.5857838	40	1506691.7824762	1506691.7829919	100	imm	1506701.0937276	1506701.6038107	1506701.6041633	120.0	4.0	1506706.6134374
359.25927734375	0.0	40	735763	16	60	700	1	1	1506685.2830565	1506685.28359	80	1506688.5852721	1506688.5857838	40	1506691.7824762	1506691.7829919	100	imm	1506701.0937276	1506701.6038107	1506701.6041633	120.0	4.0	1506706.6134374
362.45654296875	0.0	100	742311	16	60	700	1	1	1506685.2830565	1506685.28359	80	1506688.5852721	1506688.5857838	40	1506691.7824762	1506691.7829919	100	imm	1506701.0937276	1506701.6038107	1506701.6041633	120.0	4.0	1506706.6134374
372.27734375	0.0	120	762424	16	60	700	1	1	1506685.2830565	1506685.28359	80	1506688.5852721	1506688.5857838	40	1506691.7824762	1506691.7829919	100	imm	1506701.0937276	1506701.6038107	1506701.6041633	120.0	4.0	1506706.6134374
379.70654296875	0.0	80	777639	17	53	700	1	1	1506709.0329186	1506709.0335411	80	1506712.2926814	1506712.2931955	40	1506715.5459283	1506715.5462609	100	imm	1506718.6774219	1506719.1904357	1506719.1909472	120.0	4.0	1506724.3811385
382.96630859375	0.0	40	784315	17	53	700	1	1	1506709.0329186	1506709.0335411	80	1506712.2926814	1506712.2931955	40	1506715.5459283	1506715.5462609	100	imm	1506718.6774219	1506719.1904357	1506719.1909472	120.0	4.0	1506724.3811385
386.21923828125	0.0	100	790977	17	53	700	1	1	1506709.0329186	1506709.0335411	80	1506712.2926814	1506712.2931955	40	1506715.5459283	1506715.5462609	100	imm	1506718.6774219	1506719.1904357	1506719.1909472	120.0	4.0	1506724.3811385
389.86376953125	0.0	120	798441	17	53	700	1	1	1506709.0329186	1506709.0335411	80	1506712.2926814	1506712.2931955	40	1506715.5459283	1506715.5462609	100	imm	1506718.6774219	1506719.1904357	1506719.1909472	120.0	4.0	1506724.3811385
397.51025390625	0.0	80	814101	18	77	970	0	0	1506726.8371503	1506726.8376212	80	1506730.0214111	1506730.0219052	40	1506733.2602784	1506733.2608914	100	del	1506736.3655729	nan	nan	nan	nan	nan
400.6943359375	0.0	40	820622	18	77	970	0	0	1506726.8371503	1506726.8376212	80	1506730.0214111	1506730.0219052	40	1506733.2602784	1506733.2608914	100	del	1506736.3655729	nan	nan	nan	nan	nan
403.93310546875	0.0	100	827255	18	77	970	0	0	1506726.8371503	1506726.8376212	80	1506730.0214111	1506730.0219052	40	1506733.2602784	1506733.2608914	100	del	1506736.3655729	nan	nan	nan	nan	nan
410.0380859375	0.0	80	839758	19	63	180	1	1	1506739.3649984	1506739.3654559	80	1506742.3941684	1506742.3946378	40	1506745.8939438	1506745.8944455	100	del	1506751.8538458	1506752.363366	1506752.3637193	120.0	3.0	1506755.7577529
413.06689453125	0.0	40	845961	19	63	180	1	1	1506739.3649984	1506739.3654559	80	1506742.3941684	1506742.3946378	40	1506745.8939438	1506745.8944455	100	del	1506751.8538458	1506752.363366	1506752.3637193	120.0	3.0	1506755.7577529
416.56689453125	0.0	100	853129	19	63	180	1	1	1506739.3649984	1506739.3654559	80	1506742.3941684	1506742.3946378	40	1506745.8939438	1506745.8944455	100	del	1506751.8538458	1506752.363366	1506752.3637193	120.0	3.0	1506755.7577529
423.03564453125	0.0	120	866377	19	63	180	1	1	1506739.3649984	1506739.3654559	80	1506742.3941684	1506742.3946378	40	1506745.8939438	1506745.8944455	100	del	1506751.8538458	1506752.363366	1506752.3637193	120.0	3.0	1506755.7577529
428.54052734375	0.0	80	877651	20	50	700	1	0	1506757.8681769	1506757.868631	80	1506761.2097819	1506761.2102329	40	1506764.5162403	1506764.5166855	100	imm	1506766.469128	1506766.9796206	1506766.9799702	120.0	4.0	1506769.8539712
431.88232421875	0.0	40	884495	20	50	700	1	0	1506757.8681769	1506757.868631	80	1506761.2097819	1506761.2102329	40	1506764.5162403	1506764.5166855	100	imm	1506766.469128	1506766.9796206	1506766.9799702	120.0	4.0	1506769.8539712
435.1884765625	0.0	100	891266	20	50	700	1	0	1506757.8681769	1506757.868631	80	1506761.2097819	1506761.2102329	40	1506764.5162403	1506764.5166855	100	imm	1506766.469128	1506766.9796206	1506766.9799702	120.0	4.0	1506769.8539712
437.65185546875	0.0	120	896311	20	50	700	1	0	1506757.8681769	1506757.868631	80	1506761.2097819	1506761.2102329	40	1506764.5162403	1506764.5166855	100	imm	1506766.469128	1506766.9796206	1506766.9799702	120.0	4.0	1506769.8539712
452.3505859375	0.0	80	926414	21	63	510	0	1	1506781.678502	1506781.6790429	80	1506784.8665931	1506784.867162	40	1506788.1915891	1506788.1920834	100	del	1506801.1896835	nan	nan	nan	nan	nan
455.53857421875	0.0	40	932943	21	63	510	0	1	1506781.678502	1506781.6790429	80	1506784.8665931	1506784.867162	40	1506788.1915891	1506788.1920834	100	del	1506801.1896835	nan	nan	nan	nan	nan
458.86328125	0.0	100	939752	21	63	510	0	1	1506781.678502	1506781.6790429	80	1506784.8665931	1506784.867162	40	1506788.1915891	1506788.1920834	100	del	1506801.1896835	nan	nan	nan	nan	nan
474.7841796875	0.0	80	972358	22	93	700	1	0	1506804.1126513	1506804.1130668	80	1506807.1298771	1506807.1303968	40	1506810.1865134	1506810.18702	100	del	1506820.9331545	1506821.4463829	1506821.4468885	120.0	2.0	1506824.7094363
477.80126953125	0.0	40	978537	22	93	700	1	0	1506804.1126513	1506804.1130668	80	1506807.1298771	1506807.1303968	40	1506810.1865134	1506810.18702	100	del	1506820.9331545	1506821.4463829	1506821.4468885	120.0	2.0	1506824.7094363
480.857421875	0.0	100	984796	22	93	700	1	0	1506804.1126513	1506804.1130668	80	1506807.1298771	1506807.1303968	40	1506810.1865134	1506810.18702	100	del	1506820.9331545	1506821.4463829	1506821.4468885	120.0	2.0	1506824.7094363
492.1171875	0.0	120	1007856	22	93	700	1	0	1506804.1126513	1506804.1130668	80	1506807.1298771	1506807.1303968	40	1506810.1865134	1506810.18702	100	del	1506820.9331545	1506821.4463829	1506821.4468885	120.0	2.0	1506824.7094363
497.8828125	0.0	80	1019664	23	57	180	1	0	1506827.2121434	1506827.2125784	80	1506830.5467823	1506830.5473285	40	1506833.6699249	1506833.6701499	100	imm	1506838.6532998	1506839.1647892	1506839.1652129	120.0	4.0	1506841.8455922
501.21728515625	0.0	40	1026493	23	57	180	1	0	1506827.2121434	1506827.2125784	80	1506830.5467823	1506830.5473285	40	1506833.6699249	1506833.6701499	100	imm	1506838.6532998	1506839.1647892	1506839.1652129	120.0	4.0	1506841.8455922
504.3408203125	0.0	100	1032890	23	57	180	1	0	1506827.2121434	1506827.2125784	80	1506830.5467823	1506830.5473285	40	1506833.6699249	1506833.6701499	100	imm	1506838.6532998	1506839.1647892	1506839.1652129	120.0	4.0	1506841.8455922
509.8349609375	0.0	120	1044142	23	57	180	1	0	1506827.2121434	1506827.2125784	80	1506830.5467823	1506830.5473285	40	1506833.6699249	1506833.6701499	100	imm	1506838.6532998	1506839.1647892	1506839.1652129	120.0	4.0	1506841.8455922
514.73388671875	0.0	80	1054175	24	73	30	0	0	1506844.0636828	1506844.0641901	80	1506847.1328082	1506847.1333062	40	1506850.2801732	1506850.2806873	100	imm	1506864.2291045	nan	nan	nan	nan	nan
517.80322265625	0.0	40	1060461	24	73	30	0	0	1506844.0636828	1506844.0641901	80	1506847.1328082	1506847.1333062	40	1506850.2801732	1506850.2806873	100	imm	1506864.2291045	nan	nan	nan	nan	nan
520.9501953125	0.0	100	1066906	24	73	30	0	0	1506844.0636828	1506844.0641901	80	1506847.1328082	1506847.1333062	40	1506850.2801732	1506850.2806873	100	imm	1506864.2291045	nan	nan	nan	nan	nan
537.54443359375	0.0	80	1100891	25	90	14	1	0	1506866.874811	1506866.8752539	80	1506870.0486493	1506870.0490736	40	1506873.1381346	1506873.1386204	100	na	1506879.9742204	1506880.4840254	1506880.4843951	120.0	3.0	1506884.3658095
540.71826171875	0.0	40	1107391	25	90	14	1	0	1506866.874811	1506866.8752539	80	1506870.0486493	1506870.0490736	40	1506873.1381346	1506873.1386204	100	na	1506879.9742204	1506880.4840254	1506880.4843951	120.0	3.0	1506884.3658095
543.8076171875	0.0	100	1113718	25	90	14	1	0	1506866.874811	1506866.8752539	80	1506870.0486493	1506870.0490736	40	1506873.1381346	1506873.1386204	100	na	1506879.9742204	1506880.4840254	1506880.4843951	120.0	3.0	1506884.3658095
551.1533203125	0.0	120	1128762	25	90	14	1	0	1506866.874811	1506866.8752539	80	1506870.0486493	1506870.0490736	40	1506873.1381346	1506873.1386204	100	na	1506879.9742204	1506880.4840254	1506880.4843951	120.0	3.0	1506884.3658095
557.22509765625	0.0	80	1141197	26	97	365	1	0	1506886.5557312	1506886.5563293	80	1506889.6256219	1506889.6261418	40	1506893.081517	1506893.0820436	100	del	1506896.6529389	1506897.1667008	1506897.1671816	120.0	4.0	1506899.1732984
560.294921875	0.0	40	1147484	26	97	365	1	0	1506886.5557312	1506886.5563293	80	1506889.6256219	1506889.6261418	40	1506893.081517	1506893.0820436	100	del	1506896.6529389	1506897.1667008	1506897.1671816	120.0	4.0	1506899.1732984
563.75048828125	0.0	100	1154561	26	97	365	1	0	1506886.5557312	1506886.5563293	80	1506889.6256219	1506889.6261418	40	1506893.081517	1506893.0820436	100	del	1506896.6529389	1506897.1667008	1506897.1671816	120.0	4.0	1506899.1732984
567.8359375	0.0	120	1162928	26	97	365	1	0	1506886.5557312	1506886.5563293	80	1506889.6256219	1506889.6261418	40	1506893.081517	1506893.0820436	100	del	1506896.6529389	1506897.1667008	1506897.1671816	120.0	4.0	1506899.1732984
571.90283203125	0.0	80	1171257	27	67	970	0	0	1506901.2339367	1506901.2344389	80	1506904.7072866	1506904.70781	40	1506907.9199575	1506907.9204492	100	imm	1506915.9504852	nan	nan	nan	nan	nan
575.3759765625	0.0	40	1178370	27	67	970	0	0	1506901.2339367	1506901.2344389	80	1506904.7072866	1506904.70781	40	1506907.9199575	1506907.9204492	100	imm	1506915.9504852	nan	nan	nan	nan	nan
578.5888671875	0.0	100	1184950	27	67	970	0	0	1506901.2339367	1506901.2344389	80	1506904.7072866	1506904.70781	40	1506907.9199575	1506907.9204492	100	imm	1506915.9504852	nan	nan	nan	nan	nan
589.16015625	0.0	80	1206600	28	50	60	1	1	1506918.4917203	1506918.4922116	80	1506921.6719779	1506921.6724807	40	1506925.0545783	1506925.0551799	100	del	1506931.1331797	1506931.6430583	1506931.6433431	120.0	1.0	1506937.4774366
592.34033203125	0.0	40	1213113	28	50	60	1	1	1506918.4917203	1506918.4922116	80	1506921.6719779	1506921.6724807	40	1506925.0545783	1506925.0551799	100	del	1506931.1331797	1506931.6430583	1506931.6433431	120.0	1.0	1506937.4774366
595.72314453125	0.0	100	1220041	28	50	60	1	1	1506918.4917203	1506918.4922116	80	1506921.6719779	1506921.6724807	40	1506925.0545783	1506925.0551799	100	del	1506931.1331797	1506931.6430583	1506931.6433431	120.0	1.0	1506937.4774366
602.31103515625	0.0	120	1233533	28	50	60	1	1	1506918.4917203	1506918.4922116	80	1506921.6719779	1506921.6724807	40	1506925.0545783	1506925.0551799	100	del	1506931.1331797	1506931.6430583	1506931.6433431	120.0	1.0	1506937.4774366
610.55908203125	0.0	80	1250425	29	60	180	1	1	1506939.8912771	1506939.8917775	80	1506943.1718077	1506943.1722895	40	1506946.5280856	1506946.5286033	100	del	1506956.8614411	1506957.3736063	1506957.3740692	120.0	2.0	1506960.4686927
613.83984375	0.0	40	1257144	29	60	180	1	1	1506939.8912771	1506939.8917775	80	1506943.1718077	1506943.1722895	40	1506946.5280856	1506946.5286033	100	del	1506956.8614411	1506957.3736063	1506957.3740692	120.0	2.0	1506960.4686927
617.19580078125	0.0	100	1264017	29	60	180	1	1	1506939.8912771	1506939.8917775	80	1506943.1718077	1506943.1722895	40	1506946.5280856	1506946.5286033	100	del	1506956.8614411	1506957.3736063	1506957.3740692	120.0	2.0	1506960.4686927
628.041015625	0.0	120	1286228	29	60	180	1	1	1506939.8912771	1506939.8917775	80	1506943.1718077	1506943.1722895	40	1506946.5280856	1506946.5286033	100	del	1506956.8614411	1506957.3736063	1506957.3740692	120.0	2.0	1506960.4686927
633.5966796875	0.0	80	1297606	30	50	970	0	0	1506962.9295133	1506962.9298586	80	1506965.9659176	1506965.9663991	40	1506969.1309614	1506969.1314934	100	imm	1506970.0775273	nan	nan	nan	nan	nan
636.63330078125	0.0	40	1303825	30	50	970	0	0	1506962.9295133	1506962.9298586	80	1506965.9659176	1506965.9663991	40	1506969.1309614	1506969.1314934	100	imm	1506970.0775273	nan	nan	nan	nan	nan
639.79833984375	0.0	100	1310307	30	50	970	0	0	1506962.9295133	1506962.9298586	80	1506965.9659176	1506965.9663991	40	1506969.1309614	1506969.1314934	100	imm	1506970.0775273	nan	nan	nan	nan	nan
643.2880859375	0.0	80	1317454	31	80	14	1	1	1506972.6208177	1506972.6212782	80	1506975.7259925	1506975.7264494	40	1506979.0993421	1506979.0998409	100	del	1506994.2373245	1506994.7512218	1506994.7516633	120.0	1.0	1507003.5249803
646.39306640625	0.0	40	1323813	31	80	14	1	1	1506972.6208177	1506972.6212782	80	1506975.7259925	1506975.7264494	40	1506979.0993421	1506979.0998409	100	del	1506994.2373245	1506994.7512218	1506994.7516633	120.0	1.0	1507003.5249803
649.76611328125	0.0	100	1330721	31	80	14	1	1	1506972.6208177	1506972.6212782	80	1506975.7259925	1506975.7264494	40	1506979.0993421	1506979.0998409	100	del	1506994.2373245	1506994.7512218	1506994.7516633	120.0	1.0	1507003.5249803
665.41796875	0.0	120	1362776	31	80	14	1	1	1506972.6208177	1506972.6212782	80	1506975.7259925	1506975.7264494	40	1506979.0993421	1506979.0998409	100	del	1506994.2373245	1506994.7512218	1506994.7516633	120.0	1.0	1507003.5249803
676.56884765625	0.0	80	1385613	32	57	700	1	1	1507005.9027098	1507005.9032172	80	1507009.3491326	1507009.3496039	40	1507012.6535238	1507012.654023	100	imm	1507022.4933475	1507023.0051785	1507023.0056681	120.0	1.0	1507030.4933831
680.01513671875	0.0	40	1392671	32	57	700	1	1	1507005.9027098	1507005.9032172	80	1507009.3491326	1507009.3496039	40	1507012.6535238	1507012.654023	100	imm	1507022.4933475	1507023.0051785	1507023.0056681	120.0	1.0	1507030.4933831
683.31982421875	0.0	100	1399439	32	57	700	1	1	1507005.9027098	1507005.9032172	80	1507009.3491326	1507009.3496039	40	1507012.6535238	1507012.654023	100	imm	1507022.4933475	1507023.0051785	1507023.0056681	120.0	1.0	1507030.4933831
693.6708984375	0.0	120	1420638	32	57	700	1	1	1507005.9027098	1507005.9032172	80	1507009.3491326	1507009.3496039	40	1507012.6535238	1507012.654023	100	imm	1507022.4933475	1507023.0051785	1507023.0056681	120.0	1.0	1507030.4933831
703.21044921875	0.0	80	1440175	33	70	970	0	0	1507032.5449549	1507032.5454757	80	1507036.0129779	1507036.013286	40	1507039.4264932	1507039.427026	100	imm	1507055.1964145	nan	nan	nan	nan	nan
706.6787109375	0.0	40	1447278	33	70	970	0	0	1507032.5449549	1507032.5454757	80	1507036.0129779	1507036.013286	40	1507039.4264932	1507039.427026	100	imm	1507055.1964145	nan	nan	nan	nan	nan
710.091796875	0.0	100	1454268	33	70	970	0	0	1507032.5449549	1507032.5454757	80	1507036.0129779	1507036.013286	40	1507039.4264932	1507039.427026	100	imm	1507055.1964145	nan	nan	nan	nan	nan
728.5224609375	0.0	80	1492014	34	63	365	1	0	1507057.8575387	1507057.8580373	80	1507061.1380886	1507061.1386107	40	1507064.6446609	1507064.6451695	100	del	1507084.76471	1507085.274686	1507085.2750467	120.0	1.0	1507087.141931
731.80322265625	0.0	40	1498733	34	63	365	1	0	1507057.8575387	1507057.8580373	80	1507061.1380886	1507061.1386107	40	1507064.6446609	1507064.6451695	100	del	1507084.76471	1507085.274686	1507085.2750467	120.0	1.0	1507087.141931
735.3095703125	0.0	100	1505914	34	63	365	1	0	1507057.8575387	1507057.8580373	80	1507061.1380886	1507061.1386107	40	1507064.6446609	1507064.6451695	100	del	1507084.76471	1507085.274686	1507085.2750467	120.0	1.0	1507087.141931
755.93896484375	0.0	120	1548163	34	63	365	1	0	1507057.8575387	1507057.8580373	80	1507061.1380886	1507061.1386107	40	1507064.6446609	1507064.6451695	100	del	1507084.76471	1507085.274686	1507085.2750467	120.0	1.0	1507087.141931
760.1796875	0.0	80	1556848	35	57	260	0	1	1507089.5153918	1507089.5158215	80	1507092.942978	1507092.9434722	40	1507096.1732546	1507096.1737328	100	del	1507106.1413912	nan	nan	nan	nan	nan
763.60693359375	0.0	40	1563867	35	57	260	0	1	1507089.5153918	1507089.5158215	80	1507092.942978	1507092.9434722	40	1507096.1732546	1507096.1737328	100	del	1507106.1413912	nan	nan	nan	nan	nan
766.83740234375	0.0	100	1570483	35	57	260	0	1	1507089.5153918	1507089.5158215	80	1507092.942978	1507092.9434722	40	1507096.1732546	1507096.1737328	100	del	1507106.1413912	nan	nan	nan	nan	nan
779.55224609375	0.0	80	1596523	36	97	14	1	0	1507108.8886389	1507108.8889556	80	1507112.176525	1507112.1770146	40	1507115.324301	1507115.3248094	100	imm	1507116.6053214	1507117.118862	1507117.1193824	120.0	2.0	1507120.572779
782.84033203125	0.0	40	1603257	36	97	14	1	0	1507108.8886389	1507108.8889556	80	1507112.176525	1507112.1770146	40	1507115.324301	1507115.3248094	100	imm	1507116.6053214	1507117.118862	1507117.1193824	120.0	2.0	1507120.572779
785.98779296875	0.0	100	1609703	36	97	14	1	0	1507108.8886389	1507108.8889556	80	1507112.176525	1507112.1770146	40	1507115.324301	1507115.3248094	100	imm	1507116.6053214	1507117.118862	1507117.1193824	120.0	2.0	1507120.572779
787.7822265625	0.0	120	1613378	36	97	14	1	0	1507108.8886389	1507108.8889556	80	1507112.176525	1507112.1770146	40	1507115.324301	1507115.3248094	100	imm	1507116.6053214	1507117.118862	1507117.1193824	120.0	2.0	1507120.572779
793.6201171875	0.0	80	1625334	37	67	30	0	0	1507122.9563401	1507122.9564856	80	1507126.2128908	1507126.2132302	40	1507129.5427728	1507129.5430346	100	del	1507145.4925596	nan	nan	nan	nan	nan
796.8759765625	0.0	40	1632002	37	67	30	0	0	1507122.9563401	1507122.9564856	80	1507126.2128908	1507126.2132302	40	1507129.5427728	1507129.5430346	100	del	1507145.4925596	nan	nan	nan	nan	nan
800.2060546875	0.0	100	1638822	37	67	30	0	0	1507122.9563401	1507122.9564856	80	1507126.2128908	1507126.2132302	40	1507129.5427728	1507129.5430346	100	del	1507145.4925596	nan	nan	nan	nan	nan
818.82666015625	0.0	80	1676957	38	87	365	1	1	1507148.163725	1507148.1642292	80	1507151.2407852	1507151.241261	40	1507154.4930225	1507154.493582	100	del	1507175.5644787	1507176.075444	1507176.0758005	120.0	3.0	1507178.3641578
821.9033203125	0.0	40	1683258	38	87	365	1	1	1507148.163725	1507148.1642292	80	1507151.2407852	1507151.241261	40	1507154.4930225	1507154.493582	100	del	1507175.5644787	1507176.075444	1507176.0758005	120.0	3.0	1507178.3641578
825.15576171875	0.0	100	1689919	38	87	365	1	1	1507148.163725	1507148.1642292	80	1507151.2407852	1507151.241261	40	1507154.4930225	1507154.493582	100	del	1507175.5644787	1507176.075444	1507176.0758005	120.0	3.0	1507178.3641578
846.7373046875	0.0	120	1734118	38	87	365	1	1	1507148.163725	1507148.1642292	80	1507151.2407852	1507151.241261	40	1507154.4930225	1507154.493582	100	del	1507175.5644787	1507176.075444	1507176.0758005	120.0	3.0	1507178.3641578
851.22412109375	0.0	80	1743307	39	80	110	0	1	1507180.5621038	1507180.5626139	80	1507183.9637203	1507183.9642329	40	1507187.3671738	1507187.3675816	100	del	1507192.692299	nan	nan	nan	nan	nan
854.62548828125	0.0	40	1750273	39	80	110	0	1	1507180.5621038	1507180.5626139	80	1507183.9637203	1507183.9642329	40	1507187.3671738	1507187.3675816	100	del	1507192.692299	nan	nan	nan	nan	nan
858.02880859375	0.0	100	1757243	39	80	110	0	1	1507180.5621038	1507180.5626139	80	1507183.9637203	1507183.9642329	40	1507187.3671738	1507187.3675816	100	del	1507192.692299	nan	nan	nan	nan	nan
866.205078125	0.0	80	1773988	40	93	510	0	1	1507195.5435454	1507195.544021	80	1507198.6178159	1507198.618276	40	1507201.6421954	1507201.642659	100	del	1507210.469102	nan	nan	nan	nan	nan
869.279296875	0.0	40	1780284	40	93	510	0	1	1507195.5435454	1507195.544021	80	1507198.6178159	1507198.618276	40	1507201.6421954	1507201.642659	100	del	1507210.469102	nan	nan	nan	nan	nan
872.3037109375	0.0	100	1786478	40	93	510	0	1	1507195.5435454	1507195.544021	80	1507198.6178159	1507198.618276	40	1507201.6421954	1507201.642659	100	del	1507210.469102	nan	nan	nan	nan	nan
887.11328125	0.0	80	1816808	41	83	180	1	0	1507216.4522322	1507216.4528856	80	1507219.6103	1507219.6107955	40	1507223.0949371	1507223.0954037	100	imm	1507230.8604663	1507231.3748431	1507231.3751812	120.0	3.0	1507235.5887629
890.271484375	0.0	40	1823276	41	83	180	1	0	1507216.4522322	1507216.4528856	80	1507219.6103	1507219.6107955	40	1507223.0949371	1507223.0954037	100	imm	1507230.8604663	1507231.3748431	1507231.3751812	120.0	3.0	1507235.5887629
893.755859375	0.0	100	1830412	41	83	180	1	0	1507216.4522322	1507216.4528856	80	1507219.6103	1507219.6107955	40	1507223.0949371	1507223.0954037	100	imm	1507230.8604663	1507231.3748431	1507231.3751812	120.0	3.0	1507235.5887629
902.03564453125	0.0	120	1847369	41	83	180	1	0	1507216.4522322	1507216.4528856	80	1507219.6103	1507219.6107955	40	1507223.0949371	1507223.0954037	100	imm	1507230.8604663	1507231.3748431	1507231.3751812	120.0	3.0	1507235.5887629
908.755859375	0.0	80	1861132	42	77	110	0	1	1507238.0951809	1507238.0956937	80	1507241.2469952	1507241.2474916	40	1507244.6620683	1507244.6626151	100	na	1507258.8924882	nan	nan	nan	nan	nan
911.90771484375	0.0	40	1867587	42	77	110	0	1	1507238.0951809	1507238.0956937	80	1507241.2469952	1507241.2474916	40	1507244.6620683	1507244.6626151	100	na	1507258.8924882	nan	nan	nan	nan	nan
915.32275390625	0.0	100	1874581	42	77	110	0	1	1507238.0951809	1507238.0956937	80	1507241.2469952	1507241.2474916	40	1507244.6620683	1507244.6626151	100	na	1507258.8924882	nan	nan	nan	nan	nan
932.5205078125	0.0	80	1909802	43	93	14	1	1	1507261.8605233	1507261.8610689	80	1507265.1674706	1507265.1679735	40	1507268.623038	1507268.623547	100	imm	1507273.8922633	1507274.4015027	1507274.4018341	120.0	3.0	1507276.1480027
935.82763671875	0.0	40	1916575	43	93	14	1	1	1507261.8605233	1507261.8610689	80	1507265.1674706	1507265.1679735	40	1507268.623038	1507268.623547	100	imm	1507273.8922633	1507274.4015027	1507274.4018341	120.0	3.0	1507276.1480027
939.28271484375	0.0	100	1923651	43	93	14	1	1	1507261.8605233	1507261.8610689	80	1507265.1674706	1507265.1679735	40	1507268.623038	1507268.623547	100	imm	1507273.8922633	1507274.4015027	1507274.4018341	120.0	3.0	1507276.1480027
945.06103515625	0.0	120	1935485	43	93	14	1	1	1507261.8605233	1507261.8610689	80	1507265.1674706	1507265.1679735	40	1507268.623038	1507268.623547	100	imm	1507273.8922633	1507274.4015027	1507274.4018341	120.0	3.0	1507276.1480027
949.29296875	0.0	80	1944152	44	87	510	0	0	1507278.6332877	1507278.6335885	80	1507281.9140733	1507281.9143942	40	1507285.291102	1507285.2916283	100	del	1507293.3899183	nan	nan	nan	nan	nan
952.57373046875	0.0	40	1950871	44	87	510	0	0	1507278.6332877	1507278.6335885	80	1507281.9140733	1507281.9143942	40	1507285.291102	1507285.2916283	100	del	1507293.3899183	nan	nan	nan	nan	nan
955.95068359375	0.0	100	1957787	44	87	510	0	0	1507278.6332877	1507278.6335885	80	1507281.9140733	1507281.9143942	40	1507285.291102	1507285.2916283	100	del	1507293.3899183	nan	nan	nan	nan	nan
966.85595703125	0.0	80	1980121	45	77	60	1	1	1507296.1966684	1507296.1971888	80	1507299.2168874	1507299.2172029	40	1507302.4529883	1507302.4535013	100	imm	1507313.4283278	1507313.9381762	1507313.9385256	120.0	1.0	1507316.8138789
969.8759765625	0.0	40	1986306	45	77	60	1	1	1507296.1966684	1507296.1971888	80	1507299.2168874	1507299.2172029	40	1507302.4529883	1507302.4535013	100	imm	1507313.4283278	1507313.9381762	1507313.9385256	120.0	1.0	1507316.8138789
973.11181640625	0.0	100	1992933	45	77	60	1	1	1507296.1966684	1507296.1971888	80	1507299.2168874	1507299.2172029	40	1507302.4529883	1507302.4535013	100	imm	1507313.4283278	1507313.9381762	1507313.9385256	120.0	1.0	1507316.8138789
984.5966796875	0.0	120	2016454	45	77	60	1	1	1507296.1966684	1507296.1971888	80	1507299.2168874	1507299.2172029	40	1507302.4529883	1507302.4535013	100	imm	1507313.4283278	1507313.9381762	1507313.9385256	120.0	1.0	1507316.8138789
989.8115234375	0.0	80	2027134	46	83	260	0	1	1507319.1526706	1507319.1531264	80	1507322.4211158	1507322.4216228	40	1507325.6208012	1507325.6212451	100	del	1507330.1084499	nan	nan	nan	nan	nan
993.07958984375	0.0	40	2033827	46	83	260	0	1	1507319.1526706	1507319.1531264	80	1507322.4211158	1507322.4216228	40	1507325.6208012	1507325.6212451	100	del	1507330.1084499	nan	nan	nan	nan	nan
996.279296875	0.0	100	2040380	46	83	260	0	1	1507319.1526706	1507319.1531264	80	1507322.4211158	1507322.4216228	40	1507325.6208012	1507325.6212451	100	del	1507330.1084499	nan	nan	nan	nan	nan
1003.75341796875	0.0	80	2055687	47	67	365	1	1	1507333.0951666	1507333.0956265	80	1507336.5175514	1507336.5180205	40	1507339.9590962	1507339.9595734	100	imm	1507351.8605623	1507352.372245	1507352.3726495	120.0	3.0	1507356.7799265
1007.17578125	0.0	40	2062696	47	67	365	1	1	1507333.0951666	1507333.0956265	80	1507336.5175514	1507336.5180205	40	1507339.9590962	1507339.9595734	100	imm	1507351.8605623	1507352.372245	1507352.3726495	120.0	3.0	1507356.7799265
1010.6171875	0.0	100	2069744	47	67	365	1	1	1507333.0951666	1507333.0956265	80	1507336.5175514	1507336.5180205	40	1507339.9590962	1507339.9595734	100	imm	1507351.8605623	1507352.372245	1507352.3726495	120.0	3.0	1507356.7799265
1023.02978515625	0.0	120	2095165	47	67	365	1	1	1507333.0951666	1507333.0956265	80	1507336.5175514	1507336.5180205	40	1507339.9590962	1507339.9595734	100	imm	1507351.8605623	1507352.372245	1507352.3726495	120.0	3.0	1507356.7799265
1029.64013671875	0.0	80	2108703	48	67	700	1	1	1507358.9824412	1507358.9828442	80	1507362.2870576	1507362.2875921	40	1507365.7368207	1507365.7373025	100	imm	1507374.2365155	1507374.746408	1507374.7467864	120.0	4.0	1507376.0438658
1032.94482421875	0.0	40	2115471	48	67	700	1	1	1507358.9824412	1507358.9828442	80	1507362.2870576	1507362.2875921	40	1507365.7368207	1507365.7373025	100	imm	1507374.2365155	1507374.746408	1507374.7467864	120.0	4.0	1507376.0438658
1036.39453125	0.0	100	2122536	48	67	700	1	1	1507358.9824412	1507358.9828442	80	1507362.2870576	1507362.2875921	40	1507365.7368207	1507365.7373025	100	imm	1507374.2365155	1507374.746408	1507374.7467864	120.0	4.0	1507376.0438658
1045.40380859375	0.0	120	2140987	48	67	700	1	1	1507358.9824412	1507358.9828442	80	1507362.2870576	1507362.2875921	40	1507365.7368207	1507365.7373025	100	imm	1507374.2365155	1507374.746408	1507374.7467864	120.0	4.0	1507376.0438658
1049.185546875	0.0	80	2148732	49	80	180	1	0	1507378.5284564	1507378.5289519	80	1507381.8706185	1507381.8711144	40	1507384.9877438	1507384.9882543	100	imm	1507395.7163285	1507396.2259878	1507396.2262969	120.0	2.0	1507398.7479477
1052.52783203125	0.0	40	2155577	49	80	180	1	0	1507378.5284564	1507378.5289519	80	1507381.8706185	1507381.8711144	40	1507384.9877438	1507384.9882543	100	imm	1507395.7163285	1507396.2259878	1507396.2262969	120.0	2.0	1507398.7479477
1055.64453125	0.0	100	2161960	49	80	180	1	0	1507378.5284564	1507378.5289519	80	1507381.8706185	1507381.8711144	40	1507384.9877438	1507384.9882543	100	imm	1507395.7163285	1507396.2259878	1507396.2262969	120.0	2.0	1507398.7479477
1066.8828125	0.0	120	2184976	49	80	180	1	0	1507378.5284564	1507378.5289519	80	1507381.8706185	1507381.8711144	40	1507384.9877438	1507384.9882543	100	imm	1507395.7163285	1507396.2259878	1507396.2262969	120.0	2.0	1507398.7479477
1071.748046875	0.0	80	2194940	50	70	700	1	0	1507401.0916317	1507401.0921073	80	1507404.1352794	1507404.1357978	40	1507407.3526707	1507407.3531157	100	na	1507413.3815826	1507413.8926801	1507413.8931005	120.0	4.0	1507416.3958822
1074.7919921875	0.0	40	2201174	50	70	700	1	0	1507401.0916317	1507401.0921073	80	1507404.1352794	1507404.1357978	40	1507407.3526707	1507407.3531157	100	na	1507413.3815826	1507413.8926801	1507413.8931005	120.0	4.0	1507416.3958822
1078.00927734375	0.0	100	2207763	50	70	700	1	0	1507401.0916317	1507401.0921073	80	1507404.1352794	1507404.1357978	40	1507407.3526707	1507407.3531157	100	na	1507413.3815826	1507413.8926801	1507413.8931005	120.0	4.0	1507416.3958822
1084.548828125	0.0	120	2221156	50	70	700	1	0	1507401.0916317	1507401.0921073	80	1507404.1352794	1507404.1357978	40	1507407.3526707	1507407.3531157	100	na	1507413.3815826	1507413.8926801	1507413.8931005	120.0	4.0	1507416.3958822
1089.4013671875	0.0	80	2231094	51	57	365	1	1	1507418.7450116	1507418.745499	80	1507422.2195871	1507422.2200451	40	1507425.6378793	1507425.6383876	100	imm	1507427.61994	1507428.1324706	1507428.1329297	120.0	1.0	1507435.6121823
1092.87548828125	0.0	40	2238209	51	57	365	1	1	1507418.7450116	1507418.745499	80	1507422.2195871	1507422.2200451	40	1507425.6378793	1507425.6383876	100	imm	1507427.61994	1507428.1324706	1507428.1329297	120.0	1.0	1507435.6121823
1096.2939453125	0.0	100	2245210	51	57	365	1	1	1507418.7450116	1507418.745499	80	1507422.2195871	1507422.2200451	40	1507425.6378793	1507425.6383876	100	imm	1507427.61994	1507428.1324706	1507428.1329297	120.0	1.0	1507435.6121823
1098.78857421875	0.0	120	2250319	51	57	365	1	1	1507418.7450116	1507418.745499	80	1507422.2195871	1507422.2200451	40	1507425.6378793	1507425.6383876	100	imm	1507427.61994	1507428.1324706	1507428.1329297	120.0	1.0	1507435.6121823
1108.52685546875	0.0	80	2270263	52	53	110	0	0	1507437.8713081	1507437.8717638	80	1507441.2571479	1507441.2577833	40	1507444.4802335	1507444.4807616	100	del	1507451.1239229	nan	nan	nan	nan	nan
1111.91259765625	0.0	40	2277197	52	53	110	0	0	1507437.8713081	1507437.8717638	80	1507441.2571479	1507441.2577833	40	1507444.4802335	1507444.4807616	100	del	1507451.1239229	nan	nan	nan	nan	nan
1115.1357421875	0.0	100	2283798	52	53	110	0	0	1507437.8713081	1507437.8717638	80	1507441.2571479	1507441.2577833	40	1507444.4802335	1507444.4807616	100	del	1507451.1239229	nan	nan	nan	nan	nan
1124.78271484375	0.0	80	2303555	53	67	260	0	0	1507454.1276459	1507454.1280962	80	1507457.6291784	1507457.6296851	40	1507461.0754438	1507461.075915	100	del	1507484.4043502	nan	nan	nan	nan	nan
1128.2841796875	0.0	40	2310726	53	67	260	0	0	1507454.1276459	1507454.1280962	80	1507457.6291784	1507457.6296851	40	1507461.0754438	1507461.075915	100	del	1507484.4043502	nan	nan	nan	nan	nan
1131.73046875	0.0	100	2317784	53	67	260	0	0	1507454.1276459	1507454.1280962	80	1507457.6291784	1507457.6296851	40	1507461.0754438	1507461.075915	100	del	1507484.4043502	nan	nan	nan	nan	nan
1157.77099609375	0.0	80	2371115	54	53	365	1	1	1507487.1163954	1507487.1168676	80	1507490.3517643	1507490.3522653	40	1507493.4892794	1507493.4897961	100	imm	1507502.972044	1507503.4854524	1507503.4861242	120.0	1.0	1507506.9879585
1161.00634765625	0.0	40	2377741	54	53	365	1	1	1507487.1163954	1507487.1168676	80	1507490.3517643	1507490.3522653	40	1507493.4892794	1507493.4897961	100	imm	1507502.972044	1507503.4854524	1507503.4861242	120.0	1.0	1507506.9879585
1164.1435546875	0.0	100	2384166	54	53	365	1	1	1507487.1163954	1507487.1168676	80	1507490.3517643	1507490.3522653	40	1507493.4892794	1507493.4897961	100	imm	1507502.972044	1507503.4854524	1507503.4861242	120.0	1.0	1507506.9879585
1174.1396484375	0.0	120	2404638	54	53	365	1	1	1507487.1163954	1507487.1168676	80	1507490.3517643	1507490.3522653	40	1507493.4892794	1507493.4897961	100	imm	1507502.972044	1507503.4854524	1507503.4861242	120.0	1.0	1507506.9879585
1180.05029296875	0.0	80	2416743	55	63	30	0	0	1507509.3964176	1507509.3968691	80	1507512.8451765	1507512.8456762	40	1507516.3151563	1507516.3156708	100	del	1507517.4677133	nan	nan	nan	nan	nan
1183.4990234375	0.0	40	2423806	55	63	30	0	0	1507509.3964176	1507509.3968691	80	1507512.8451765	1507512.8456762	40	1507516.3151563	1507516.3156708	100	del	1507517.4677133	nan	nan	nan	nan	nan
1186.96875	0.0	100	2430912	55	63	30	0	0	1507509.3964176	1507509.3968691	80	1507512.8451765	1507512.8456762	40	1507516.3151563	1507516.3156708	100	del	1507517.4677133	nan	nan	nan	nan	nan
1190.91796875	0.0	80	2439000	56	83	14	1	1	1507520.264541	1507520.2650544	80	1507523.5726365	1507523.573087	40	1507526.6601871	1507526.6607217	100	del	1507535.4523515	1507535.9615972	1507535.9619548	120.0	1.0	1507538.8612677
1194.22607421875	0.0	40	2445775	56	83	14	1	1	1507520.264541	1507520.2650544	80	1507523.5726365	1507523.573087	40	1507526.6601871	1507526.6607217	100	del	1507535.4523515	1507535.9615972	1507535.9619548	120.0	1.0	1507538.8612677
1197.31396484375	0.0	100	2452099	56	83	14	1	1	1507520.264541	1507520.2650544	80	1507523.5726365	1507523.573087	40	1507526.6601871	1507526.6607217	100	del	1507535.4523515	1507535.9615972	1507535.9619548	120.0	1.0	1507538.8612677
1206.61474609375	0.0	120	2471147	56	83	14	1	1	1507520.264541	1507520.2650544	80	1507523.5726365	1507523.573087	40	1507526.6601871	1507526.6607217	100	del	1507535.4523515	1507535.9615972	1507535.9619548	120.0	1.0	1507538.8612677
1211.97900390625	0.0	80	2482133	57	97	30	0	1	1507541.3256537	1507541.3262156	80	1507544.5586054	1507544.5592621	40	1507547.6748848	1507547.6753709	100	imm	1507550.8999523	nan	nan	nan	nan	nan
1215.2119140625	0.0	40	2488754	57	97	30	0	1	1507541.3256537	1507541.3262156	80	1507544.5586054	1507544.5592621	40	1507547.6748848	1507547.6753709	100	imm	1507550.8999523	nan	nan	nan	nan	nan
1218.328125	0.0	100	2495136	57	97	30	0	1	1507541.3256537	1507541.3262156	80	1507544.5586054	1507544.5592621	40	1507547.6748848	1507547.6753709	100	imm	1507550.8999523	nan	nan	nan	nan	nan
1224.5185546875	0.0	80	2507814	58	80	510	0	1	1507553.8656502	1507553.8659995	80	1507557.2542586	1507557.254744	40	1507560.7087605	1507560.7092836	100	del	1507566.5413866	nan	nan	nan	nan	nan
1227.9072265625	0.0	40	2514754	58	80	510	0	1	1507553.8656502	1507553.8659995	80	1507557.2542586	1507557.254744	40	1507560.7087605	1507560.7092836	100	del	1507566.5413866	nan	nan	nan	nan	nan
1231.361328125	0.0	100	2521828	58	80	510	0	1	1507553.8656502	1507553.8659995	80	1507557.2542586	1507557.254744	40	1507560.7087605	1507560.7092836	100	del	1507566.5413866	nan	nan	nan	nan	nan
1239.85498046875	0.0	80	2539223	59	70	60	1	1	1507569.2023912	1507569.2029139	80	1507572.5479046	1507572.5484186	40	1507575.8936713	1507575.8943307	100	del	1507585.147749	1507585.6614032	1507585.6618804	120.0	2.0	1507596.2291431
1243.2001953125	0.0	40	2546074	59	70	60	1	1	1507569.2023912	1507569.2029139	80	1507572.5479046	1507572.5484186	40	1507575.8936713	1507575.8943307	100	del	1507585.147749	1507585.6614032	1507585.6618804	120.0	2.0	1507596.2291431
1246.5458984375	0.0	100	2552926	59	70	60	1	1	1507569.2023912	1507569.2029139	80	1507572.5479046	1507572.5484186	40	1507575.8936713	1507575.8943307	100	del	1507585.147749	1507585.6614032	1507585.6618804	120.0	2.0	1507596.2291431
1256.3134765625	0.0	120	2572930	59	70	60	1	1	1507569.2023912	1507569.2029139	80	1507572.5479046	1507572.5484186	40	1507575.8936713	1507575.8943307	100	del	1507585.147749	1507585.6614032	1507585.6618804	120.0	2.0	1507596.2291431
1268.958984375	0.0	80	2598828	60	57	110	0	1	1507598.3071311	1507598.3081128	80	1507601.5188717	1507601.519363	40	1507604.6664737	1507604.6667818	100	na	1507611.8520086	nan	nan	nan	nan	nan
1272.17041015625	0.0	40	2605405	60	57	110	0	1	1507598.3071311	1507598.3081128	80	1507601.5188717	1507601.519363	40	1507604.6664737	1507604.6667818	100	na	1507611.8520086	nan	nan	nan	nan	nan
1275.31787109375	0.0	100	2611851	60	57	110	0	1	1507598.3071311	1507598.3081128	80	1507601.5188717	1507601.519363	40	1507604.6664737	1507604.6667818	100	na	1507611.8520086	nan	nan	nan	nan	nan
1293.78125	0.0	80	2649664	61	73	14	1	0	1507623.129946	1507623.1304346	80	1507626.2793241	1507626.2797378	40	1507629.7405116	1507629.7410168	100	imm	1507640.1234912	1507640.6346247	1507640.6350414	120.0	3.0	1507644.0597815
1296.93017578125	0.0	40	2656113	61	73	14	1	0	1507623.129946	1507623.1304346	80	1507626.2793241	1507626.2797378	40	1507629.7405116	1507629.7410168	100	imm	1507640.1234912	1507640.6346247	1507640.6350414	120.0	3.0	1507644.0597815
1300.3916015625	0.0	100	2663202	61	73	14	1	0	1507623.129946	1507623.1304346	80	1507626.2793241	1507626.2797378	40	1507629.7405116	1507629.7410168	100	imm	1507640.1234912	1507640.6346247	1507640.6350414	120.0	3.0	1507644.0597815
1311.28515625	0.0	120	2685512	61	73	14	1	0	1507623.129946	1507623.1304346	80	1507626.2793241	1507626.2797378	40	1507629.7405116	1507629.7410168	100	imm	1507640.1234912	1507640.6346247	1507640.6350414	120.0	3.0	1507644.0597815
1317.1396484375	0.0	80	2697502	62	93	970	0	1	1507646.4890048	1507646.4894137	80	1507649.6916214	1507649.6921087	40	1507652.9537172	1507652.9542291	100	del	1507663.6772001	nan	nan	nan	nan	nan
1320.34228515625	0.0	40	2704061	62	93	970	0	1	1507646.4890048	1507646.4894137	80	1507649.6916214	1507649.6921087	40	1507652.9537172	1507652.9542291	100	del	1507663.6772001	nan	nan	nan	nan	nan
1323.60400390625	0.0	100	2710741	62	93	970	0	1	1507646.4890048	1507646.4894137	80	1507649.6916214	1507649.6921087	40	1507652.9537172	1507652.9542291	100	del	1507663.6772001	nan	nan	nan	nan	nan
1337.19287109375	0.0	80	2738571	63	80	700	1	1	1507666.542874	1507666.5433646	80	1507669.9678918	1507669.9684056	40	1507673.288359	1507673.2888557	100	del	1507691.0035846	1507691.5143087	1507691.5146807	120.0	3.0	1507692.8519689
1340.61767578125	0.0	40	2745585	63	80	700	1	1	1507666.542874	1507666.5433646	80	1507669.9678918	1507669.9684056	40	1507673.288359	1507673.2888557	100	del	1507691.0035846	1507691.5143087	1507691.5146807	120.0	3.0	1507692.8519689
1343.9384765625	0.0	100	2752386	63	80	700	1	1	1507666.542874	1507666.5433646	80	1507669.9678918	1507669.9684056	40	1507673.288359	1507673.2888557	100	del	1507691.0035846	1507691.5143087	1507691.5146807	120.0	3.0	1507692.8519689
1362.16357421875	0.0	120	2789711	63	80	700	1	1	1507666.542874	1507666.5433646	80	1507669.9678918	1507669.9684056	40	1507673.288359	1507673.2888557	100	del	1507691.0035846	1507691.5143087	1507691.5146807	120.0	3.0	1507692.8519689
1365.80419921875	0.0	80	2797167	64	70	180	1	1	1507695.1546966	1507695.1551776	80	1507698.3254776	1507698.3259856	40	1507701.56738	1507701.5679114	100	imm	1507706.3798782	1507706.8867364	1507706.886975	120.0	3.0	1507707.6364805
1368.974609375	0.0	40	2803660	64	70	180	1	1	1507695.1546966	1507695.1551776	80	1507698.3254776	1507698.3259856	40	1507701.56738	1507701.5679114	100	imm	1507706.3798782	1507706.8867364	1507706.886975	120.0	3.0	1507707.6364805
1372.216796875	0.0	100	2810300	64	70	180	1	1	1507695.1546966	1507695.1551776	80	1507698.3254776	1507698.3259856	40	1507701.56738	1507701.5679114	100	imm	1507706.3798782	1507706.8867364	1507706.886975	120.0	3.0	1507707.6364805
1377.5361328125	0.0	120	2821194	64	70	180	1	1	1507695.1546966	1507695.1551776	80	1507698.3254776	1507698.3259856	40	1507701.56738	1507701.5679114	100	imm	1507706.3798782	1507706.8867364	1507706.886975	120.0	3.0	1507707.6364805
1380.65625	0.0	80	2827584	65	90	180	1	0	1507710.0072142	1507710.0076965	80	1507713.4570278	1507713.4575144	40	1507716.8312895	1507716.831822	100	del	1507719.331165	1507719.8451234	1507719.8456692	120.0	3.0	1507720.6357551
1384.10595703125	0.0	40	2834649	65	90	180	1	0	1507710.0072142	1507710.0076965	80	1507713.4570278	1507713.4575144	40	1507716.8312895	1507716.831822	100	del	1507719.331165	1507719.8451234	1507719.8456692	120.0	3.0	1507720.6357551
1387.47998046875	0.0	100	2841559	65	90	180	1	0	1507710.0072142	1507710.0076965	80	1507713.4570278	1507713.4575144	40	1507716.8312895	1507716.831822	100	del	1507719.331165	1507719.8451234	1507719.8456692	120.0	3.0	1507720.6357551
1390.494140625	0.0	120	2847732	65	90	180	1	0	1507710.0072142	1507710.0076965	80	1507713.4570278	1507713.4575144	40	1507716.8312895	1507716.831822	100	del	1507719.331165	1507719.8451234	1507719.8456692	120.0	3.0	1507720.6357551
1393.31005859375	0.0	80	2853499	66	60	510	0	0	1507722.6614544	1507722.6619467	80	1507726.0062717	1507726.0067753	40	1507729.2393105	1507729.2398191	100	imm	1507731.1481402	nan	nan	nan	nan	nan
1396.65478515625	0.0	40	2860349	66	60	510	0	0	1507722.6614544	1507722.6619467	80	1507726.0062717	1507726.0067753	40	1507729.2393105	1507729.2398191	100	imm	1507731.1481402	nan	nan	nan	nan	nan
1399.8876953125	0.0	100	2866970	66	60	510	0	0	1507722.6614544	1507722.6619467	80	1507726.0062717	1507726.0067753	40	1507729.2393105	1507729.2398191	100	imm	1507731.1481402	nan	nan	nan	nan	nan
1404.53076171875	0.0	80	2876479	67	77	30	0	0	1507733.8825239	1507733.8828208	80	1507736.9471145	1507736.9474674	40	1507740.3675724	1507740.3681839	100	del	1507743.9077279	nan	nan	nan	nan	nan
1407.59521484375	0.0	40	2882755	67	77	30	0	0	1507733.8825239	1507733.8828208	80	1507736.9471145	1507736.9474674	40	1507740.3675724	1507740.3681839	100	del	1507743.9077279	nan	nan	nan	nan	nan
1411.01611328125	0.0	100	2889761	67	77	30	0	0	1507733.8825239	1507733.8828208	80	1507736.9471145	1507736.9474674	40	1507740.3675724	1507740.3681839	100	del	1507743.9077279	nan	nan	nan	nan	nan
1417.23583984375	0.0	80	2902499	68	83	970	0	1	1507746.5878142	1507746.5883056	80	1507749.7195973	1507749.7200792	40	1507752.9041008	1507752.9046759	100	del	1507764.3729756	nan	nan	nan	nan	nan
1420.36767578125	0.0	40	2908913	68	83	970	0	1	1507746.5878142	1507746.5883056	80	1507749.7195973	1507749.7200792	40	1507752.9041008	1507752.9046759	100	del	1507764.3729756	nan	nan	nan	nan	nan
1423.55224609375	0.0	100	2915435	68	83	970	0	1	1507746.5878142	1507746.5883056	80	1507749.7195973	1507749.7200792	40	1507752.9041008	1507752.9046759	100	del	1507764.3729756	nan	nan	nan	nan	nan
1437.72705078125	0.0	80	2944465	69	57	30	0	1	1507767.0793844	1507767.0798186	80	1507770.3604725	1507770.3609653	40	1507773.6556327	1507773.6561504	100	imm	1507778.8833446	nan	nan	nan	nan	nan
1441.0078125	0.0	40	2951184	69	57	30	0	1	1507767.0793844	1507767.0798186	80	1507770.3604725	1507770.3609653	40	1507773.6556327	1507773.6561504	100	imm	1507778.8833446	nan	nan	nan	nan	nan
1444.30322265625	0.0	100	2957933	69	57	30	0	1	1507767.0793844	1507767.0798186	80	1507770.3604725	1507770.3609653	40	1507773.6556327	1507773.6561504	100	imm	1507778.8833446	nan	nan	nan	nan	nan
1452.24609375	0.0	80	2974200	70	80	60	1	1	1507781.59873	1507781.5992214	80	1507784.8060185	1507784.8065139	40	1507788.0777242	1507788.0782658	100	imm	1507798.5549789	1507799.0660395	1507799.0664297	120.0	3.0	1507800.0271963
1455.453125	0.0	40	2980768	70	80	60	1	1	1507781.59873	1507781.5992214	80	1507784.8060185	1507784.8065139	40	1507788.0777242	1507788.0782658	100	imm	1507798.5549789	1507799.0660395	1507799.0664297	120.0	3.0	1507800.0271963
1458.724609375	0.0	100	2987468	70	80	60	1	1	1507781.59873	1507781.5992214	80	1507784.8060185	1507784.8065139	40	1507788.0777242	1507788.0782658	100	imm	1507798.5549789	1507799.0660395	1507799.0664297	120.0	3.0	1507800.0271963
1469.712890625	0.0	120	3009972	70	80	60	1	1	1507781.59873	1507781.5992214	80	1507784.8060185	1507784.8065139	40	1507788.0777242	1507788.0782658	100	imm	1507798.5549789	1507799.0660395	1507799.0664297	120.0	3.0	1507800.0271963
1473.01904296875	0.0	80	3016743	71	60	365	1	0	1507802.3722826	1507802.3727356	80	1507805.8551369	1507805.855587	40	1507809.2290222	1507809.2297313	100	imm	1507815.2912294	1507815.8051516	1507815.8056425	120.0	1.0	1507825.7476567
1476.501953125	0.0	40	3023876	71	60	365	1	0	1507802.3722826	1507802.3727356	80	1507805.8551369	1507805.855587	40	1507809.2290222	1507809.2297313	100	imm	1507815.2912294	1507815.8051516	1507815.8056425	120.0	1.0	1507825.7476567
1479.8759765625	0.0	100	3030786	71	60	365	1	0	1507802.3722826	1507802.3727356	80	1507805.8551369	1507805.855587	40	1507809.2290222	1507809.2297313	100	imm	1507815.2912294	1507815.8051516	1507815.8056425	120.0	1.0	1507825.7476567
1486.45166015625	0.0	120	3044253	71	60	365	1	0	1507802.3722826	1507802.3727356	80	1507805.8551369	1507805.855587	40	1507809.2290222	1507809.2297313	100	imm	1507815.2912294	1507815.8051516	1507815.8056425	120.0	1.0	1507825.7476567
1498.60888671875	0.0	80	3069151	72	90	510	0	0	1507827.9629237	1507827.9634484	80	1507831.3853182	1507831.3856397	40	1507834.4657093	1507834.4662302	100	del	1507848.9951926	nan	nan	nan	nan	nan
1502.03125	0.0	40	3076160	72	90	510	0	0	1507827.9629237	1507827.9634484	80	1507831.3853182	1507831.3856397	40	1507834.4657093	1507834.4662302	100	del	1507848.9951926	nan	nan	nan	nan	nan
1505.11181640625	0.0	100	3082469	72	90	510	0	0	1507827.9629237	1507827.9634484	80	1507831.3853182	1507831.3856397	40	1507834.4657093	1507834.4662302	100	del	1507848.9951926	nan	nan	nan	nan	nan
1522.1884765625	0.0	80	3117442	73	90	700	1	0	1507851.542915	1507851.5434547	80	1507854.5931294	1507854.5937286	40	1507857.6879366	1507857.6884207	100	del	1507861.81153	1507862.3212289	1507862.3215429	120.0	3.0	1507863.4044405
1525.23876953125	0.0	40	3123689	73	90	700	1	0	1507851.542915	1507851.5434547	80	1507854.5931294	1507854.5937286	40	1507857.6879366	1507857.6884207	100	del	1507861.81153	1507862.3212289	1507862.3215429	120.0	3.0	1507863.4044405
1528.33349609375	0.0	100	3130027	73	90	700	1	0	1507851.542915	1507851.5434547	80	1507854.5931294	1507854.5937286	40	1507857.6879366	1507857.6884207	100	del	1507861.81153	1507862.3212289	1507862.3215429	120.0	3.0	1507863.4044405
1532.96630859375	0.0	120	3139515	73	90	700	1	0	1507851.542915	1507851.5434547	80	1507854.5931294	1507854.5937286	40	1507857.6879366	1507857.6884207	100	del	1507861.81153	1507862.3212289	1507862.3215429	120.0	3.0	1507863.4044405
1536.2275390625	0.0	80	3146194	74	53	970	0	0	1507865.5824958	1507865.5829878	80	1507868.7409365	1507868.7415103	40	1507871.7608708	1507871.7613978	100	imm	1507872.835608	nan	nan	nan	nan	nan
1539.38623046875	0.0	40	3152663	74	53	970	0	0	1507865.5824958	1507865.5829878	80	1507868.7409365	1507868.7415103	40	1507871.7608708	1507871.7613978	100	imm	1507872.835608	nan	nan	nan	nan	nan
1542.40576171875	0.0	100	3158847	74	53	970	0	0	1507865.5824958	1507865.5829878	80	1507868.7409365	1507868.7415103	40	1507871.7608708	1507871.7613978	100	imm	1507872.835608	nan	nan	nan	nan	nan
1546.26806640625	0.0	80	3166757	75	83	700	1	0	1507875.6231853	1507875.6236458	80	1507878.6795087	1507878.6799699	40	1507881.7659911	1507881.7664931	100	del	1507896.4030623	1507896.916672	1507896.9171857	120.0	4.0	1507902.7950998
1549.32421875	0.0	40	3173016	75	83	700	1	0	1507875.6231853	1507875.6236458	80	1507878.6795087	1507878.6799699	40	1507881.7659911	1507881.7664931	100	del	1507896.4030623	1507896.916672	1507896.9171857	120.0	4.0	1507902.7950998
1552.41064453125	0.0	100	3179337	75	83	700	1	0	1507875.6231853	1507875.6236458	80	1507878.6795087	1507878.6799699	40	1507881.7659911	1507881.7664931	100	del	1507896.4030623	1507896.916672	1507896.9171857	120.0	4.0	1507902.7950998
1567.56103515625	0.0	120	3210365	75	83	700	1	0	1507875.6231853	1507875.6236458	80	1507878.6795087	1507878.6799699	40	1507881.7659911	1507881.7664931	100	del	1507896.4030623	1507896.916672	1507896.9171857	120.0	4.0	1507902.7950998
1575.76904296875	0.0	80	3227175	76	53	14	1	1	1507905.1246684	1507905.1253013	80	1507908.5620319	1507908.5624811	40	1507912.062601	1507912.0630208	100	imm	1507916.8992274	1507917.4130256	1507917.4134536	120.0	3.0	1507918.3712477
1579.2060546875	0.0	40	3234214	76	53	14	1	1	1507905.1246684	1507905.1253013	80	1507908.5620319	1507908.5624811	40	1507912.062601	1507912.0630208	100	imm	1507916.8992274	1507917.4130256	1507917.4134536	120.0	3.0	1507918.3712477
1582.70654296875	0.0	100	3241383	76	53	14	1	1	1507905.1246684	1507905.1253013	80	1507908.5620319	1507908.5624811	40	1507912.062601	1507912.0630208	100	imm	1507916.8992274	1507917.4130256	1507917.4134536	120.0	3.0	1507918.3712477
1588.05712890625	0.0	120	3252341	76	53	14	1	1	1507905.1246684	1507905.1253013	80	1507908.5620319	1507908.5624811	40	1507912.062601	1507912.0630208	100	imm	1507916.8992274	1507917.4130256	1507917.4134536	120.0	3.0	1507918.3712477
1591.31689453125	0.0	80	3259017	77	73	700	1	1	1507920.673248	1507920.6737995	80	1507924.1792613	1507924.1796919	40	1507927.4690488	1507927.4696777	100	imm	1507934.0749715	1507934.5861012	1507934.5864942	120.0	3.0	1507935.6830734
1594.8232421875	0.0	40	3266198	77	73	700	1	1	1507920.673248	1507920.6737995	80	1507924.1792613	1507924.1796919	40	1507927.4690488	1507927.4696777	100	imm	1507934.0749715	1507934.5861012	1507934.5864942	120.0	3.0	1507935.6830734
1598.11279296875	0.0	100	3272935	77	73	700	1	1	1507920.673248	1507920.6737995	80	1507924.1792613	1507924.1796919	40	1507927.4690488	1507927.4696777	100	imm	1507934.0749715	1507934.5861012	1507934.5864942	120.0	3.0	1507935.6830734
1605.2294921875	0.0	120	3287510	77	73	700	1	1	1507920.673248	1507920.6737995	80	1507924.1792613	1507924.1796919	40	1507927.4690488	1507927.4696777	100	imm	1507934.0749715	1507934.5861012	1507934.5864942	120.0	3.0	1507935.6830734
1608.60009765625	0.0	80	3294413	78	100	180	1	0	1507937.9568646	1507937.957358	80	1507941.1299739	1507941.130447	40	1507944.3589697	1507944.3593978	100	del	1507952.9565603	1507953.4706181	1507953.4710638	120.0	3.0	1507955.5950022
1611.7734375	0.0	40	3300912	78	100	180	1	0	1507937.9568646	1507937.957358	80	1507941.1299739	1507941.130447	40	1507944.3589697	1507944.3593978	100	del	1507952.9565603	1507953.4706181	1507953.4710638	120.0	3.0	1507955.5950022
1615.00244140625	0.0	100	3307525	78	100	180	1	0	1507937.9568646	1507937.957358	80	1507941.1299739	1507941.130447	40	1507944.3589697	1507944.3593978	100	del	1507952.9565603	1507953.4706181	1507953.4710638	120.0	3.0	1507955.5950022
1624.11376953125	0.0	120	3326185	78	100	180	1	0	1507937.9568646	1507937.957358	80	1507941.1299739	1507941.130447	40	1507944.3589697	1507944.3593978	100	del	1507952.9565603	1507953.4706181	1507953.4710638	120.0	3.0	1507955.5950022
1628.5009765625	0.0	80	3335170	79	87	260	0	0	1507957.8578433	1507957.8583444	80	1507960.9013968	1507960.9018681	40	1507964.3582206	1507964.3586874	100	del	1507977.907186	nan	nan	nan	nan	nan
1631.54443359375	0.0	40	3341403	79	87	260	0	0	1507957.8578433	1507957.8583444	80	1507960.9013968	1507960.9018681	40	1507964.3582206	1507964.3586874	100	del	1507977.907186	nan	nan	nan	nan	nan
1635.0009765625	0.0	100	3348482	79	87	260	0	0	1507957.8578433	1507957.8583444	80	1507960.9013968	1507960.9018681	40	1507964.3582206	1507964.3586874	100	del	1507977.907186	nan	nan	nan	nan	nan
1651.09423828125	0.0	80	3381441	80	73	110	0	1	1507980.4513645	1507980.4515357	80	1507983.6764035	1507983.6768492	40	1507987.1046915	1507987.1051069	100	del	1507989.9304702	nan	nan	nan	nan	nan
1654.31884765625	0.0	40	3388045	80	73	110	0	1	1507980.4513645	1507980.4515357	80	1507983.6764035	1507983.6768492	40	1507987.1046915	1507987.1051069	100	del	1507989.9304702	nan	nan	nan	nan	nan
1657.7470703125	0.0	100	3395066	80	73	110	0	1	1507980.4513645	1507980.4515357	80	1507983.6764035	1507983.6768492	40	1507987.1046915	1507987.1051069	100	del	1507989.9304702	nan	nan	nan	nan	nan
1673.701171875	0.0	80	3427740	81	50	180	1	0	1508003.0592099	1508003.0597268	80	1508006.3735135	1508006.3740069	40	1508009.7973003	1508009.7977898	100	imm	1508011.7633326	1508012.2776748	1508012.2782158	120.0	2.0	1508014.219225
1677.01513671875	0.0	40	3434527	81	50	180	1	0	1508003.0592099	1508003.0597268	80	1508006.3735135	1508006.3740069	40	1508009.7973003	1508009.7977898	100	imm	1508011.7633326	1508012.2776748	1508012.2782158	120.0	2.0	1508014.219225
1680.43896484375	0.0	100	3441539	81	50	180	1	0	1508003.0592099	1508003.0597268	80	1508006.3735135	1508006.3740069	40	1508009.7973003	1508009.7977898	100	imm	1508011.7633326	1508012.2776748	1508012.2782158	120.0	2.0	1508014.219225
1682.91943359375	0.0	120	3446619	81	50	180	1	0	1508003.0592099	1508003.0597268	80	1508006.3735135	1508006.3740069	40	1508009.7973003	1508009.7977898	100	imm	1508011.7633326	1508012.2776748	1508012.2782158	120.0	2.0	1508014.219225
1687.31591796875	0.0	80	3455623	82	87	110	0	1	1508016.6744903	1508016.6748954	80	1508020.1476009	1508020.148084	40	1508023.2577178	1508023.2582659	100	del	1508026.1952152	nan	nan	nan	nan	nan
1690.7890625	0.0	40	3462736	82	87	110	0	1	1508016.6744903	1508016.6748954	80	1508020.1476009	1508020.148084	40	1508023.2577178	1508023.2582659	100	del	1508026.1952152	nan	nan	nan	nan	nan
1693.89892578125	0.0	100	3469105	82	87	110	0	1	1508016.6744903	1508016.6748954	80	1508020.1476009	1508020.148084	40	1508023.2577178	1508023.2582659	100	del	1508026.1952152	nan	nan	nan	nan	nan
1699.48291015625	0.0	80	3480541	83	97	180	1	1	1508028.8419494	1508028.8424575	80	1508032.2993517	1508032.2998132	40	1508035.6097583	1508035.6102778	100	del	1508039.8110479	1508040.3206542	1508040.320931	120.0	3.0	1508043.7711592
1702.9404296875	0.0	40	3487622	83	97	180	1	1	1508028.8419494	1508028.8424575	80	1508032.2993517	1508032.2998132	40	1508035.6097583	1508035.6102778	100	del	1508039.8110479	1508040.3206542	1508040.320931	120.0	3.0	1508043.7711592
1706.2509765625	0.0	100	3494402	83	97	180	1	1	1508028.8419494	1508028.8424575	80	1508032.2993517	1508032.2998132	40	1508035.6097583	1508035.6102778	100	del	1508039.8110479	1508040.3206542	1508040.320931	120.0	3.0	1508043.7711592
1710.96142578125	0.0	120	3504049	83	97	180	1	1	1508028.8419494	1508028.8424575	80	1508032.2993517	1508032.2998132	40	1508035.6097583	1508035.6102778	100	del	1508039.8110479	1508040.3206542	1508040.320931	120.0	3.0	1508043.7711592
1716.6767578125	0.0	80	3515754	84	63	700	1	1	1508046.0360324	1508046.0364851	80	1508049.3513115	1508049.3518235	40	1508052.774898	1508052.77539	100	imm	1508055.4506172	1508055.9604831	1508055.9607705	120.0	3.0	1508056.2922265
1719.9921875	0.0	40	3522544	84	63	700	1	1	1508046.0360324	1508046.0364851	80	1508049.3513115	1508049.3518235	40	1508052.774898	1508052.77539	100	imm	1508055.4506172	1508055.9604831	1508055.9607705	120.0	3.0	1508056.2922265
1723.41552734375	0.0	100	3529555	84	63	700	1	1	1508046.0360324	1508046.0364851	80	1508049.3513115	1508049.3518235	40	1508052.774898	1508052.77539	100	imm	1508055.4506172	1508055.9604831	1508055.9607705	120.0	3.0	1508056.2922265
1726.60107421875	0.0	120	3536079	84	63	700	1	1	1508046.0360324	1508046.0364851	80	1508049.3513115	1508049.3518235	40	1508052.774898	1508052.77539	100	imm	1508055.4506172	1508055.9604831	1508055.9607705	120.0	3.0	1508056.2922265
1729.2099609375	0.0	80	3541422	85	87	30	0	1	1508058.5696348	1508058.5699837	80	1508061.6775312	1508061.6785217	40	1508064.9178056	1508064.9182544	100	imm	1508066.3871467	nan	nan	nan	nan	nan
1732.31787109375	0.0	40	3547787	85	87	30	0	1	1508058.5696348	1508058.5699837	80	1508061.6775312	1508061.6785217	40	1508064.9178056	1508064.9182544	100	imm	1508066.3871467	nan	nan	nan	nan	nan
1735.55810546875	0.0	100	3554423	85	87	30	0	1	1508058.5696348	1508058.5699837	80	1508061.6775312	1508061.6785217	40	1508064.9178056	1508064.9182544	100	imm	1508066.3871467	nan	nan	nan	nan	nan
1739.75927734375	0.0	80	3563027	86	73	60	1	1	1508069.1188957	1508069.1194491	80	1508072.6098875	1508072.6104241	40	1508075.9330169	1508075.9334994	100	del	1508082.1623745	1508082.6767051	1508082.6771461	120.0	3.0	1508083.6583612
1743.25	0.0	40	3570176	86	73	60	1	1	1508069.1188957	1508069.1194491	80	1508072.6098875	1508072.6104241	40	1508075.9330169	1508075.9334994	100	del	1508082.1623745	1508082.6767051	1508082.6771461	120.0	3.0	1508083.6583612
1746.5732421875	0.0	100	3576982	86	73	60	1	1	1508069.1188957	1508069.1194491	80	1508072.6098875	1508072.6104241	40	1508075.9330169	1508075.9334994	100	del	1508082.1623745	1508082.6767051	1508082.6771461	120.0	3.0	1508083.6583612
1753.31640625	0.0	120	3590792	86	73	60	1	1	1508069.1188957	1508069.1194491	80	1508072.6098875	1508072.6104241	40	1508075.9330169	1508075.9334994	100	del	1508082.1623745	1508082.6767051	1508082.6771461	120.0	3.0	1508083.6583612
1756.6630859375	0.0	80	3597646	87	93	260	0	1	1508086.0233039	1508086.0238022	80	1508089.3911417	1508089.391651	40	1508092.5776388	1508092.5781221	100	del	1508095.403148	nan	nan	nan	nan	nan
1760.03076171875	0.0	40	3604543	87	93	260	0	1	1508086.0233039	1508086.0238022	80	1508089.3911417	1508089.391651	40	1508092.5776388	1508092.5781221	100	del	1508095.403148	nan	nan	nan	nan	nan
1763.21728515625	0.0	100	3611069	87	93	260	0	1	1508086.0233039	1508086.0238022	80	1508089.3911417	1508089.391651	40	1508092.5776388	1508092.5781221	100	del	1508095.403148	nan	nan	nan	nan	nan
1768.818359375	0.0	80	3622540	88	97	260	0	1	1508098.1788508	1508098.1794053	80	1508101.4650408	1508101.4654881	40	1508104.5574276	1508104.5578887	100	del	1508109.9393263	nan	nan	nan	nan	nan
1772.1044921875	0.0	40	3629270	88	97	260	0	1	1508098.1788508	1508098.1794053	80	1508101.4650408	1508101.4654881	40	1508104.5574276	1508104.5578887	100	del	1508109.9393263	nan	nan	nan	nan	nan
1775.19677734375	0.0	100	3635603	88	97	260	0	1	1508098.1788508	1508098.1794053	80	1508101.4650408	1508101.4654881	40	1508104.5574276	1508104.5578887	100	del	1508109.9393263	nan	nan	nan	nan	nan
1783.37646484375	0.0	80	3652355	89	90	260	0	1	1508112.7374092	1508112.7379359	80	1508116.092416	1508116.0928824	40	1508119.3196703	1508119.3201588	100	del	1508129.5945991	nan	nan	nan	nan	nan
1786.7314453125	0.0	40	3659226	89	90	260	0	1	1508112.7374092	1508112.7379359	80	1508116.092416	1508116.0928824	40	1508119.3196703	1508119.3201588	100	del	1508129.5945991	nan	nan	nan	nan	nan
1789.95849609375	0.0	100	3665835	89	90	260	0	1	1508112.7374092	1508112.7379359	80	1508116.092416	1508116.0928824	40	1508119.3196703	1508119.3201588	100	del	1508129.5945991	nan	nan	nan	nan	nan
1803.166015625	0.0	80	3692884	90	70	30	0	1	1508132.5268834	1508132.5271235	80	1508135.9006177	1508135.9011656	40	1508139.0934696	1508139.0939413	100	imm	1508141.1147364	nan	nan	nan	nan	nan
1806.5390625	0.0	40	3699792	90	70	30	0	1	1508132.5268834	1508132.5271235	80	1508135.9006177	1508135.9011656	40	1508139.0934696	1508139.0939413	100	imm	1508141.1147364	nan	nan	nan	nan	nan
1809.73193359375	0.0	100	3706331	90	70	30	0	1	1508132.5268834	1508132.5271235	80	1508135.9006177	1508135.9011656	40	1508139.0934696	1508139.0939413	100	imm	1508141.1147364	nan	nan	nan	nan	nan
1814.49658203125	0.0	80	3716089	91	63	260	0	0	1508143.8584005	1508143.8588221	80	1508147.0609091	1508147.0614232	40	1508150.4628653	1508150.4633667	100	imm	1508157.9230183	nan	nan	nan	nan	nan
1817.69921875	0.0	40	3722648	91	63	260	0	0	1508143.8584005	1508143.8588221	80	1508147.0609091	1508147.0614232	40	1508150.4628653	1508150.4633667	100	imm	1508157.9230183	nan	nan	nan	nan	nan
1821.10107421875	0.0	100	3729615	91	63	260	0	0	1508143.8584005	1508143.8588221	80	1508147.0609091	1508147.0614232	40	1508150.4628653	1508150.4633667	100	imm	1508157.9230183	nan	nan	nan	nan	nan
1831.447265625	0.0	80	3750804	92	70	110	0	0	1508160.8091734	1508160.8097027	80	1508164.0320017	1508164.032395	40	1508167.393118	1508167.3935899	100	imm	1508170.1628124	nan	nan	nan	nan	nan
1834.669921875	0.0	40	3757404	92	70	110	0	0	1508160.8091734	1508160.8097027	80	1508164.0320017	1508164.032395	40	1508167.393118	1508167.3935899	100	imm	1508170.1628124	nan	nan	nan	nan	nan
1838.03076171875	0.0	100	3764287	92	70	110	0	0	1508160.8091734	1508160.8097027	80	1508164.0320017	1508164.032395	40	1508167.393118	1508167.3935899	100	imm	1508170.1628124	nan	nan	nan	nan	nan
1843.7958984375	0.0	80	3776094	93	100	970	0	0	1508173.1581113	1508173.1585465	80	1508176.5579234	1508176.5584173	40	1508179.9244796	1508179.9250035	100	del	1508181.6742253	nan	nan	nan	nan	nan
1847.1953125	0.0	40	3783056	93	100	970	0	0	1508173.1581113	1508173.1585465	80	1508176.5579234	1508176.5584173	40	1508179.9244796	1508179.9250035	100	del	1508181.6742253	nan	nan	nan	nan	nan
1850.56201171875	0.0	100	3789951	93	100	970	0	0	1508173.1581113	1508173.1585465	80	1508176.5579234	1508176.5584173	40	1508179.9244796	1508179.9250035	100	del	1508181.6742253	nan	nan	nan	nan	nan
1854.88525390625	0.0	80	3798805	94	93	365	1	0	1508184.247903	1508184.2483998	80	1508187.451633	1508187.452034	40	1508190.7618952	1508190.7624339	100	del	1508199.5716353	1508200.0813425	1508200.0817025	120.0	3.0	1508202.3471244
1858.0888671875	0.0	40	3805366	94	93	365	1	0	1508184.247903	1508184.2483998	80	1508187.451633	1508187.452034	40	1508190.7618952	1508190.7624339	100	del	1508199.5716353	1508200.0813425	1508200.0817025	120.0	3.0	1508202.3471244
1861.39892578125	0.0	100	3812145	94	93	365	1	0	1508184.247903	1508184.2483998	80	1508187.451633	1508187.452034	40	1508190.7618952	1508190.7624339	100	del	1508199.5716353	1508200.0813425	1508200.0817025	120.0	3.0	1508202.3471244
1870.71826171875	0.0	120	3831231	94	93	365	1	0	1508184.247903	1508184.2483998	80	1508187.451633	1508187.452034	40	1508190.7618952	1508190.7624339	100	del	1508199.5716353	1508200.0813425	1508200.0817025	120.0	3.0	1508202.3471244
1875.2294921875	0.0	80	3840470	95	53	260	0	0	1508204.5926568	1508204.5932063	80	1508207.6265141	1508207.6270222	40	1508210.7541237	1508210.7546232	100	imm	1508214.0344136	nan	nan	nan	nan	nan
1878.26318359375	0.0	40	3846683	95	53	260	0	0	1508204.5926568	1508204.5932063	80	1508207.6265141	1508207.6270222	40	1508210.7541237	1508210.7546232	100	imm	1508214.0344136	nan	nan	nan	nan	nan
1881.390625	0.0	100	3853088	95	53	260	0	0	1508204.5926568	1508204.5932063	80	1508207.6265141	1508207.6270222	40	1508210.7541237	1508210.7546232	100	imm	1508214.0344136	nan	nan	nan	nan	nan
1887.60498046875	0.0	80	3865815	96	60	60	1	1	1508216.9682724	1508216.9687303	80	1508219.9837278	1508219.9842587	40	1508223.4285049	1508223.4297757	100	imm	1508232.34747	1508232.8611204	1508232.861579	120.0	3.0	1508233.2263026
1890.6201171875	0.0	40	3871990	96	60	60	1	1	1508216.9682724	1508216.9687303	80	1508219.9837278	1508219.9842587	40	1508223.4285049	1508223.4297757	100	imm	1508232.34747	1508232.8611204	1508232.861579	120.0	3.0	1508233.2263026
1894.064453125	0.0	100	3879044	96	60	60	1	1	1508216.9682724	1508216.9687303	80	1508219.9837278	1508219.9842587	40	1508223.4285049	1508223.4297757	100	imm	1508232.34747	1508232.8611204	1508232.861579	120.0	3.0	1508233.2263026
1903.4970703125	0.0	120	3898362	96	60	60	1	1	1508216.9682724	1508216.9687303	80	1508219.9837278	1508219.9842587	40	1508223.4285049	1508223.4297757	100	imm	1508232.34747	1508232.8611204	1508232.861579	120.0	3.0	1508233.2263026
1905.91357421875	0.0	80	3903311	97	77	700	1	0	1508235.2772497	1508235.277731	80	1508238.6197677	1508238.6202182	40	1508241.883898	1508241.8843556	100	imm	1508244.8425647	1508245.3533263	1508245.3536606	120.0	3.0	1508248.8429175
1909.255859375	0.0	40	3910156	97	77	700	1	0	1508235.2772497	1508235.277731	80	1508238.6197677	1508238.6202182	40	1508241.883898	1508241.8843556	100	imm	1508244.8425647	1508245.3533263	1508245.3536606	120.0	3.0	1508248.8429175
1912.52001953125	0.0	100	3916841	97	77	700	1	0	1508235.2772497	1508235.277731	80	1508238.6197677	1508238.6202182	40	1508241.883898	1508241.8843556	100	imm	1508244.8425647	1508245.3533263	1508245.3536606	120.0	3.0	1508248.8429175
1915.9892578125	0.0	120	3923946	97	77	700	1	0	1508235.2772497	1508235.277731	80	1508238.6197677	1508238.6202182	40	1508241.883898	1508241.8843556	100	imm	1508244.8425647	1508245.3533263	1508245.3536606	120.0	3.0	1508248.8429175
1921.60400390625	0.0	80	3935445	98	63	14	1	1	1508250.9682309	1508250.9687048	80	1508254.2617444	1508254.2622015	40	1508257.3394706	1508257.3399448	100	imm	1508262.3318635	1508262.8434694	1508262.8438652	120.0	3.0	1508263.986188
1924.8974609375	0.0	40	3942190	98	63	14	1	1	1508250.9682309	1508250.9687048	80	1508254.2617444	1508254.2622015	40	1508257.3394706	1508257.3399448	100	imm	1508262.3318635	1508262.8434694	1508262.8438652	120.0	3.0	1508263.986188
1927.97509765625	0.0	100	3948493	98	63	14	1	1	1508250.9682309	1508250.9687048	80	1508254.2617444	1508254.2622015	40	1508257.3394706	1508257.3399448	100	imm	1508262.3318635	1508262.8434694	1508262.8438652	120.0	3.0	1508263.986188
1933.47900390625	0.0	120	3959765	98	63	14	1	1	1508250.9682309	1508250.9687048	80	1508254.2617444	1508254.2622015	40	1508257.3394706	1508257.3399448	100	imm	1508262.3318635	1508262.8434694	1508262.8438652	120.0	3.0	1508263.986188
1936.97314453125	0.0	80	3966921	99	53	30	0	1	1508266.3380031	1508266.338509	80	1508269.6453055	1508269.6457036	40	1508272.6866837	1508272.6871952	100	imm	1508273.651632	nan	nan	nan	nan	nan
1940.28076171875	0.0	40	3973695	99	53	30	0	1	1508266.3380031	1508266.338509	80	1508269.6453055	1508269.6457036	40	1508272.6866837	1508272.6871952	100	imm	1508273.651632	nan	nan	nan	nan	nan
1943.32177734375	0.0	100	3979923	99	53	30	0	1	1508266.3380031	1508266.338509	80	1508269.6453055	1508269.6457036	40	1508272.6866837	1508272.6871952	100	imm	1508273.651632	nan	nan	nan	nan	nan
1946.8349609375	0.0	80	3987118	100	100	30	0	0	1508276.1999326	1508276.2004379	80	1508279.2837521	1508279.2842401	40	1508282.3066987	1508282.3072604	100	del	1508285.0419806	nan	nan	nan	nan	nan
1949.9189453125	0.0	40	3993434	100	100	30	0	0	1508276.1999326	1508276.2004379	80	1508279.2837521	1508279.2842401	40	1508282.3066987	1508282.3072604	100	del	1508285.0419806	nan	nan	nan	nan	nan
1952.94189453125	0.0	100	3999625	100	100	30	0	0	1508276.1999326	1508276.2004379	80	1508279.2837521	1508279.2842401	40	1508282.3066987	1508282.3072604	100	del	1508285.0419806	nan	nan	nan	nan	nan
1964.20654296875	0.0	80	4022695	101	70	14	1	0	1508293.5719617	1508293.5724297	80	1508296.9967268	1508296.9971777	40	1508300.3185776	1508300.3190898	100	imm	1508302.6116052	1508303.1218492	1508303.1221939	120.0	3.0	1508306.2022284
1967.63134765625	0.0	40	4029709	101	70	14	1	0	1508293.5719617	1508293.5724297	80	1508296.9967268	1508296.9971777	40	1508300.3185776	1508300.3190898	100	imm	1508302.6116052	1508303.1218492	1508303.1221939	120.0	3.0	1508306.2022284
1970.953125	0.0	100	4036512	101	70	14	1	0	1508293.5719617	1508293.5724297	80	1508296.9967268	1508296.9971777	40	1508300.3185776	1508300.3190898	100	imm	1508302.6116052	1508303.1218492	1508303.1221939	120.0	3.0	1508306.2022284
1973.75634765625	0.0	120	4042253	101	70	14	1	0	1508293.5719617	1508293.5724297	80	1508296.9967268	1508296.9971777	40	1508300.3185776	1508300.3190898	100	imm	1508302.6116052	1508303.1218492	1508303.1221939	120.0	3.0	1508306.2022284
1979.11767578125	0.0	80	4053233	102	57	60	1	1	1508308.4831193	1508308.4835588	80	1508311.9226345	1508311.9231629	40	1508314.9850871	1508314.985599	100	imm	1508322.5236308	1508323.0338917	1508323.0342619	120.0	4.0	1508324.2827748
1982.556640625	0.0	40	4060276	102	57	60	1	1	1508308.4831193	1508308.4835588	80	1508311.9226345	1508311.9231629	40	1508314.9850871	1508314.985599	100	imm	1508322.5236308	1508323.0338917	1508323.0342619	120.0	4.0	1508324.2827748
1985.619140625	0.0	100	4066548	102	57	60	1	1	1508308.4831193	1508308.4835588	80	1508311.9226345	1508311.9231629	40	1508314.9850871	1508314.985599	100	imm	1508322.5236308	1508323.0338917	1508323.0342619	120.0	4.0	1508324.2827748
1993.66796875	0.0	120	4083032	102	57	60	1	1	1508308.4831193	1508308.4835588	80	1508311.9226345	1508311.9231629	40	1508314.9850871	1508314.985599	100	imm	1508322.5236308	1508323.0338917	1508323.0342619	120.0	4.0	1508324.2827748
1997.38623046875	0.0	80	4090647	103	80	260	0	1	1508326.7523169	1508326.7528202	80	1508329.8141547	1508329.8146231	40	1508333.0856143	1508333.0861092	100	del	1508341.1784135	nan	nan	nan	nan	nan
2000.44775390625	0.0	40	4096917	103	80	260	0	1	1508326.7523169	1508326.7528202	80	1508329.8141547	1508329.8146231	40	1508333.0856143	1508333.0861092	100	del	1508341.1784135	nan	nan	nan	nan	nan
2003.71923828125	0.0	100	4103617	103	80	260	0	1	1508326.7523169	1508326.7528202	80	1508329.8141547	1508329.8146231	40	1508333.0856143	1508333.0861092	100	del	1508341.1784135	nan	nan	nan	nan	nan
2014.40087890625	0.0	80	4125493	104	90	365	1	0	1508343.7674768	1508343.768057	80	1508347.0564724	1508347.0569488	40	1508350.0719844	1508350.0724668	100	del	1508357.458034	1508357.968592	1508357.9691351	120.0	1.0	1508359.1144852
2017.68994140625	0.0	40	4132229	104	90	365	1	0	1508343.7674768	1508343.768057	80	1508347.0564724	1508347.0569488	40	1508350.0719844	1508350.0724668	100	del	1508357.458034	1508357.968592	1508357.9691351	120.0	1.0	1508359.1144852
2020.705078125	0.0	100	4138404	104	90	365	1	0	1508343.7674768	1508343.768057	80	1508347.0564724	1508347.0569488	40	1508350.0719844	1508350.0724668	100	del	1508357.458034	1508357.968592	1508357.9691351	120.0	1.0	1508359.1144852
2028.60205078125	0.0	120	4154577	104	90	365	1	0	1508343.7674768	1508343.768057	80	1508347.0564724	1508347.0569488	40	1508350.0719844	1508350.0724668	100	del	1508357.458034	1508357.968592	1508357.9691351	120.0	1.0	1508359.1144852
2032.14453125	0.0	80	4161832	105	73	260	0	1	1508361.5117406	1508361.5120564	80	1508364.943427	1508364.9438261	40	1508368.4146164	1508368.4151342	100	imm	1508371.0501433	nan	nan	nan	nan	nan
2035.576171875	0.0	40	4168860	105	73	260	0	1	1508361.5117406	1508361.5120564	80	1508364.943427	1508364.9438261	40	1508368.4146164	1508368.4151342	100	imm	1508371.0501433	nan	nan	nan	nan	nan
2039.04736328125	0.0	100	4175969	105	73	260	0	1	1508361.5117406	1508361.5120564	80	1508364.943427	1508364.9438261	40	1508368.4146164	1508368.4151342	100	imm	1508371.0501433	nan	nan	nan	nan	nan
2044.69580078125	0.0	80	4187537	106	87	180	1	0	1508374.063274	1508374.0640267	80	1508377.3245916	1508377.3250587	40	1508380.4738541	1508380.4743767	100	del	1508384.9381997	1508385.4473251	1508385.4476436	120.0	3.0	1508386.0421686
2047.95703125	0.0	40	4194216	106	87	180	1	0	1508374.063274	1508374.0640267	80	1508377.3245916	1508377.3250587	40	1508380.4738541	1508380.4743767	100	del	1508384.9381997	1508385.4473251	1508385.4476436	120.0	3.0	1508386.0421686
2051.1064453125	0.0	100	4200666	106	87	180	1	0	1508374.063274	1508374.0640267	80	1508377.3245916	1508377.3250587	40	1508380.4738541	1508380.4743767	100	del	1508384.9381997	1508385.4473251	1508385.4476436	120.0	3.0	1508386.0421686
2056.07958984375	0.0	120	4210851	106	87	180	1	0	1508374.063274	1508374.0640267	80	1508377.3245916	1508377.3250587	40	1508380.4738541	1508380.4743767	100	del	1508384.9381997	1508385.4473251	1508385.4476436	120.0	3.0	1508386.0421686
2058.73876953125	0.0	80	4216297	107	100	60	1	0	1508388.1064707	1508388.1069555	80	1508391.3683114	1508391.3687454	40	1508394.6748229	1508394.6753449	100	del	1508397.2983463	1508397.8080924	1508397.8084669	120.0	3.0	1508398.6275162
2062.00048828125	0.0	40	4222977	107	100	60	1	0	1508388.1064707	1508388.1069555	80	1508391.3683114	1508391.3687454	40	1508394.6748229	1508394.6753449	100	del	1508397.2983463	1508397.8080924	1508397.8084669	120.0	3.0	1508398.6275162
2065.30712890625	0.0	100	4229749	107	100	60	1	0	1508388.1064707	1508388.1069555	80	1508391.3683114	1508391.3687454	40	1508394.6748229	1508394.6753449	100	del	1508397.2983463	1508397.8080924	1508397.8084669	120.0	3.0	1508398.6275162
2068.43994140625	0.0	120	4236165	107	100	60	1	0	1508388.1064707	1508388.1069555	80	1508391.3683114	1508391.3687454	40	1508394.6748229	1508394.6753449	100	del	1508397.2983463	1508397.8080924	1508397.8084669	120.0	3.0	1508398.6275162
2071.6572265625	0.0	80	4242754	108	70	510	0	0	1508401.0252938	1508401.0258055	80	1508404.0742169	1508404.0746443	40	1508407.4185431	1508407.4190829	100	imm	1508407.9542766	nan	nan	nan	nan	nan
2074.7060546875	0.0	40	4248998	108	70	510	0	0	1508401.0252938	1508401.0258055	80	1508404.0742169	1508404.0746443	40	1508407.4185431	1508407.4190829	100	imm	1508407.9542766	nan	nan	nan	nan	nan
2078.05029296875	0.0	100	4255847	108	70	510	0	0	1508401.0252938	1508401.0258055	80	1508404.0742169	1508404.0746443	40	1508407.4185431	1508407.4190829	100	imm	1508407.9542766	nan	nan	nan	nan	nan
2081.36328125	0.0	80	4262632	109	83	365	1	0	1508410.7313066	1508410.7317993	80	1508413.8244717	1508413.8249734	40	1508417.3076856	1508417.3082201	100	del	1508419.6354891	1508420.1454124	1508420.1457907	120.0	1.0	1508420.7463461
2084.4560546875	0.0	40	4268966	109	83	365	1	0	1508410.7313066	1508410.7317993	80	1508413.8244717	1508413.8249734	40	1508417.3076856	1508417.3082201	100	del	1508419.6354891	1508420.1454124	1508420.1457907	120.0	1.0	1508420.7463461
2087.939453125	0.0	100	4276100	109	83	365	1	0	1508410.7313066	1508410.7317993	80	1508413.8244717	1508413.8249734	40	1508417.3076856	1508417.3082201	100	del	1508419.6354891	1508420.1454124	1508420.1457907	120.0	1.0	1508420.7463461
2090.77685546875	0.0	120	4281911	109	83	365	1	0	1508410.7313066	1508410.7317993	80	1508413.8244717	1508413.8249734	40	1508417.3076856	1508417.3082201	100	del	1508419.6354891	1508420.1454124	1508420.1457907	120.0	1.0	1508420.7463461
2093.6865234375	0.0	80	4287870	110	100	700	1	1	1508423.0548594	1508423.0553691	80	1508426.2829171	1508426.2833801	40	1508429.7670689	1508429.7673735	100	del	1508435.5305313	1508436.0445924	1508436.0450901	120.0	2.0	1508437.0111706
2096.9140625	0.0	40	4294480	110	100	700	1	1	1508423.0548594	1508423.0553691	80	1508426.2829171	1508426.2833801	40	1508429.7670689	1508429.7673735	100	del	1508435.5305313	1508436.0445924	1508436.0450901	120.0	2.0	1508437.0111706
2100.3984375	0.0	100	4301616	110	100	700	1	1	1508423.0548594	1508423.0553691	80	1508426.2829171	1508426.2833801	40	1508429.7670689	1508429.7673735	100	del	1508435.5305313	1508436.0445924	1508436.0450901	120.0	2.0	1508437.0111706
2106.67578125	0.0	120	4314472	110	100	700	1	1	1508423.0548594	1508423.0553691	80	1508426.2829171	1508426.2833801	40	1508429.7670689	1508429.7673735	100	del	1508435.5305313	1508436.0445924	1508436.0450901	120.0	2.0	1508437.0111706
2109.98388671875	0.0	80	4321247	111	50	365	1	1	1508439.3528879	1508439.3533978	80	1508442.5864015	1508442.5868239	40	1508446.0194276	1508446.0199584	100	imm	1508450.0757157	1508450.5858964	1508450.5863918	120.0	3.0	1508451.1383898
2113.21728515625	0.0	40	4327869	111	50	365	1	1	1508439.3528879	1508439.3533978	80	1508442.5864015	1508442.5868239	40	1508446.0194276	1508446.0199584	100	imm	1508450.0757157	1508450.5858964	1508450.5863918	120.0	3.0	1508451.1383898
2116.650390625	0.0	100	4334900	111	50	365	1	1	1508439.3528879	1508439.3533978	80	1508442.5864015	1508442.5868239	40	1508446.0194276	1508446.0199584	100	imm	1508450.0757157	1508450.5858964	1508450.5863918	120.0	3.0	1508451.1383898
2121.216796875	0.0	120	4344252	111	50	365	1	1	1508439.3528879	1508439.3533978	80	1508442.5864015	1508442.5868239	40	1508446.0194276	1508446.0199584	100	imm	1508450.0757157	1508450.5858964	1508450.5863918	120.0	3.0	1508451.1383898
2124.05078125	0.0	80	4350056	112	53	60	1	0	1508453.4200708	1508453.4205228	80	1508456.7046783	1508456.70516	40	1508460.0589954	1508460.0594891	100	imm	1508465.553802	1508466.0649402	1508466.0652281	120.0	3.0	1508466.9063563
2127.33544921875	0.0	40	4356783	112	53	60	1	0	1508453.4200708	1508453.4205228	80	1508456.7046783	1508456.70516	40	1508460.0589954	1508460.0594891	100	imm	1508465.553802	1508466.0649402	1508466.0652281	120.0	3.0	1508466.9063563
2130.689453125	0.0	100	4363652	112	53	60	1	0	1508453.4200708	1508453.4205228	80	1508456.7046783	1508456.70516	40	1508460.0589954	1508460.0594891	100	imm	1508465.553802	1508466.0649402	1508466.0652281	120.0	3.0	1508466.9063563
2136.6953125	0.0	120	4375952	112	53	60	1	0	1508453.4200708	1508453.4205228	80	1508456.7046783	1508456.70516	40	1508460.0589954	1508460.0594891	100	imm	1508465.553802	1508466.0649402	1508466.0652281	120.0	3.0	1508466.9063563
2139.73681640625	0.0	80	4382181	113	80	30	0	0	1508469.1065707	1508469.1070236	80	1508472.2334023	1508472.2338952	40	1508475.536126	1508475.5367078	100	imm	1508476.4024701	nan	nan	nan	nan	nan
2142.86376953125	0.0	40	4388585	113	80	30	0	0	1508469.1065707	1508469.1070236	80	1508472.2334023	1508472.2338952	40	1508475.536126	1508475.5367078	100	imm	1508476.4024701	nan	nan	nan	nan	nan
2146.16650390625	0.0	100	4395349	113	80	30	0	0	1508469.1065707	1508469.1070236	80	1508472.2334023	1508472.2338952	40	1508475.536126	1508475.5367078	100	imm	1508476.4024701	nan	nan	nan	nan	nan
2149.9833984375	0.0	80	4403166	114	67	510	0	0	1508479.3534426	1508479.3539167	80	1508482.5641688	1508482.5646655	40	1508485.6336486	1508485.6341717	100	imm	1508490.0657512	nan	nan	nan	nan	nan
2153.1943359375	0.0	40	4409742	114	67	510	0	0	1508479.3534426	1508479.3539167	80	1508482.5641688	1508482.5646655	40	1508485.6336486	1508485.6341717	100	imm	1508490.0657512	nan	nan	nan	nan	nan
2156.263671875	0.0	100	4416028	114	67	510	0	0	1508479.3534426	1508479.3539167	80	1508482.5641688	1508482.5646655	40	1508485.6336486	1508485.6341717	100	imm	1508490.0657512	nan	nan	nan	nan	nan
2163.43505859375	0.0	80	4430715	115	83	510	0	1	1508492.8053029	1508492.8057411	80	1508495.9627988	1508495.9632988	40	1508499.1772946	1508499.1777934	100	del	1508501.4501613	nan	nan	nan	nan	nan
2166.59228515625	0.0	40	4437181	115	83	510	0	1	1508492.8053029	1508492.8057411	80	1508495.9627988	1508495.9632988	40	1508499.1772946	1508499.1777934	100	del	1508501.4501613	nan	nan	nan	nan	nan
2169.806640625	0.0	100	4443764	115	83	510	0	1	1508492.8053029	1508492.8057411	80	1508495.9627988	1508495.9632988	40	1508499.1772946	1508499.1777934	100	del	1508501.4501613	nan	nan	nan	nan	nan
2175.01318359375	0.0	80	4454427	116	87	14	1	0	1508504.3843242	1508504.3851204	80	1508507.5941157	1508507.594611	40	1508510.8030898	1508510.8035684	100	imm	1508512.1464635	1508512.6567939	1508512.6571985	120.0	1.0	1508515.7623512
2178.2236328125	0.0	40	4461002	116	87	14	1	0	1508504.3843242	1508504.3851204	80	1508507.5941157	1508507.594611	40	1508510.8030898	1508510.8035684	100	imm	1508512.1464635	1508512.6567939	1508512.6571985	120.0	1.0	1508515.7623512
2181.4326171875	0.0	100	4467574	116	87	14	1	0	1508504.3843242	1508504.3851204	80	1508507.5941157	1508507.594611	40	1508510.8030898	1508510.8035684	100	imm	1508512.1464635	1508512.6567939	1508512.6571985	120.0	1.0	1508515.7623512
2183.2861328125	0.0	120	4471370	116	87	14	1	0	1508504.3843242	1508504.3851204	80	1508507.5941157	1508507.594611	40	1508510.8030898	1508510.8035684	100	imm	1508512.1464635	1508512.6567939	1508512.6571985	120.0	1.0	1508515.7623512
2188.587890625	0.0	80	4482228	117	67	60	1	0	1508517.9587962	1508517.959247	80	1508521.0372228	1508521.037762	40	1508524.180588	1508524.1811088	100	del	1508527.6180152	1508528.1277213	1508528.1279781	120.0	3.0	1508528.929931
2191.66650390625	0.0	40	4488533	117	67	60	1	0	1508517.9587962	1508517.959247	80	1508521.0372228	1508521.037762	40	1508524.180588	1508524.1811088	100	del	1508527.6180152	1508528.1277213	1508528.1279781	120.0	3.0	1508528.929931
2194.8095703125	0.0	100	4494970	117	67	60	1	0	1508517.9587962	1508517.959247	80	1508521.0372228	1508521.037762	40	1508524.180588	1508524.1811088	100	del	1508527.6180152	1508528.1277213	1508528.1279781	120.0	3.0	1508528.929931
2198.75634765625	0.0	120	4503053	117	67	60	1	0	1508517.9587962	1508517.959247	80	1508521.0372228	1508521.037762	40	1508524.180588	1508524.1811088	100	del	1508527.6180152	1508528.1277213	1508528.1279781	120.0	3.0	1508528.929931
2201.6162109375	0.0	80	4508910	118	93	180	1	1	1508530.987398	1508530.9877745	80	1508534.2095495	1508534.2099691	40	1508537.3521425	1508537.3526366	100	del	1508543.0097018	1508543.5231142	1508543.5236323	120.0	2.0	1508544.107283
2204.83837890625	0.0	40	4515509	118	93	180	1	1	1508530.987398	1508530.9877745	80	1508534.2095495	1508534.2099691	40	1508537.3521425	1508537.3526366	100	del	1508543.0097018	1508543.5231142	1508543.5236323	120.0	2.0	1508544.107283
2207.98095703125	0.0	100	4521945	118	93	180	1	1	1508530.987398	1508530.9877745	80	1508534.2095495	1508534.2099691	40	1508537.3521425	1508537.3526366	100	del	1508543.0097018	1508543.5231142	1508543.5236323	120.0	2.0	1508544.107283
2214.1513671875	0.0	120	4534582	118	93	180	1	1	1508530.987398	1508530.9877745	80	1508534.2095495	1508534.2099691	40	1508537.3521425	1508537.3526366	100	del	1508543.0097018	1508543.5231142	1508543.5236323	120.0	2.0	1508544.107283
2216.8984375	0.0	80	4540208	119	77	260	0	0	1508546.2701399	1508546.2704374	80	1508549.4899646	1508549.4905052	40	1508552.5635911	1508552.5640887	100	imm	1508553.8739861	nan	nan	nan	nan	nan
2220.1181640625	0.0	40	4546802	119	77	260	0	0	1508546.2701399	1508546.2704374	80	1508549.4899646	1508549.4905052	40	1508552.5635911	1508552.5640887	100	imm	1508553.8739861	nan	nan	nan	nan	nan
2223.19189453125	0.0	100	4553097	119	77	260	0	0	1508546.2701399	1508546.2704374	80	1508549.4899646	1508549.4905052	40	1508552.5635911	1508552.5640887	100	imm	1508553.8739861	nan	nan	nan	nan	nan
2227.26806640625	0.0	80	4561445	120	100	365	1	0	1508556.6398336	1508556.640314	80	1508560.0003634	1508560.0008501	40	1508563.1354255	1508563.1359344	100	del	1508564.6896984	1508565.1988945	1508565.1991884	120.0	1.0	1508565.7777562
2230.62841796875	0.0	40	4568327	120	100	365	1	0	1508556.6398336	1508556.640314	80	1508560.0003634	1508560.0008501	40	1508563.1354255	1508563.1359344	100	del	1508564.6896984	1508565.1988945	1508565.1991884	120.0	1.0	1508565.7777562
2233.76318359375	0.0	100	4574747	120	100	365	1	0	1508556.6398336	1508556.640314	80	1508560.0003634	1508560.0008501	40	1508563.1354255	1508563.1359344	100	del	1508564.6896984	1508565.1988945	1508565.1991884	120.0	1.0	1508565.7777562
2235.82666015625	0.0	120	4578973	120	100	365	1	0	1508556.6398336	1508556.640314	80	1508560.0003634	1508560.0008501	40	1508563.1354255	1508563.1359344	100	del	1508564.6896984	1508565.1988945	1508565.1991884	120.0	1.0	1508565.7777562
2245.10009765625	0.0	80	4597965	121	77	510	0	1	1508574.4724107	1508574.4726696	80	1508577.5169918	1508577.5173939	40	1508580.7277231	1508580.7282388	100	imm	1508581.3693665	nan	nan	nan	nan	nan
2248.14453125	0.0	40	4604200	121	77	510	0	1	1508574.4724107	1508574.4726696	80	1508577.5169918	1508577.5173939	40	1508580.7277231	1508580.7282388	100	imm	1508581.3693665	nan	nan	nan	nan	nan
2251.35546875	0.0	100	4610776	121	77	510	0	1	1508574.4724107	1508574.4726696	80	1508577.5169918	1508577.5173939	40	1508580.7277231	1508580.7282388	100	imm	1508581.3693665	nan	nan	nan	nan	nan
2254.5166015625	0.0	80	4617250	122	63	970	0	1	1508583.8889842	1508583.8894653	80	1508587.0077842	1508587.0084027	40	1508590.021561	1508590.022071	100	imm	1508590.3541617	nan	nan	nan	nan	nan
2257.63525390625	0.0	40	4623637	122	63	970	0	1	1508583.8889842	1508583.8894653	80	1508587.0077842	1508587.0084027	40	1508590.021561	1508590.022071	100	imm	1508590.3541617	nan	nan	nan	nan	nan
2260.64892578125	0.0	100	4629809	122	63	970	0	1	1508583.8889842	1508583.8894653	80	1508587.0077842	1508587.0084027	40	1508590.021561	1508590.022071	100	imm	1508590.3541617	nan	nan	nan	nan	nan
2263.59423828125	0.0	80	4635841	123	70	365	1	0	1508592.9669993	1508592.9675039	80	1508596.0457141	1508596.0461459	40	1508599.1936051	1508599.1940932	100	imm	1508600.5943239	1508601.1053129	1508601.1057748	120.0	2.0	1508601.3473014
2266.6728515625	0.0	40	4642146	123	70	365	1	0	1508592.9669993	1508592.9675039	80	1508596.0457141	1508596.0461459	40	1508599.1936051	1508599.1940932	100	imm	1508600.5943239	1508601.1053129	1508601.1057748	120.0	2.0	1508601.3473014
2269.82080078125	0.0	100	4648593	123	70	365	1	0	1508592.9669993	1508592.9675039	80	1508596.0457141	1508596.0461459	40	1508599.1936051	1508599.1940932	100	imm	1508600.5943239	1508601.1053129	1508601.1057748	120.0	2.0	1508601.3473014
2271.732421875	0.0	120	4652508	123	70	365	1	0	1508592.9669993	1508592.9675039	80	1508596.0457141	1508596.0461459	40	1508599.1936051	1508599.1940932	100	imm	1508600.5943239	1508601.1053129	1508601.1057748	120.0	2.0	1508601.3473014
2274.07763671875	0.0	80	4657311	124	100	110	0	0	1508603.4508132	1508603.4512365	80	1508606.5277269	1508606.5281766	40	1508609.8407603	1508609.8413101	100	del	1508610.3631051	nan	nan	nan	nan	nan
2277.15478515625	0.0	40	4663613	124	100	110	0	0	1508603.4508132	1508603.4512365	80	1508606.5277269	1508606.5281766	40	1508609.8407603	1508609.8413101	100	del	1508610.3631051	nan	nan	nan	nan	nan
2280.4677734375	0.0	100	4670398	124	100	110	0	0	1508603.4508132	1508603.4512365	80	1508606.5277269	1508606.5281766	40	1508609.8407603	1508609.8413101	100	del	1508610.3631051	nan	nan	nan	nan	nan
2283.958984375	0.0	80	4677548	125	50	14	1	0	1508613.3321575	1508613.3326621	80	1508616.8095294	1508616.8099711	40	1508619.9334909	1508619.9339979	100	imm	1508621.2097008	1508621.7192194	1508621.7194878	120.0	1.0	1508623.5773664
2287.43603515625	0.0	40	4684669	125	50	14	1	0	1508613.3321575	1508613.3326621	80	1508616.8095294	1508616.8099711	40	1508619.9334909	1508619.9339979	100	imm	1508621.2097008	1508621.7192194	1508621.7194878	120.0	1.0	1508623.5773664
2290.56005859375	0.0	100	4691067	125	50	14	1	0	1508613.3321575	1508613.3326621	80	1508616.8095294	1508616.8099711	40	1508619.9334909	1508619.9339979	100	imm	1508621.2097008	1508621.7192194	1508621.7194878	120.0	1.0	1508623.5773664
2292.345703125	0.0	120	4694724	125	50	14	1	0	1508613.3321575	1508613.3326621	80	1508616.8095294	1508616.8099711	40	1508619.9334909	1508619.9339979	100	imm	1508621.2097008	1508621.7192194	1508621.7194878	120.0	1.0	1508623.5773664
2296.458984375	0.0	80	4703148	126	63	110	0	0	1508625.832364	1508625.8328749	80	1508629.027824	1508629.0282748	40	1508632.3043078	1508632.3048674	100	imm	1508640.0336303	nan	nan	nan	nan	nan
2299.654296875	0.0	40	4709692	126	63	110	0	0	1508625.832364	1508625.8328749	80	1508629.027824	1508629.0282748	40	1508632.3043078	1508632.3048674	100	imm	1508640.0336303	nan	nan	nan	nan	nan
2302.9306640625	0.0	100	4716402	126	63	110	0	0	1508625.832364	1508625.8328749	80	1508629.027824	1508629.0282748	40	1508632.3043078	1508632.3048674	100	imm	1508640.0336303	nan	nan	nan	nan	nan
2313.30908203125	0.0	80	4737657	127	90	110	0	0	1508642.6832561	1508642.6841492	80	1508645.7256846	1508645.7261625	40	1508648.9576358	1508648.9581623	100	del	1508649.9867536	nan	nan	nan	nan	nan
2316.3515625	0.0	40	4743888	127	90	110	0	0	1508642.6832561	1508642.6841492	80	1508645.7256846	1508645.7261625	40	1508648.9576358	1508648.9581623	100	del	1508649.9867536	nan	nan	nan	nan	nan
2319.58349609375	0.0	100	4750507	127	90	110	0	0	1508642.6832561	1508642.6841492	80	1508645.7256846	1508645.7261625	40	1508648.9576358	1508648.9581623	100	del	1508649.9867536	nan	nan	nan	nan	nan
2323.21826171875	0.0	80	4757951	128	83	60	1	1	1508652.5926326	1508652.5930583	80	1508655.6130658	1508655.6135156	40	1508659.1042991	1508659.1048199	100	del	1508661.3535538	1508661.86331	1508661.8636547	120.0	1.0	1508662.2577844
2326.23876953125	0.0	40	4764137	128	83	60	1	1	1508652.5926326	1508652.5930583	80	1508655.6130658	1508655.6135156	40	1508659.1042991	1508659.1048199	100	del	1508661.3535538	1508661.86331	1508661.8636547	120.0	1.0	1508662.2577844
2329.72998046875	0.0	100	4771287	128	83	60	1	1	1508652.5926326	1508652.5930583	80	1508655.6130658	1508655.6135156	40	1508659.1042991	1508659.1048199	100	del	1508661.3535538	1508661.86331	1508661.8636547	120.0	1.0	1508662.2577844
2332.48876953125	0.0	120	4776937	128	83	60	1	1	1508652.5926326	1508652.5930583	80	1508655.6130658	1508655.6135156	40	1508659.1042991	1508659.1048199	100	del	1508661.3535538	1508661.86331	1508661.8636547	120.0	1.0	1508662.2577844
2335.11474609375	0.0	80	4782315	129	87	970	0	0	1508664.4891355	1508664.4896084	80	1508667.9774698	1508667.977939	40	1508671.3727549	1508671.3732562	100	del	1508672.067097	nan	nan	nan	nan	nan
2338.60302734375	0.0	40	4789459	129	87	970	0	0	1508664.4891355	1508664.4896084	80	1508667.9774698	1508667.977939	40	1508671.3727549	1508671.3732562	100	del	1508672.067097	nan	nan	nan	nan	nan
2341.998046875	0.0	100	4796412	129	87	970	0	0	1508664.4891355	1508664.4896084	80	1508667.9774698	1508667.977939	40	1508671.3727549	1508671.3732562	100	del	1508672.067097	nan	nan	nan	nan	nan
2345.212890625	0.0	80	4802996	130	67	110	0	0	1508674.5877466	1508674.5882306	80	1508677.9354319	1508677.9358866	40	1508681.30168	1508681.3021766	100	imm	1508685.6093333	nan	nan	nan	nan	nan
2348.560546875	0.0	40	4809852	130	67	110	0	0	1508674.5877466	1508674.5882306	80	1508677.9354319	1508677.9358866	40	1508681.30168	1508681.3021766	100	imm	1508685.6093333	nan	nan	nan	nan	nan
2351.9267578125	0.0	100	4816746	130	67	110	0	0	1508674.5877466	1508674.5882306	80	1508677.9354319	1508677.9358866	40	1508681.30168	1508681.3021766	100	imm	1508685.6093333	nan	nan	nan	nan	nan
2359.0703125	0.0	80	4831376	131	97	510	0	0	1508688.4456599	1508688.4460407	80	1508691.7302403	1508691.7307681	40	1508694.8525384	1508694.8530307	100	del	1508696.3060452	nan	nan	nan	nan	nan
2362.35498046875	0.0	40	4838103	131	97	510	0	0	1508688.4456599	1508688.4460407	80	1508691.7302403	1508691.7307681	40	1508694.8525384	1508694.8530307	100	del	1508696.3060452	nan	nan	nan	nan	nan
2365.47705078125	0.0	100	4844497	131	97	510	0	0	1508688.4456599	1508688.4460407	80	1508691.7302403	1508691.7307681	40	1508694.8525384	1508694.8530307	100	del	1508696.3060452	nan	nan	nan	nan	nan
2369.83447265625	0.0	80	4853421	132	83	30	0	1	1508699.2098059	1508699.2103208	80	1508702.3328761	1508702.3333777	40	1508705.5326999	1508705.5331895	100	imm	1508711.4657359	nan	nan	nan	nan	nan
2372.95751953125	0.0	40	4859817	132	83	30	0	1	1508699.2098059	1508699.2103208	80	1508702.3328761	1508702.3333777	40	1508705.5326999	1508705.5331895	100	imm	1508711.4657359	nan	nan	nan	nan	nan
2376.1572265625	0.0	100	4866370	132	83	30	0	1	1508699.2098059	1508699.2103208	80	1508702.3328761	1508702.3333777	40	1508705.5326999	1508705.5331895	100	imm	1508711.4657359	nan	nan	nan	nan	nan
2385.048828125	0.0	80	4884580	133	73	510	0	1	1508714.4247745	1508714.425029	80	1508717.8617991	1508717.8623088	40	1508721.0761638	1508721.0767387	100	imm	1508723.0260253	nan	nan	nan	nan	nan
2388.48583984375	0.0	40	4891619	133	73	510	0	1	1508714.4247745	1508714.425029	80	1508717.8617991	1508717.8623088	40	1508721.0761638	1508721.0767387	100	imm	1508723.0260253	nan	nan	nan	nan	nan
2391.7001953125	0.0	100	4898202	133	73	510	0	1	1508714.4247745	1508714.425029	80	1508717.8617991	1508717.8623088	40	1508721.0761638	1508721.0767387	100	imm	1508723.0260253	nan	nan	nan	nan	nan
2396.32763671875	0.0	80	4907679	134	50	30	0	1	1508725.7034207	1508725.7038747	80	1508729.0152951	1508729.0157326	40	1508732.4838941	1508732.4844101	100	imm	1508734.2011341	nan	nan	nan	nan	nan
