onset	duration	value	sample	trial_idx	val	del	is_cued	rev_opts	del_pres_displaytime	del_pres_triggertime	del_pres_triggercode	val_pres_displaytime	val_pres_triggertime	val_pres_triggercode	choice_displaytime	choice_triggertime	choice_triggercode	choice	choice_time	viv	viv_time	viv_displaytime	viv_triggertime	viv_triggercode
28.01708984375	0.0	80	57379	1	100	110	0	0	895762.8766393	895762.8769335	80	895766.2309888	895766.2315416	40	895769.558555	895769.5589434	100	del	895773.1262444	nan	nan	nan	nan	nan
31.37158203125	0.0	40	64249	1	100	110	0	0	895762.8766393	895762.8769335	80	895766.2309888	895766.2315416	40	895769.558555	895769.5589434	100	del	895773.1262444	nan	nan	nan	nan	nan
34.69873046875	0.0	100	71063	1	100	110	0	0	895762.8766393	895762.8769335	80	895766.2309888	895766.2315416	40	895769.558555	895769.5589434	100	del	895773.1262444	nan	nan	nan	nan	nan
40.841796875	0.0	80	83644	2	87	110	0	0	895775.7012911	895775.7020102	80	895779.1102447	895779.1112334	40	895782.4346188	895782.4357902	100	del	895783.5580981	nan	nan	nan	nan	nan
44.25048828125	0.0	40	90625	2	87	110	0	0	895775.7012911	895775.7020102	80	895779.1102447	895779.1112334	40	895782.4346188	895782.4357902	100	del	895783.5580981	nan	nan	nan	nan	nan
47.57470703125	0.0	100	97433	2	87	110	0	0	895775.7012911	895775.7020102	80	895779.1102447	895779.1112334	40	895782.4346188	895782.4357902	100	del	895783.5580981	nan	nan	nan	nan	nan
51.251953125	0.0	80	104964	3	100	1190	0	0	895786.1118224	895786.1122662	80	895789.1539243	895789.1544076	40	895792.2348214	895792.2352603	100	del	895793.2143577	nan	nan	nan	nan	nan
54.2939453125	0.0	40	111194	3	100	1190	0	0	895786.1118224	895786.1122662	80	895789.1539243	895789.1544076	40	895792.2348214	895792.2352603	100	del	895793.2143577	nan	nan	nan	nan	nan
57.37451171875	0.0	100	117503	3	100	1190	0	0	895786.1118224	895786.1122662	80	895789.1539243	895789.1544076	40	895792.2348214	895792.2352603	100	del	895793.2143577	nan	nan	nan	nan	nan
61.26708984375	0.0	80	125475	4	83	730	1	1	895796.1274143	895796.1279073	80	895799.1811097	895799.1815056	40	895802.3138491	895802.3143235	100	del	895804.2062202	4.0	895810.4552724	895804.7223765	895804.7228597	120.0
64.32080078125	0.0	40	131729	4	83	730	1	1	895796.1274143	895796.1279073	80	895799.1811097	895799.1815056	40	895802.3138491	895802.3143235	100	del	895804.2062202	4.0	895810.4552724	895804.7223765	895804.7228597	120.0
67.45361328125	0.0	100	138145	4	83	730	1	1	895796.1274143	895796.1279073	80	895799.1811097	895799.1815056	40	895802.3138491	895802.3143235	100	del	895804.2062202	4.0	895810.4552724	895804.7223765	895804.7228597	120.0
69.86181640625	0.0	120	143077	4	83	730	1	1	895796.1274143	895796.1279073	80	895799.1811097	895799.1815056	40	895802.3138491	895802.3143235	100	del	895804.2062202	4.0	895810.4552724	895804.7223765	895804.7228597	120.0
77.728515625	0.0	80	159188	5	87	730	1	0	895812.5894075	895812.589731	80	895815.649242	895815.6497088	40	895819.0932321	895819.0937255	100	del	895821.0055251	4.0	895824.3661152	895821.5197472	895821.5202792	120.0
80.78857421875	0.0	40	165455	5	87	730	1	0	895812.5894075	895812.589731	80	895815.649242	895815.6497088	40	895819.0932321	895819.0937255	100	del	895821.0055251	4.0	895824.3661152	895821.5197472	895821.5202792	120.0
84.232421875	0.0	100	172508	5	87	730	1	0	895812.5894075	895812.589731	80	895815.649242	895815.6497088	40	895819.0932321	895819.0937255	100	del	895821.0055251	4.0	895824.3661152	895821.5197472	895821.5202792	120.0
86.65869140625	0.0	120	177477	5	87	730	1	0	895812.5894075	895812.589731	80	895815.649242	895815.6497088	40	895819.0932321	895819.0937255	100	del	895821.0055251	4.0	895824.3661152	895821.5197472	895821.5202792	120.0
91.86669921875	0.0	80	188143	6	97	20	0	0	895826.727694	895826.7280353	80	895830.1020199	895830.1025398	40	895833.4406939	895833.4411752	100	del	895835.0137267	nan	nan	nan	nan	nan
95.24072265625	0.0	40	195053	6	97	20	0	0	895826.727694	895826.7280353	80	895830.1020199	895830.1025398	40	895833.4406939	895833.4411752	100	del	895835.0137267	nan	nan	nan	nan	nan
98.57958984375	0.0	100	201891	6	97	20	0	0	895826.727694	895826.7280353	80	895830.1020199	895830.1025398	40	895833.4406939	895833.4411752	100	del	895835.0137267	nan	nan	nan	nan	nan
102.9248046875	0.0	80	210790	7	60	730	1	0	895837.7860996	895837.7866441	80	895840.9566587	895840.9570634	40	895844.3016171	895844.302085	100	del	895848.4223795	4.0	895852.1183237	895848.9361627	895848.9366561	120.0
106.09521484375	0.0	40	217283	7	60	730	1	0	895837.7860996	895837.7866441	80	895840.9566587	895840.9570634	40	895844.3016171	895844.302085	100	del	895848.4223795	4.0	895852.1183237	895848.9361627	895848.9366561	120.0
109.4404296875	0.0	100	224134	7	60	730	1	0	895837.7860996	895837.7866441	80	895840.9566587	895840.9570634	40	895844.3016171	895844.302085	100	del	895848.4223795	4.0	895852.1183237	895848.9361627	895848.9366561	120.0
114.07470703125	0.0	120	233625	7	60	730	1	0	895837.7860996	895837.7866441	80	895840.9566587	895840.9570634	40	895844.3016171	895844.302085	100	del	895848.4223795	4.0	895852.1183237	895848.9361627	895848.9366561	120.0
119.3271484375	0.0	80	244382	8	97	1190	0	0	895854.1890843	895854.1894916	80	895857.2691193	895857.2693822	40	895860.2917305	895860.2921951	100	del	895862.0777477	nan	nan	nan	nan	nan
122.4072265625	0.0	40	250690	8	97	1190	0	0	895854.1890843	895854.1894916	80	895857.2691193	895857.2693822	40	895860.2917305	895860.2921951	100	del	895862.0777477	nan	nan	nan	nan	nan
125.4296875	0.0	100	256880	8	97	1190	0	0	895854.1890843	895854.1894916	80	895857.2691193	895857.2693822	40	895860.2917305	895860.2921951	100	del	895862.0777477	nan	nan	nan	nan	nan
130.21484375	0.0	80	266680	9	83	4	1	0	895865.076637	895865.0770791	80	895868.5708357	895868.5712822	40	895871.6470744	895871.6475427	100	del	895873.6303292	1.0	895877.7664138	895874.1406421	895874.1410135	120.0
133.708984375	0.0	40	273836	9	83	4	1	0	895865.076637	895865.0770791	80	895868.5708357	895868.5712822	40	895871.6470744	895871.6475427	100	del	895873.6303292	1.0	895877.7664138	895874.1406421	895874.1410135	120.0
136.78515625	0.0	100	280136	9	83	4	1	0	895865.076637	895865.0770791	80	895868.5708357	895868.5712822	40	895871.6470744	895871.6475427	100	del	895873.6303292	1.0	895877.7664138	895874.1406421	895874.1410135	120.0
139.2783203125	0.0	120	285242	9	83	4	1	0	895865.076637	895865.0770791	80	895868.5708357	895868.5712822	40	895871.6470744	895871.6475427	100	del	895873.6303292	1.0	895877.7664138	895874.1406421	895874.1410135	120.0
145.15478515625	0.0	80	297277	10	60	110	0	0	895880.0170552	895880.0174563	80	895883.3528498	895883.3533494	40	895886.510962	895886.5114338	100	del	895888.2069279	nan	nan	nan	nan	nan
148.490234375	0.0	40	304108	10	60	110	0	0	895880.0170552	895880.0174563	80	895883.3528498	895883.3533494	40	895886.510962	895886.5114338	100	del	895888.2069279	nan	nan	nan	nan	nan
151.6484375	0.0	100	310576	10	60	110	0	0	895880.0170552	895880.0174563	80	895883.3528498	895883.3533494	40	895886.510962	895886.5114338	100	del	895888.2069279	nan	nan	nan	nan	nan
156.23828125	0.0	80	319976	11	100	730	1	1	895891.1007016	895891.1011594	80	895894.3873183	895894.3877014	40	895897.6152766	895897.6157377	100	del	895899.0380063	4.0	895908.3980532	895899.5488659	895899.5494006	120.0
159.5244140625	0.0	40	326706	11	100	730	1	1	895891.1007016	895891.1011594	80	895894.3873183	895894.3877014	40	895897.6152766	895897.6157377	100	del	895899.0380063	4.0	895908.3980532	895899.5488659	895899.5494006	120.0
162.75244140625	0.0	100	333317	11	100	730	1	1	895891.1007016	895891.1011594	80	895894.3873183	895894.3877014	40	895897.6152766	895897.6157377	100	del	895899.0380063	4.0	895908.3980532	895899.5488659	895899.5494006	120.0
164.68603515625	0.0	120	337277	11	100	730	1	1	895891.1007016	895891.1011594	80	895894.3873183	895894.3877014	40	895897.6152766	895897.6157377	100	del	895899.0380063	4.0	895908.3980532	895899.5488659	895899.5494006	120.0
175.6826171875	0.0	80	359798	12	63	180	1	1	895910.5456509	895910.5460764	80	895913.9300393	895913.9305373	40	895917.3914284	895917.3918293	100	del	895919.0615149	3.0	895927.2057528	895919.5714743	895919.5718215	120.0
179.06689453125	0.0	40	366729	12	63	180	1	1	895910.5456509	895910.5460764	80	895913.9300393	895913.9305373	40	895917.3914284	895917.3918293	100	del	895919.0615149	3.0	895927.2057528	895919.5714743	895919.5718215	120.0
182.5283203125	0.0	100	373818	12	63	180	1	1	895910.5456509	895910.5460764	80	895913.9300393	895913.9305373	40	895917.3914284	895917.3918293	100	del	895919.0615149	3.0	895927.2057528	895919.5714743	895919.5718215	120.0
184.7080078125	0.0	120	378282	12	63	180	1	1	895910.5456509	895910.5460764	80	895913.9300393	895913.9305373	40	895917.3914284	895917.3918293	100	del	895919.0615149	3.0	895927.2057528	895919.5714743	895919.5718215	120.0
194.72216796875	0.0	80	398791	13	80	180	1	1	895929.5859251	895929.5864324	80	895932.7980601	895932.7985613	40	895936.2769832	895936.277324	100	del	895937.6773303	3.0	895939.2631205	895938.1903741	895938.1908101	120.0
197.9345703125	0.0	40	405370	13	80	180	1	1	895929.5859251	895929.5864324	80	895932.7980601	895932.7985613	40	895936.2769832	895936.277324	100	del	895937.6773303	3.0	895939.2631205	895938.1903741	895938.1908101	120.0
201.4130859375	0.0	100	412494	13	80	180	1	1	895929.5859251	895929.5864324	80	895932.7980601	895932.7985613	40	895936.2769832	895936.277324	100	del	895937.6773303	3.0	895939.2631205	895938.1903741	895938.1908101	120.0
203.32666015625	0.0	120	416413	13	80	180	1	1	895929.5859251	895929.5864324	80	895932.7980601	895932.7985613	40	895936.2769832	895936.277324	100	del	895937.6773303	3.0	895939.2631205	895938.1903741	895938.1908101	120.0
206.54150390625	0.0	80	422997	14	50	20	0	0	895941.4053855	895941.4058314	80	895944.6782942	895944.6785551	40	895948.1647958	895948.1651413	100	del	895949.4214026	nan	nan	nan	nan	nan
209.814453125	0.0	40	429700	14	50	20	0	0	895941.4053855	895941.4058314	80	895944.6782942	895944.6785551	40	895948.1647958	895948.1651413	100	del	895949.4214026	nan	nan	nan	nan	nan
213.30078125	0.0	100	436840	14	50	20	0	0	895941.4053855	895941.4058314	80	895944.6782942	895944.6785551	40	895948.1647958	895948.1651413	100	del	895949.4214026	nan	nan	nan	nan	nan
217.20947265625	0.0	80	444845	15	73	63	1	0	895952.0736543	895952.0741557	80	895955.206258	895955.2067177	40	895958.6829393	895958.6833549	100	del	895960.9020322	3.0	895964.4300805	895961.4137808	895961.4142692	120.0
220.341796875	0.0	40	451260	15	73	63	1	0	895952.0736543	895952.0741557	80	895955.206258	895955.2067177	40	895958.6829393	895958.6833549	100	del	895960.9020322	3.0	895964.4300805	895961.4137808	895961.4142692	120.0
223.81884765625	0.0	100	458381	15	73	63	1	0	895952.0736543	895952.0741557	80	895955.206258	895955.2067177	40	895958.6829393	895958.6833549	100	del	895960.9020322	3.0	895964.4300805	895961.4137808	895961.4142692	120.0
226.54931640625	0.0	120	463973	15	73	63	1	0	895952.0736543	895952.0741557	80	895955.206258	895955.2067177	40	895958.6829393	895958.6833549	100	del	895960.9020322	3.0	895964.4300805	895961.4137808	895961.4142692	120.0
231.6123046875	0.0	80	474342	16	63	20	0	1	895966.4766244	895966.4771431	80	895969.6349943	895969.6354839	40	895972.9439923	895972.9444475	100	del	895973.7979366	nan	nan	nan	nan	nan
234.7705078125	0.0	40	480810	16	63	20	0	1	895966.4766244	895966.4771431	80	895969.6349943	895969.6354839	40	895972.9439923	895972.9444475	100	del	895973.7979366	nan	nan	nan	nan	nan
238.0791015625	0.0	100	487586	16	63	20	0	1	895966.4766244	895966.4771431	80	895969.6349943	895969.6354839	40	895972.9439923	895972.9444475	100	del	895973.7979366	nan	nan	nan	nan	nan
241.55078125	0.0	80	494696	17	53	230	0	1	895976.4156385	895976.4162032	80	895979.7394608	895979.7397506	40	895983.1519225	895983.1523878	100	del	895984.7177585	nan	nan	nan	nan	nan
244.87451171875	0.0	40	501503	17	53	230	0	1	895976.4156385	895976.4162032	80	895979.7394608	895979.7397506	40	895983.1519225	895983.1523878	100	del	895984.7177585	nan	nan	nan	nan	nan
248.287109375	0.0	100	508492	17	53	230	0	1	895976.4156385	895976.4162032	80	895979.7394608	895979.7397506	40	895983.1519225	895983.1523878	100	del	895984.7177585	nan	nan	nan	nan	nan
252.62060546875	0.0	80	517367	18	97	270	1	0	895987.48581	895987.4863057	80	895990.8189051	895990.8193791	40	895994.2304715	895994.2310203	100	del	895995.1901211	4.0	895996.7974296	895995.702562	895995.7030227	120.0
255.95361328125	0.0	40	524193	18	97	270	1	0	895987.48581	895987.4863057	80	895990.8189051	895990.8193791	40	895994.2304715	895994.2310203	100	del	895995.1901211	4.0	895996.7974296	895995.702562	895995.7030227	120.0
259.365234375	0.0	100	531180	18	97	270	1	0	895987.48581	895987.4863057	80	895990.8189051	895990.8193791	40	895994.2304715	895994.2310203	100	del	895995.1901211	4.0	895996.7974296	895995.702562	895995.7030227	120.0
260.83740234375	0.0	120	534195	18	97	270	1	0	895987.48581	895987.4863057	80	895990.8189051	895990.8193791	40	895994.2304715	895994.2310203	100	del	895995.1901211	4.0	895996.7974296	895995.702562	895995.7030227	120.0
264.0615234375	0.0	80	540798	19	93	180	1	0	895998.9268216	895998.927182	80	896002.2347377	896002.23517	40	896005.3044495	896005.3049495	100	del	896006.0934762	2.0	896007.4059302	896006.6037969	896006.604123	120.0
267.369140625	0.0	40	547572	19	93	180	1	0	895998.9268216	895998.927182	80	896002.2347377	896002.23517	40	896005.3044495	896005.3049495	100	del	896006.0934762	2.0	896007.4059302	896006.6037969	896006.604123	120.0
270.43896484375	0.0	100	553859	19	93	180	1	0	895998.9268216	895998.927182	80	896002.2347377	896002.23517	40	896005.3044495	896005.3049495	100	del	896006.0934762	2.0	896007.4059302	896006.6037969	896006.604123	120.0
271.73828125	0.0	120	556520	19	93	180	1	0	895998.9268216	895998.927182	80	896002.2347377	896002.23517	40	896005.3044495	896005.3049495	100	del	896006.0934762	2.0	896007.4059302	896006.6037969	896006.604123	120.0
274.814453125	0.0	80	562820	20	77	230	0	1	896009.680014	896009.6805509	80	896013.1063484	896013.1068374	40	896016.5804294	896016.5809415	100	del	896018.0937586	nan	nan	nan	nan	nan
278.24072265625	0.0	40	569837	20	77	230	0	1	896009.680014	896009.6805509	80	896013.1063484	896013.1068374	40	896016.5804294	896016.5809415	100	del	896018.0937586	nan	nan	nan	nan	nan
281.71484375	0.0	100	576952	20	77	230	0	1	896009.680014	896009.6805509	80	896013.1063484	896013.1068374	40	896016.5804294	896016.5809415	100	del	896018.0937586	nan	nan	nan	nan	nan
299.267578125	0.0	80	612900	21	97	110	0	1	896034.1336827	896034.1341129	80	896037.278824	896037.2791153	40	896040.6182709	896040.6187162	100	del	896041.9338933	nan	nan	nan	nan	nan
302.41259765625	0.0	40	619341	21	97	110	0	1	896034.1336827	896034.1341129	80	896037.278824	896037.2791153	40	896040.6182709	896040.6187162	100	del	896041.9338933	nan	nan	nan	nan	nan
305.751953125	0.0	100	626180	21	97	110	0	1	896034.1336827	896034.1341129	80	896037.278824	896037.2791153	40	896040.6182709	896040.6187162	100	del	896041.9338933	nan	nan	nan	nan	nan
310.04150390625	0.0	80	634965	22	50	63	1	0	896044.9079346	896044.9085794	80	896048.1704491	896048.1709179	40	896051.6704416	896051.6709294	100	del	896054.1572829	3.0	896059.125769	896054.6689808	896054.669361	120.0
313.3037109375	0.0	40	641646	22	50	63	1	0	896044.9079346	896044.9085794	80	896048.1704491	896048.1709179	40	896051.6704416	896051.6709294	100	del	896054.1572829	3.0	896059.125769	896054.6689808	896054.669361	120.0
316.8037109375	0.0	100	648814	22	50	63	1	0	896044.9079346	896044.9085794	80	896048.1704491	896048.1709179	40	896051.6704416	896051.6709294	100	del	896054.1572829	3.0	896059.125769	896054.6689808	896054.669361	120.0
319.80224609375	0.0	120	654955	22	50	63	1	0	896044.9079346	896044.9085794	80	896048.1704491	896048.1709179	40	896051.6704416	896051.6709294	100	del	896054.1572829	3.0	896059.125769	896054.6689808	896054.669361	120.0
326.37451171875	0.0	80	668415	23	77	20	0	0	896061.2413298	896061.241889	80	896064.3041023	896064.3045959	40	896067.4653395	896067.4657831	100	del	896068.5410977	nan	nan	nan	nan	nan
329.43701171875	0.0	40	674687	23	77	20	0	0	896061.2413298	896061.241889	80	896064.3041023	896064.3045959	40	896067.4653395	896067.4657831	100	del	896068.5410977	nan	nan	nan	nan	nan
332.59814453125	0.0	100	681161	23	77	20	0	0	896061.2413298	896061.241889	80	896064.3041023	896064.3045959	40	896067.4653395	896067.4657831	100	del	896068.5410977	nan	nan	nan	nan	nan
336.3876953125	0.0	80	688922	24	57	20	0	1	896071.2546885	896071.2550594	80	896074.4729369	896074.4734335	40	896077.6425223	896077.6434919	100	del	896078.8533352	nan	nan	nan	nan	nan
339.60595703125	0.0	40	695513	24	57	20	0	1	896071.2546885	896071.2550594	80	896074.4729369	896074.4734335	40	896077.6425223	896077.6434919	100	del	896078.8533352	nan	nan	nan	nan	nan
342.775390625	0.0	100	702004	24	57	20	0	1	896071.2546885	896071.2550594	80	896074.4729369	896074.4734335	40	896077.6425223	896077.6434919	100	del	896078.8533352	nan	nan	nan	nan	nan
346.849609375	0.0	80	710348	25	67	1190	0	1	896081.7171271	896081.7175599	80	896084.7719102	896084.772416	40	896087.9859796	896087.9864267	100	del	896091.8770819	nan	nan	nan	nan	nan
349.904296875	0.0	40	716604	25	67	1190	0	1	896081.7171271	896081.7175599	80	896084.7719102	896084.772416	40	896087.9859796	896087.9864267	100	del	896091.8770819	nan	nan	nan	nan	nan
353.11865234375	0.0	100	723187	25	67	1190	0	1	896081.7171271	896081.7175599	80	896084.7719102	896084.772416	40	896087.9859796	896087.9864267	100	del	896091.8770819	nan	nan	nan	nan	nan
359.6767578125	0.0	80	736618	26	90	270	1	0	896094.5442622	896094.5447416	80	896097.7047253	896097.7051691	40	896100.7708668	896100.7713586	100	del	896101.9653703	2.0	896105.1895112	896102.476522	896102.4769812	120.0
362.8369140625	0.0	40	743090	26	90	270	1	0	896094.5442622	896094.5447416	80	896097.7047253	896097.7051691	40	896100.7708668	896100.7713586	100	del	896101.9653703	2.0	896105.1895112	896102.476522	896102.4769812	120.0
365.90283203125	0.0	100	749369	26	90	270	1	0	896094.5442622	896094.5447416	80	896097.7047253	896097.7051691	40	896100.7708668	896100.7713586	100	del	896101.9653703	2.0	896105.1895112	896102.476522	896102.4769812	120.0
367.6083984375	0.0	120	752862	26	90	270	1	0	896094.5442622	896094.5447416	80	896097.7047253	896097.7051691	40	896100.7708668	896100.7713586	100	del	896101.9653703	2.0	896105.1895112	896102.476522	896102.4769812	120.0
372.630859375	0.0	80	763148	27	87	450	0	1	896107.4991101	896107.4994677	80	896110.6481613	896110.6485596	40	896113.7410308	896113.7415265	100	del	896114.4302246	nan	nan	nan	nan	nan
375.7802734375	0.0	40	769598	27	87	450	0	1	896107.4991101	896107.4994677	80	896110.6481613	896110.6485596	40	896113.7410308	896113.7415265	100	del	896114.4302246	nan	nan	nan	nan	nan
378.873046875	0.0	100	775932	27	87	450	0	1	896107.4991101	896107.4994677	80	896110.6481613	896110.6485596	40	896113.7410308	896113.7415265	100	del	896114.4302246	nan	nan	nan	nan	nan
382.07958984375	0.0	80	782499	28	70	1190	0	0	896116.9477922	896116.9483275	80	896120.0980372	896120.0985751	40	896123.3871403	896123.3875991	100	del	896124.9507965	nan	nan	nan	nan	nan
385.22998046875	0.0	40	788951	28	70	1190	0	0	896116.9477922	896116.9483275	80	896120.0980372	896120.0985751	40	896123.3871403	896123.3875991	100	del	896124.9507965	nan	nan	nan	nan	nan
388.5185546875	0.0	100	795686	28	70	1190	0	0	896116.9477922	896116.9483275	80	896120.0980372	896120.0985751	40	896123.3871403	896123.3875991	100	del	896124.9507965	nan	nan	nan	nan	nan
393.0341796875	0.0	80	804934	29	93	270	1	1	896127.9025059	896127.9029422	80	896130.9313621	896130.9319307	40	896134.396739	896134.3972209	100	del	896135.8453018	2.0	896138.6218828	896136.3548188	896136.3551406	120.0
396.06298828125	0.0	40	811137	29	93	270	1	1	896127.9025059	896127.9029422	80	896130.9313621	896130.9319307	40	896134.396739	896134.3972209	100	del	896135.8453018	2.0	896138.6218828	896136.3548188	896136.3551406	120.0
399.5283203125	0.0	100	818234	29	93	270	1	1	896127.9025059	896127.9029422	80	896130.9313621	896130.9319307	40	896134.396739	896134.3972209	100	del	896135.8453018	2.0	896138.6218828	896136.3548188	896136.3551406	120.0
401.48583984375	0.0	120	822243	29	93	270	1	1	896127.9025059	896127.9029422	80	896130.9313621	896130.9319307	40	896134.396739	896134.3972209	100	del	896135.8453018	2.0	896138.6218828	896136.3548188	896136.3551406	120.0
405.8330078125	0.0	80	831146	30	50	270	1	0	896140.7017896	896140.7022533	80	896144.1263013	896144.1268733	40	896147.5398215	896147.5403149	100	del	896148.6625313	3.0	896150.597489	896149.1714794	896149.1718506	120.0
409.25732421875	0.0	40	838159	30	50	270	1	0	896140.7017896	896140.7022533	80	896144.1263013	896144.1268733	40	896147.5398215	896147.5403149	100	del	896148.6625313	3.0	896150.597489	896149.1714794	896149.1718506	120.0
412.6708984375	0.0	100	845150	30	50	270	1	0	896140.7017896	896140.7022533	80	896144.1263013	896144.1268733	40	896147.5398215	896147.5403149	100	del	896148.6625313	3.0	896150.597489	896149.1714794	896149.1718506	120.0
414.30224609375	0.0	120	848491	30	50	270	1	0	896140.7017896	896140.7022533	80	896144.1263013	896144.1268733	40	896147.5398215	896147.5403149	100	del	896148.6625313	3.0	896150.597489	896149.1714794	896149.1718506	120.0
418.20361328125	0.0	80	856481	31	80	110	0	1	896153.0725643	896153.073097	80	896156.1495825	896156.1500309	40	896159.4153134	896159.4158054	100	del	896161.9653468	nan	nan	nan	nan	nan
421.2802734375	0.0	40	862782	31	80	110	0	1	896153.0725643	896153.073097	80	896156.1495825	896156.1500309	40	896159.4153134	896159.4158054	100	del	896161.9653468	nan	nan	nan	nan	nan
424.5458984375	0.0	100	869470	31	80	110	0	1	896153.0725643	896153.073097	80	896156.1495825	896156.1500309	40	896159.4153134	896159.4158054	100	del	896161.9653468	nan	nan	nan	nan	nan
429.81494140625	0.0	80	880261	32	50	230	0	0	896164.6846273	896164.6849437	80	896167.779627	896167.7800483	40	896171.0808887	896171.0814023	100	del	896172.2530849	nan	nan	nan	nan	nan
432.91015625	0.0	40	886600	32	50	230	0	0	896164.6846273	896164.6849437	80	896167.779627	896167.7800483	40	896171.0808887	896171.0814023	100	del	896172.2530849	nan	nan	nan	nan	nan
436.21142578125	0.0	100	893361	32	50	230	0	0	896164.6846273	896164.6849437	80	896167.779627	896167.7800483	40	896171.0808887	896171.0814023	100	del	896172.2530849	nan	nan	nan	nan	nan
440.2041015625	0.0	80	901538	33	90	450	0	0	896175.0737307	896175.0742259	80	896178.1897422	896178.1902276	40	896181.4640422	896181.4645006	100	del	896183.6613776	nan	nan	nan	nan	nan
443.31982421875	0.0	40	907919	33	90	450	0	0	896175.0737307	896175.0742259	80	896178.1897422	896178.1902276	40	896181.4640422	896181.4645006	100	del	896183.6613776	nan	nan	nan	nan	nan
446.59423828125	0.0	100	914625	33	90	450	0	0	896175.0737307	896175.0742259	80	896178.1897422	896178.1902276	40	896181.4640422	896181.4645006	100	del	896183.6613776	nan	nan	nan	nan	nan
451.8037109375	0.0	80	925294	34	77	110	0	1	896186.6736952	896186.6741545	80	896189.927051	896189.9274503	40	896193.2874804	896193.2880312	100	del	896195.2137587	nan	nan	nan	nan	nan
455.05712890625	0.0	40	931957	34	77	110	0	1	896186.6736952	896186.6741545	80	896189.927051	896189.9274503	40	896193.2874804	896193.2880312	100	del	896195.2137587	nan	nan	nan	nan	nan
458.41748046875	0.0	100	938839	34	77	110	0	1	896186.6736952	896186.6741545	80	896189.927051	896189.9274503	40	896193.2874804	896193.2880312	100	del	896195.2137587	nan	nan	nan	nan	nan
463.06640625	0.0	80	948360	35	93	230	0	0	896197.9365507	896197.9370397	80	896200.9612431	896200.9617009	40	896204.1207572	896204.1212095	100	del	896205.1171047	nan	nan	nan	nan	nan
466.0908203125	0.0	40	954554	35	93	230	0	0	896197.9365507	896197.9370397	80	896200.9612431	896200.9617009	40	896204.1207572	896204.1212095	100	del	896205.1171047	nan	nan	nan	nan	nan
469.25048828125	0.0	100	961025	35	93	230	0	0	896197.9365507	896197.9370397	80	896200.9612431	896200.9617009	40	896204.1207572	896204.1212095	100	del	896205.1171047	nan	nan	nan	nan	nan
473.16455078125	0.0	80	969041	36	70	180	1	0	896208.0349046	896208.0353791	80	896211.2161135	896211.2165228	40	896214.2713065	896214.2719051	100	del	896215.1247936	3.0	896217.613573	896215.6357905	896215.6361126	120.0
476.345703125	0.0	40	975556	36	70	180	1	0	896208.0349046	896208.0353791	80	896211.2161135	896211.2165228	40	896214.2713065	896214.2719051	100	del	896215.1247936	3.0	896217.613573	896215.6357905	896215.6361126	120.0
479.40087890625	0.0	100	981813	36	70	180	1	0	896208.0349046	896208.0353791	80	896211.2161135	896211.2165228	40	896214.2713065	896214.2719051	100	del	896215.1247936	3.0	896217.613573	896215.6357905	896215.6361126	120.0
480.76513671875	0.0	120	984607	36	70	180	1	0	896208.0349046	896208.0353791	80	896211.2161135	896211.2165228	40	896214.2713065	896214.2719051	100	del	896215.1247936	3.0	896217.613573	896215.6357905	896215.6361126	120.0
485.009765625	0.0	80	993300	37	63	63	1	1	896219.8804981	896219.8807973	80	896223.0722385	896223.0727294	40	896226.4551862	896226.4556195	100	del	896228.3976143	3.0	896230.4209102	896228.908592	896228.9089122	120.0
488.201171875	0.0	40	999836	37	63	63	1	1	896219.8804981	896219.8807973	80	896223.0722385	896223.0727294	40	896226.4551862	896226.4556195	100	del	896228.3976143	3.0	896230.4209102	896228.908592	896228.9089122	120.0
491.58447265625	0.0	100	1006765	37	63	63	1	1	896219.8804981	896219.8807973	80	896223.0722385	896223.0727294	40	896226.4551862	896226.4556195	100	del	896228.3976143	3.0	896230.4209102	896228.908592	896228.9089122	120.0
494.03759765625	0.0	120	1011789	37	63	63	1	1	896219.8804981	896219.8807973	80	896223.0722385	896223.0727294	40	896226.4551862	896226.4556195	100	del	896228.3976143	3.0	896230.4209102	896228.908592	896228.9089122	120.0
497.828125	0.0	80	1019552	38	57	270	1	0	896232.699063	896232.6995175	80	896236.1083425	896236.1087488	40	896239.5303069	896239.5308398	100	del	896241.9733985	2.0	896243.1731801	896242.4868835	896242.4873139	120.0
501.2373046875	0.0	40	1026534	38	57	270	1	0	896232.699063	896232.6995175	80	896236.1083425	896236.1087488	40	896239.5303069	896239.5308398	100	del	896241.9733985	2.0	896243.1731801	896242.4868835	896242.4873139	120.0
504.6591796875	0.0	100	1033542	38	57	270	1	0	896232.699063	896232.6995175	80	896236.1083425	896236.1087488	40	896239.5303069	896239.5308398	100	del	896241.9733985	2.0	896243.1731801	896242.4868835	896242.4873139	120.0
507.61572265625	0.0	120	1039597	38	57	270	1	0	896232.699063	896232.6995175	80	896236.1083425	896236.1087488	40	896239.5303069	896239.5308398	100	del	896241.9733985	2.0	896243.1731801	896242.4868835	896242.4873139	120.0
510.40966796875	0.0	80	1045319	39	60	20	0	1	896245.2811935	896245.2816806	80	896248.3516223	896248.3521263	40	896251.775166	896251.7756949	100	del	896253.4535406	nan	nan	nan	nan	nan
513.47998046875	0.0	40	1051607	39	60	20	0	1	896245.2811935	896245.2816806	80	896248.3516223	896248.3521263	40	896251.775166	896251.7756949	100	del	896253.4535406	nan	nan	nan	nan	nan
516.90380859375	0.0	100	1058619	39	60	20	0	1	896245.2811935	896245.2816806	80	896248.3516223	896248.3521263	40	896251.775166	896251.7756949	100	del	896253.4535406	nan	nan	nan	nan	nan
521.42041015625	0.0	80	1067869	40	57	4	1	1	896256.2919924	896256.2927187	80	896259.307844	896259.3083285	40	896262.7652201	896262.7655638	100	del	896263.6125921	1.0	896264.7424528	896264.1233949	896264.1237363	120.0
524.43603515625	0.0	40	1074045	40	57	4	1	1	896256.2919924	896256.2927187	80	896259.307844	896259.3083285	40	896262.7652201	896262.7655638	100	del	896263.6125921	1.0	896264.7424528	896264.1233949	896264.1237363	120.0
527.8935546875	0.0	100	1081126	40	57	4	1	1	896256.2919924	896256.2927187	80	896259.307844	896259.3083285	40	896262.7652201	896262.7655638	100	del	896263.6125921	1.0	896264.7424528	896264.1233949	896264.1237363	120.0
529.25146484375	0.0	120	1083907	40	57	4	1	1	896256.2919924	896256.2927187	80	896259.307844	896259.3083285	40	896262.7652201	896262.7655638	100	del	896263.6125921	1.0	896264.7424528	896264.1233949	896264.1237363	120.0
568.8134765625	0.0	80	1164930	41	90	4	1	0	896303.6863132	896303.6867839	80	896306.9658597	896306.966291	40	896310.2826182	896310.2831347	100	del	896314.1733938	1.0	896316.0545266	896314.687301	896314.6878176	120.0
572.0927734375	0.0	40	1171646	41	90	4	1	0	896303.6863132	896303.6867839	80	896306.9658597	896306.966291	40	896310.2826182	896310.2831347	100	del	896314.1733938	1.0	896316.0545266	896314.687301	896314.6878176	120.0
575.40966796875	0.0	100	1178439	41	90	4	1	0	896303.6863132	896303.6867839	80	896306.9658597	896306.966291	40	896310.2826182	896310.2831347	100	del	896314.1733938	1.0	896316.0545266	896314.687301	896314.6878176	120.0
579.81396484375	0.0	120	1187459	41	90	4	1	0	896303.6863132	896303.6867839	80	896306.9658597	896306.966291	40	896310.2826182	896310.2831347	100	del	896314.1733938	1.0	896316.0545266	896314.687301	896314.6878176	120.0
583.57568359375	0.0	80	1195163	42	93	730	1	0	896318.4491684	896318.4496035	80	896321.8842823	896321.8846956	40	896325.088951	896325.0894654	100	del	896327.0612128	4.0	896328.2694615	896327.5730631	896327.5735074	120.0
587.0107421875	0.0	40	1202198	42	93	730	1	0	896318.4491684	896318.4496035	80	896321.8842823	896321.8846956	40	896325.088951	896325.0894654	100	del	896327.0612128	4.0	896328.2694615	896327.5730631	896327.5735074	120.0
590.21533203125	0.0	100	1208761	42	93	730	1	0	896318.4491684	896318.4496035	80	896321.8842823	896321.8846956	40	896325.088951	896325.0894654	100	del	896327.0612128	4.0	896328.2694615	896327.5730631	896327.5735074	120.0
592.69970703125	0.0	120	1213849	42	93	730	1	0	896318.4491684	896318.4496035	80	896321.8842823	896321.8846956	40	896325.088951	896325.0894654	100	del	896327.0612128	4.0	896328.2694615	896327.5730631	896327.5735074	120.0
595.45263671875	0.0	80	1219487	43	83	450	0	1	896330.3260806	896330.3264566	80	896333.6995001	896333.699893	40	896336.8774845	896336.8779194	100	del	896338.637028	nan	nan	nan	nan	nan
598.82568359375	0.0	40	1226395	43	83	450	0	1	896330.3260806	896330.3264566	80	896333.6995001	896333.699893	40	896336.8774845	896336.8779194	100	del	896338.637028	nan	nan	nan	nan	nan
602.00390625	0.0	100	1232904	43	83	450	0	1	896330.3260806	896330.3264566	80	896333.6995001	896333.699893	40	896336.8774845	896336.8779194	100	del	896338.637028	nan	nan	nan	nan	nan
606.701171875	0.0	80	1242524	44	53	450	0	1	896341.5751392	896341.5756704	80	896344.768473	896344.7688964	40	896348.1964576	896348.1968759	100	del	896349.4528921	nan	nan	nan	nan	nan
609.89453125	0.0	40	1249064	44	53	450	0	1	896341.5751392	896341.5756704	80	896344.768473	896344.7688964	40	896348.1964576	896348.1968759	100	del	896349.4528921	nan	nan	nan	nan	nan
613.322265625	0.0	100	1256084	44	53	450	0	1	896341.5751392	896341.5756704	80	896344.768473	896344.7688964	40	896348.1964576	896348.1968759	100	del	896349.4528921	nan	nan	nan	nan	nan
617.18505859375	0.0	80	1263995	45	67	4	1	1	896352.0593343	896352.0597627	80	896355.1316294	896355.1322003	40	896358.5842288	896358.5846842	100	del	896359.3891436	1.0	896362.5411931	896359.9005012	896359.9009735	120.0
620.25732421875	0.0	40	1270287	45	67	4	1	1	896352.0593343	896352.0597627	80	896355.1316294	896355.1322003	40	896358.5842288	896358.5846842	100	del	896359.3891436	1.0	896362.5411931	896359.9005012	896359.9009735	120.0
623.7099609375	0.0	100	1277358	45	67	4	1	1	896352.0593343	896352.0597627	80	896355.1316294	896355.1322003	40	896358.5842288	896358.5846842	100	del	896359.3891436	1.0	896362.5411931	896359.9005012	896359.9009735	120.0
625.0263671875	0.0	120	1280054	45	67	4	1	1	896352.0593343	896352.0597627	80	896355.1316294	896355.1322003	40	896358.5842288	896358.5846842	100	del	896359.3891436	1.0	896362.5411931	896359.9005012	896359.9009735	120.0
629.70068359375	0.0	80	1289627	46	77	270	1	0	896364.5752662	896364.5755839	80	896367.9259487	896367.9264844	40	896371.3062073	896371.3067215	100	del	896372.8772308	2.0	896374.1968546	896373.3871155	896373.3874514	120.0
633.05126953125	0.0	40	1296489	46	77	270	1	0	896364.5752662	896364.5755839	80	896367.9259487	896367.9264844	40	896371.3062073	896371.3067215	100	del	896372.8772308	2.0	896374.1968546	896373.3871155	896373.3874514	120.0
636.431640625	0.0	100	1303412	46	77	270	1	0	896364.5752662	896364.5755839	80	896367.9259487	896367.9264844	40	896371.3062073	896371.3067215	100	del	896372.8772308	2.0	896374.1968546	896373.3871155	896373.3874514	120.0
638.51220703125	0.0	120	1307673	46	77	270	1	0	896364.5752662	896364.5755839	80	896367.9259487	896367.9264844	40	896371.3062073	896371.3067215	100	del	896372.8772308	2.0	896374.1968546	896373.3871155	896373.3874514	120.0
641.556640625	0.0	80	1313908	47	67	20	0	0	896376.4313891	896376.4318814	80	896379.628887	896379.6293268	40	896383.1315563	896383.13201	100	del	896384.5169317	nan	nan	nan	nan	nan
644.75390625	0.0	40	1320456	47	67	20	0	0	896376.4313891	896376.4318814	80	896379.628887	896379.6293268	40	896383.1315563	896383.13201	100	del	896384.5169317	nan	nan	nan	nan	nan
648.2568359375	0.0	100	1327630	47	67	20	0	0	896376.4313891	896376.4318814	80	896379.628887	896379.6293268	40	896383.1315563	896383.13201	100	del	896384.5169317	nan	nan	nan	nan	nan
652.3583984375	0.0	80	1336030	48	57	730	1	0	896387.2336879	896387.2344301	80	896390.4617176	896390.46216	40	896393.5534077	896393.5538891	100	del	896395.1326656	3.0	896398.8448483	896395.6433275	896395.643676	120.0
655.58642578125	0.0	40	1342641	48	57	730	1	0	896387.2336879	896387.2344301	80	896390.4617176	896390.46216	40	896393.5534077	896393.5538891	100	del	896395.1326656	3.0	896398.8448483	896395.6433275	896395.643676	120.0
658.67822265625	0.0	100	1348973	48	57	730	1	0	896387.2336879	896387.2344301	80	896390.4617176	896390.46216	40	896393.5534077	896393.5538891	100	del	896395.1326656	3.0	896398.8448483	896395.6433275	896395.643676	120.0
660.76806640625	0.0	120	1353253	48	57	730	1	0	896387.2336879	896387.2344301	80	896390.4617176	896390.46216	40	896393.5534077	896393.5538891	100	del	896395.1326656	3.0	896398.8448483	896395.6433275	896395.643676	120.0
666.14501953125	0.0	80	1364265	49	67	270	1	1	896401.0203776	896401.0207324	80	896404.1862692	896404.1867354	40	896407.6480749	896407.6485432	100	del	896409.7324784	2.0	896410.5331017	896410.2423943	896410.2426771	120.0
669.31103515625	0.0	40	1370749	49	67	270	1	1	896401.0203776	896401.0207324	80	896404.1862692	896404.1867354	40	896407.6480749	896407.6485432	100	del	896409.7324784	2.0	896410.5331017	896410.2423943	896410.2426771	120.0
672.7724609375	0.0	100	1377838	49	67	270	1	1	896401.0203776	896401.0207324	80	896404.1862692	896404.1867354	40	896407.6480749	896407.6485432	100	del	896409.7324784	2.0	896410.5331017	896410.2423943	896410.2426771	120.0
675.36669921875	0.0	120	1383151	49	67	270	1	1	896401.0203776	896401.0207324	80	896404.1862692	896404.1867354	40	896407.6480749	896407.6485432	100	del	896409.7324784	2.0	896410.5331017	896410.2423943	896410.2426771	120.0
677.79833984375	0.0	80	1388131	50	50	180	1	0	896412.6737387	896412.6741718	80	896415.8364621	896415.8368944	40	896419.0546443	896419.0552057	100	del	896421.6527236	2.0	896422.6293298	896422.163723	896422.164306	120.0
680.9609375	0.0	40	1394608	50	50	180	1	0	896412.6737387	896412.6741718	80	896415.8364621	896415.8368944	40	896419.0546443	896419.0552057	100	del	896421.6527236	2.0	896422.6293298	896422.163723	896422.164306	120.0
684.1787109375	0.0	100	1401198	50	50	180	1	0	896412.6737387	896412.6741718	80	896415.8364621	896415.8368944	40	896419.0546443	896419.0552057	100	del	896421.6527236	2.0	896422.6293298	896422.163723	896422.164306	120.0
687.2880859375	0.0	120	1407566	50	50	180	1	0	896412.6737387	896412.6741718	80	896415.8364621	896415.8368944	40	896419.0546443	896419.0552057	100	del	896421.6527236	2.0	896422.6293298	896422.163723	896422.164306	120.0
690.12353515625	0.0	80	1413373	51	100	230	0	1	896424.9994761	896424.9999577	80	896428.0789616	896428.0794174	40	896431.5281987	896431.5288636	100	del	896432.6139062	nan	nan	nan	nan	nan
693.203125	0.0	40	1419680	51	100	230	0	1	896424.9994761	896424.9999577	80	896428.0789616	896428.0794174	40	896431.5281987	896431.5288636	100	del	896432.6139062	nan	nan	nan	nan	nan
696.65234375	0.0	100	1426744	51	100	230	0	1	896424.9994761	896424.9999577	80	896428.0789616	896428.0794174	40	896431.5281987	896431.5288636	100	del	896432.6139062	nan	nan	nan	nan	nan
700.29736328125	0.0	80	1434209	52	67	730	1	0	896435.1737557	896435.1742502	80	896438.4130513	896438.4136971	40	896441.4415583	896441.4420517	100	del	896442.7809424	3.0	896443.8845856	896443.2942747	896443.2949464	120.0
703.537109375	0.0	40	1440844	52	67	730	1	0	896435.1737557	896435.1742502	80	896438.4130513	896438.4136971	40	896441.4415583	896441.4420517	100	del	896442.7809424	3.0	896443.8845856	896443.2942747	896443.2949464	120.0
706.5654296875	0.0	100	1447046	52	67	730	1	0	896435.1737557	896435.1742502	80	896438.4130513	896438.4136971	40	896441.4415583	896441.4420517	100	del	896442.7809424	3.0	896443.8845856	896443.2942747	896443.2949464	120.0
708.41796875	0.0	120	1450840	52	67	730	1	0	896435.1737557	896435.1742502	80	896438.4130513	896438.4136971	40	896441.4415583	896441.4420517	100	del	896442.7809424	3.0	896443.8845856	896443.2942747	896443.2949464	120.0
711.40673828125	0.0	80	1456961	53	60	4	1	0	896446.2830887	896446.283683	80	896449.6407262	896449.6411231	40	896452.7582611	896452.758633	100	del	896454.0298076	1.0	896456.118091	896454.5386687	896454.5390082	120.0
714.76416015625	0.0	40	1463837	53	60	4	1	0	896446.2830887	896446.283683	80	896449.6407262	896449.6411231	40	896452.7582611	896452.758633	100	del	896454.0298076	1.0	896456.118091	896454.5386687	896454.5390082	120.0
717.8818359375	0.0	100	1470222	53	60	4	1	0	896446.2830887	896446.283683	80	896449.6407262	896449.6411231	40	896452.7582611	896452.758633	100	del	896454.0298076	1.0	896456.118091	896454.5386687	896454.5390082	120.0
719.662109375	0.0	120	1473868	53	60	4	1	0	896446.2830887	896446.283683	80	896449.6407262	896449.6411231	40	896452.7582611	896452.758633	100	del	896454.0298076	1.0	896456.118091	896454.5386687	896454.5390082	120.0
723.59716796875	0.0	80	1481927	54	57	450	0	0	896458.473671	896458.4740908	80	896461.7609951	896461.761507	40	896465.2000067	896465.2005094	100	del	896467.3322425	nan	nan	nan	nan	nan
726.88427734375	0.0	40	1488659	54	57	450	0	0	896458.473671	896458.4740908	80	896461.7609951	896461.761507	40	896465.2000067	896465.2005094	100	del	896467.3322425	nan	nan	nan	nan	nan
730.3232421875	0.0	100	1495702	54	57	450	0	0	896458.473671	896458.4740908	80	896461.7609951	896461.761507	40	896465.2000067	896465.2005094	100	del	896467.3322425	nan	nan	nan	nan	nan
735.25146484375	0.0	80	1505795	55	87	4	1	0	896470.1282933	896470.1287528	80	896473.5866523	896473.5871331	40	896476.8098579	896476.8102997	100	del	896477.660235	2.0	896480.1811044	896478.1721735	896478.1725579	120.0
738.70947265625	0.0	40	1512877	55	87	4	1	0	896470.1282933	896470.1287528	80	896473.5866523	896473.5871331	40	896476.8098579	896476.8102997	100	del	896477.660235	2.0	896480.1811044	896478.1721735	896478.1725579	120.0
741.9326171875	0.0	100	1519478	55	87	4	1	0	896470.1282933	896470.1287528	80	896473.5866523	896473.5871331	40	896476.8098579	896476.8102997	100	del	896477.660235	2.0	896480.1811044	896478.1721735	896478.1725579	120.0
743.294921875	0.0	120	1522268	55	87	4	1	0	896470.1282933	896470.1287528	80	896473.5866523	896473.5871331	40	896476.8098579	896476.8102997	100	del	896477.660235	2.0	896480.1811044	896478.1721735	896478.1725579	120.0
747.498046875	0.0	80	1530876	56	60	1190	0	0	896482.3753954	896482.3758941	80	896485.6275405	896485.6280195	40	896488.7683255	896488.7688192	100	del	896489.7166255	nan	nan	nan	nan	nan
750.75	0.0	40	1537536	56	60	1190	0	0	896482.3753954	896482.3758941	80	896485.6275405	896485.6280195	40	896488.7683255	896488.7688192	100	del	896489.7166255	nan	nan	nan	nan	nan
753.890625	0.0	100	1543968	56	60	1190	0	0	896482.3753954	896482.3758941	80	896485.6275405	896485.6280195	40	896488.7683255	896488.7688192	100	del	896489.7166255	nan	nan	nan	nan	nan
757.8212890625	0.0	80	1552018	57	53	20	0	0	896492.698917	896492.6994096	80	896495.9404106	896495.9409277	40	896499.0807516	896499.0814662	100	del	896499.9650389	nan	nan	nan	nan	nan
761.06298828125	0.0	40	1558657	57	53	20	0	0	896492.698917	896492.6994096	80	896495.9404106	896495.9409277	40	896499.0807516	896499.0814662	100	del	896499.9650389	nan	nan	nan	nan	nan
764.203125	0.0	100	1565088	57	53	20	0	0	896492.698917	896492.6994096	80	896495.9404106	896495.9409277	40	896499.0807516	896499.0814662	100	del	896499.9650389	nan	nan	nan	nan	nan
767.8212890625	0.0	80	1572498	58	73	730	1	1	896502.6992835	896502.6997524	80	896506.058539	896506.0589653	40	896509.2732817	896509.2737655	100	del	896510.1722753	3.0	896511.2191883	896510.6851727	896510.6856176	120.0
771.1806640625	0.0	40	1579378	58	73	730	1	1	896502.6992835	896502.6997524	80	896506.058539	896506.0589653	40	896509.2732817	896509.2737655	100	del	896510.1722753	3.0	896511.2191883	896510.6851727	896510.6856176	120.0
774.3955078125	0.0	100	1585962	58	73	730	1	1	896502.6992835	896502.6997524	80	896506.058539	896506.0589653	40	896509.2732817	896509.2737655	100	del	896510.1722753	3.0	896511.2191883	896510.6851727	896510.6856176	120.0
775.80712890625	0.0	120	1588853	58	73	730	1	1	896502.6992835	896502.6997524	80	896506.058539	896506.0589653	40	896509.2732817	896509.2737655	100	del	896510.1722753	3.0	896511.2191883	896510.6851727	896510.6856176	120.0
778.44921875	0.0	80	1594264	59	70	110	0	0	896513.3274444	896513.3278703	80	896516.7621749	896516.7625355	40	896520.0675901	896520.0681264	100	del	896520.7497304	nan	nan	nan	nan	nan
781.8837890625	0.0	40	1601298	59	70	110	0	0	896513.3274444	896513.3278703	80	896516.7621749	896516.7625355	40	896520.0675901	896520.0681264	100	del	896520.7497304	nan	nan	nan	nan	nan
785.189453125	0.0	100	1608068	59	70	110	0	0	896513.3274444	896513.3278703	80	896516.7621749	896516.7625355	40	896520.0675901	896520.0681264	100	del	896520.7497304	nan	nan	nan	nan	nan
788.576171875	0.0	80	1615004	60	90	730	1	0	896523.4545945	896523.455089	80	896526.5729913	896526.5734747	40	896529.6958919	896529.6963687	100	del	896530.6446159	3.0	896531.7580072	896531.1548777	896531.1551982	120.0
791.69482421875	0.0	40	1621391	60	90	730	1	0	896523.4545945	896523.455089	80	896526.5729913	896526.5734747	40	896529.6958919	896529.6963687	100	del	896530.6446159	3.0	896531.7580072	896531.1548777	896531.1551982	120.0
794.8173828125	0.0	100	1627786	60	90	730	1	0	896523.4545945	896523.455089	80	896526.5729913	896526.5734747	40	896529.6958919	896529.6963687	100	del	896530.6446159	3.0	896531.7580072	896531.1548777	896531.1551982	120.0
796.2763671875	0.0	120	1630774	60	90	730	1	0	896523.4545945	896523.455089	80	896526.5729913	896526.5734747	40	896529.6958919	896529.6963687	100	del	896530.6446159	3.0	896531.7580072	896531.1548777	896531.1551982	120.0
889.0380859375	0.0	80	1820750	61	87	180	1	0	896623.9189574	896623.9194347	80	896627.1439504	896627.1444077	40	896630.5278546	896630.5283463	100	del	896631.525476	2.0	896632.6137028	896632.0368029	896632.037176	120.0
892.26318359375	0.0	40	1827355	61	87	180	1	0	896623.9189574	896623.9194347	80	896627.1439504	896627.1444077	40	896630.5278546	896630.5283463	100	del	896631.525476	2.0	896632.6137028	896632.0368029	896632.037176	120.0
895.64697265625	0.0	100	1834285	61	87	180	1	0	896623.9189574	896623.9194347	80	896627.1439504	896627.1444077	40	896630.5278546	896630.5283463	100	del	896631.525476	2.0	896632.6137028	896632.0368029	896632.037176	120.0
897.15576171875	0.0	120	1837375	61	87	180	1	0	896623.9189574	896623.9194347	80	896627.1439504	896627.1444077	40	896630.5278546	896630.5283463	100	del	896631.525476	2.0	896632.6137028	896632.0368029	896632.037176	120.0
899.78271484375	0.0	80	1842755	62	63	1190	0	0	896634.6638664	896634.6643007	80	896638.0932904	896638.0936106	40	896641.447038	896641.4475014	100	del	896643.3882412	nan	nan	nan	nan	nan
903.2119140625	0.0	40	1849778	62	63	1190	0	0	896634.6638664	896634.6643007	80	896638.0932904	896638.0936106	40	896641.447038	896641.4475014	100	del	896643.3882412	nan	nan	nan	nan	nan
906.56591796875	0.0	100	1856647	62	63	1190	0	0	896634.6638664	896634.6643007	80	896638.0932904	896638.0936106	40	896641.447038	896641.4475014	100	del	896643.3882412	nan	nan	nan	nan	nan
911.09375	0.0	80	1865920	63	83	110	0	0	896645.9752975	896645.975809	80	896649.4136076	896649.4141066	40	896652.5277974	896652.5295974	100	del	896652.5298829	nan	nan	nan	nan	nan
914.5322265625	0.0	40	1872962	63	83	110	0	0	896645.9752975	896645.975809	80	896649.4136076	896649.4141066	40	896652.5277974	896652.5295974	100	del	896652.5298829	nan	nan	nan	nan	nan
917.64599609375	0.0	100	1879339	63	83	110	0	0	896645.9752975	896645.975809	80	896649.4136076	896649.4141066	40	896652.5277974	896652.5295974	100	del	896652.5298829	nan	nan	nan	nan	nan
920.4755859375	0.0	80	1885134	64	100	20	0	1	896655.3571332	896655.3576765	80	896658.6372492	896658.6377549	40	896661.7321346	896661.7326511	100	del	896663.0360416	nan	nan	nan	nan	nan
923.75537109375	0.0	40	1891851	64	100	20	0	1	896655.3571332	896655.3576765	80	896658.6372492	896658.6377549	40	896661.7321346	896661.7326511	100	del	896663.0360416	nan	nan	nan	nan	nan
926.8505859375	0.0	100	1898190	64	100	20	0	1	896655.3571332	896655.3576765	80	896658.6372492	896658.6377549	40	896661.7321346	896661.7326511	100	del	896663.0360416	nan	nan	nan	nan	nan
930.67578125	0.0	80	1906024	65	80	63	1	1	896665.5578876	896665.5583211	80	896668.9510573	896668.9515713	40	896672.3463153	896672.3468395	100	del	896676.0600148	2.0	896678.1803787	896676.5706992	896676.5710179	120.0
934.0693359375	0.0	40	1912974	65	80	63	1	1	896665.5578876	896665.5583211	80	896668.9510573	896668.9515713	40	896672.3463153	896672.3468395	100	del	896676.0600148	2.0	896678.1803787	896676.5706992	896676.5710179	120.0
937.46435546875	0.0	100	1919927	65	80	63	1	1	896665.5578876	896665.5583211	80	896668.9510573	896668.9515713	40	896672.3463153	896672.3468395	100	del	896676.0600148	2.0	896678.1803787	896676.5706992	896676.5710179	120.0
941.6884765625	0.0	120	1928578	65	80	63	1	1	896665.5578876	896665.5583211	80	896668.9510573	896668.9515713	40	896672.3463153	896672.3468395	100	del	896676.0600148	2.0	896678.1803787	896676.5706992	896676.5710179	120.0
945.52197265625	0.0	80	1936429	66	70	450	0	1	896680.404084	896680.4043993	80	896683.439824	896683.4402732	40	896686.7470615	896686.7476187	100	del	896688.4525817	nan	nan	nan	nan	nan
948.5576171875	0.0	40	1942646	66	70	450	0	1	896680.404084	896680.4043993	80	896683.439824	896683.4402732	40	896686.7470615	896686.7476187	100	del	896688.4525817	nan	nan	nan	nan	nan
951.86474609375	0.0	100	1949419	66	70	450	0	1	896680.404084	896680.4043993	80	896683.439824	896683.4402732	40	896686.7470615	896686.7476187	100	del	896688.4525817	nan	nan	nan	nan	nan
956.177734375	0.0	80	1958252	67	70	20	0	0	896691.0601047	896691.0605011	80	896694.4325575	896694.4330971	40	896697.7130503	896697.713538	100	del	896699.8758807	nan	nan	nan	nan	nan
959.5498046875	0.0	40	1965158	67	70	20	0	0	896691.0601047	896691.0605011	80	896694.4325575	896694.4330971	40	896697.7130503	896697.713538	100	del	896699.8758807	nan	nan	nan	nan	nan
962.83056640625	0.0	100	1971877	67	70	20	0	0	896691.0601047	896691.0605011	80	896694.4325575	896694.4330971	40	896697.7130503	896697.713538	100	del	896699.8758807	nan	nan	nan	nan	nan
967.6376953125	0.0	80	1981722	68	77	180	1	1	896702.5203397	896702.5208703	80	896705.9863762	896705.9868428	40	896709.3787603	896709.379363	100	del	896712.7733412	2.0	896715.8378172	896713.2839881	896713.2843391	120.0
971.103515625	0.0	40	1988820	68	77	180	1	1	896702.5203397	896702.5208703	80	896705.9863762	896705.9868428	40	896709.3787603	896709.379363	100	del	896712.7733412	2.0	896715.8378172	896713.2839881	896713.2843391	120.0
974.49609375	0.0	100	1995768	68	77	180	1	1	896702.5203397	896702.5208703	80	896705.9863762	896705.9868428	40	896709.3787603	896709.379363	100	del	896712.7733412	2.0	896715.8378172	896713.2839881	896713.2843391	120.0
978.40087890625	0.0	120	2003765	68	77	180	1	1	896702.5203397	896702.5208703	80	896705.9863762	896705.9868428	40	896709.3787603	896709.379363	100	del	896712.7733412	2.0	896715.8378172	896713.2839881	896713.2843391	120.0
983.41259765625	0.0	80	2014029	69	73	270	1	0	896718.2958697	896718.296376	80	896721.3375034	896721.3379566	40	896724.4422259	896724.4427629	100	del	896725.9496899	3.0	896726.7639582	896726.4633784	896726.4638962	120.0
986.4541015625	0.0	40	2020258	69	73	270	1	0	896718.2958697	896718.296376	80	896721.3375034	896721.3379566	40	896724.4422259	896724.4427629	100	del	896725.9496899	3.0	896726.7639582	896726.4633784	896726.4638962	120.0
989.55908203125	0.0	100	2026617	69	73	270	1	0	896718.2958697	896718.296376	80	896721.3375034	896721.3379566	40	896724.4422259	896724.4427629	100	del	896725.9496899	3.0	896726.7639582	896726.4633784	896726.4638962	120.0
991.580078125	0.0	120	2030756	69	73	270	1	0	896718.2958697	896718.296376	80	896721.3375034	896721.3379566	40	896724.4422259	896724.4427629	100	del	896725.9496899	3.0	896726.7639582	896726.4633784	896726.4638962	120.0
994.26513671875	0.0	80	2036255	70	97	4	1	1	896729.148581	896729.1490801	80	896732.5044231	896732.5048818	40	896735.9061913	896735.906748	100	del	896736.7080873	1.0	896737.5485541	896737.2181556	896737.2184736	120.0
997.62109375	0.0	40	2043128	70	97	4	1	1	896729.148581	896729.1490801	80	896732.5044231	896732.5048818	40	896735.9061913	896735.906748	100	del	896736.7080873	1.0	896737.5485541	896737.2181556	896737.2184736	120.0
1001.0224609375	0.0	100	2050094	70	97	4	1	1	896729.148581	896729.1490801	80	896732.5044231	896732.5048818	40	896735.9061913	896735.906748	100	del	896736.7080873	1.0	896737.5485541	896737.2181556	896737.2184736	120.0
1002.33447265625	0.0	120	2052781	70	97	4	1	1	896729.148581	896729.1490801	80	896732.5044231	896732.5048818	40	896735.9061913	896735.906748	100	del	896736.7080873	1.0	896737.5485541	896737.2181556	896737.2184736	120.0
1004.9296875	0.0	80	2058096	71	53	63	1	1	896739.8135409	896739.8140099	80	896743.0337652	896743.0341745	40	896746.3527817	896746.3532657	100	del	896748.0518154	2.0	896748.9080115	896748.5616519	896748.5619647	120.0
1008.14990234375	0.0	40	2064691	71	53	63	1	1	896739.8135409	896739.8140099	80	896743.0337652	896743.0341745	40	896746.3527817	896746.3532657	100	del	896748.0518154	2.0	896748.9080115	896748.5616519	896748.5619647	120.0
1011.46875	0.0	100	2071488	71	53	63	1	1	896739.8135409	896739.8140099	80	896743.0337652	896743.0341745	40	896746.3527817	896746.3532657	100	del	896748.0518154	2.0	896748.9080115	896748.5616519	896748.5619647	120.0
1013.677734375	0.0	120	2076012	71	53	63	1	1	896739.8135409	896739.8140099	80	896743.0337652	896743.0341745	40	896746.3527817	896746.3532657	100	del	896748.0518154	2.0	896748.9080115	896748.5616519	896748.5619647	120.0
1016.46826171875	0.0	80	2081727	72	70	63	1	1	896751.3520726	896751.3525348	80	896754.6954497	896754.6959358	40	896757.9681134	896757.968519	100	del	896758.5655208	2.0	896759.5886268	896759.079084	896759.0796025	120.0
1019.8115234375	0.0	40	2088574	72	70	63	1	1	896751.3520726	896751.3525348	80	896754.6954497	896754.6959358	40	896757.9681134	896757.968519	100	del	896758.5655208	2.0	896759.5886268	896759.079084	896759.0796025	120.0
1023.083984375	0.0	100	2095276	72	70	63	1	1	896751.3520726	896751.3525348	80	896754.6954497	896754.6959358	40	896757.9681134	896757.968519	100	del	896758.5655208	2.0	896759.5886268	896759.079084	896759.0796025	120.0
1024.19482421875	0.0	120	2097551	72	70	63	1	1	896751.3520726	896751.3525348	80	896754.6954497	896754.6959358	40	896757.9681134	896757.968519	100	del	896758.5655208	2.0	896759.5886268	896759.079084	896759.0796025	120.0
1026.86962890625	0.0	80	2103029	73	63	110	0	0	896761.7541152	896761.7546468	80	896765.1138879	896765.1143388	40	896768.3173351	896768.3177858	100	imm	896769.2596598	nan	nan	nan	nan	nan
1030.2294921875	0.0	40	2109910	73	63	110	0	0	896761.7541152	896761.7546468	80	896765.1138879	896765.1143388	40	896768.3173351	896768.3177858	100	imm	896769.2596598	nan	nan	nan	nan	nan
1033.43310546875	0.0	100	2116471	73	63	110	0	0	896761.7541152	896761.7546468	80	896765.1138879	896765.1143388	40	896768.3173351	896768.3177858	100	imm	896769.2596598	nan	nan	nan	nan	nan
1037.173828125	0.0	80	2124132	74	50	110	0	0	896772.0583549	896772.0586833	80	896775.50999	896775.5104445	40	896778.9452133	896778.9458058	100	del	896779.8838653	nan	nan	nan	nan	nan
1040.62548828125	0.0	40	2131201	74	50	110	0	0	896772.0583549	896772.0586833	80	896775.50999	896775.5104445	40	896778.9452133	896778.9458058	100	del	896779.8838653	nan	nan	nan	nan	nan
1044.060546875	0.0	100	2138236	74	50	110	0	0	896772.0583549	896772.0586833	80	896775.50999	896775.5104445	40	896778.9452133	896778.9458058	100	del	896779.8838653	nan	nan	nan	nan	nan
1047.96435546875	0.0	80	2146231	75	73	450	0	1	896782.8493776	896782.8498894	80	896786.3264519	896786.3269393	40	896789.7471564	896789.7476198	100	del	896792.3162085	nan	nan	nan	nan	nan
1051.44140625	0.0	40	2153352	75	73	450	0	1	896782.8493776	896782.8498894	80	896786.3264519	896786.3269393	40	896789.7471564	896789.7476198	100	del	896792.3162085	nan	nan	nan	nan	nan
1054.8623046875	0.0	100	2160358	75	73	450	0	1	896782.8493776	896782.8498894	80	896786.3264519	896786.3269393	40	896789.7471564	896789.7476198	100	del	896792.3162085	nan	nan	nan	nan	nan
1059.9501953125	0.0	80	2170778	76	83	20	0	1	896794.8349696	896794.8355837	80	896797.8446203	896797.845089	40	896800.9016413	896800.9022165	100	del	896802.3477624	nan	nan	nan	nan	nan
1062.95947265625	0.0	40	2176941	76	83	20	0	1	896794.8349696	896794.8355837	80	896797.8446203	896797.845089	40	896800.9016413	896800.9022165	100	del	896802.3477624	nan	nan	nan	nan	nan
1066.0166015625	0.0	100	2183202	76	83	20	0	1	896794.8349696	896794.8355837	80	896797.8446203	896797.845089	40	896800.9016413	896800.9022165	100	del	896802.3477624	nan	nan	nan	nan	nan
1070.111328125	0.0	80	2191588	77	50	730	1	0	896804.9968185	896804.9972907	80	896808.0158958	896808.0163054	40	896811.2419323	896811.2423979	100	del	896812.6518955	3.0	896816.1163364	896813.1645298	896813.1650439	120.0
1073.13037109375	0.0	40	2197771	77	50	730	1	0	896804.9968185	896804.9972907	80	896808.0158958	896808.0163054	40	896811.2419323	896811.2423979	100	del	896812.6518955	3.0	896816.1163364	896813.1645298	896813.1650439	120.0
1076.3564453125	0.0	100	2204378	77	50	730	1	0	896804.9968185	896804.9972907	80	896808.0158958	896808.0163054	40	896811.2419323	896811.2423979	100	del	896812.6518955	3.0	896816.1163364	896813.1645298	896813.1650439	120.0
1078.27880859375	0.0	120	2208315	77	50	730	1	0	896804.9968185	896804.9972907	80	896808.0158958	896808.0163054	40	896811.2419323	896811.2423979	100	del	896812.6518955	3.0	896816.1163364	896813.1645298	896813.1650439	120.0
1083.41455078125	0.0	80	2218833	78	77	730	1	0	896818.3003464	896818.3009458	80	896821.5786058	896821.5790985	40	896825.0554179	896825.055923	100	del	896826.2919349	3.0	896827.2520916	896826.8013456	896826.8016515	120.0
1086.69287109375	0.0	40	2225547	78	77	730	1	0	896818.3003464	896818.3009458	80	896821.5786058	896821.5790985	40	896825.0554179	896825.055923	100	del	896826.2919349	3.0	896827.2520916	896826.8013456	896826.8016515	120.0
1090.16943359375	0.0	100	2232667	78	77	730	1	0	896818.3003464	896818.3009458	80	896821.5786058	896821.5790985	40	896825.0554179	896825.055923	100	del	896826.2919349	3.0	896827.2520916	896826.8013456	896826.8016515	120.0
1091.91552734375	0.0	120	2236243	78	77	730	1	0	896818.3003464	896818.3009458	80	896821.5786058	896821.5790985	40	896825.0554179	896825.055923	100	del	896826.2919349	3.0	896827.2520916	896826.8013456	896826.8016515	120.0
1094.5361328125	0.0	80	2241610	79	77	63	1	1	896829.4221571	896829.4226548	80	896832.5987812	896832.5992446	40	896836.0415483	896836.0419906	100	del	896837.4441975	2.0	896838.3396303	896837.9568231	896837.9572997	120.0
1097.712890625	0.0	40	2248116	79	77	63	1	1	896829.4221571	896829.4226548	80	896832.5987812	896832.5992446	40	896836.0415483	896836.0419906	100	del	896837.4441975	2.0	896838.3396303	896837.9568231	896837.9572997	120.0
1101.1552734375	0.0	100	2255166	79	77	63	1	1	896829.4221571	896829.4226548	80	896832.5987812	896832.5992446	40	896836.0415483	896836.0419906	100	del	896837.4441975	2.0	896838.3396303	896837.9568231	896837.9572997	120.0
1103.07080078125	0.0	120	2259089	79	77	63	1	1	896829.4221571	896829.4226548	80	896832.5987812	896832.5992446	40	896836.0415483	896836.0419906	100	del	896837.4441975	2.0	896838.3396303	896837.9568231	896837.9572997	120.0
1105.63818359375	0.0	80	2264347	80	100	4	1	0	896840.5243404	896840.5247663	80	896843.6016047	896843.6020189	40	896846.8689423	896846.8694068	100	del	896847.48402	2.0	896848.651661	896847.9958106	896847.9965501	120.0
1108.71533203125	0.0	40	2270649	80	100	4	1	0	896840.5243404	896840.5247663	80	896843.6016047	896843.6020189	40	896846.8689423	896846.8694068	100	del	896847.48402	2.0	896848.651661	896847.9958106	896847.9965501	120.0
1111.982421875	0.0	100	2277340	80	100	4	1	0	896840.5243404	896840.5247663	80	896843.6016047	896843.6020189	40	896846.8689423	896846.8694068	100	del	896847.48402	2.0	896848.651661	896847.9958106	896847.9965501	120.0
1113.109375	0.0	120	2279648	80	100	4	1	0	896840.5243404	896840.5247663	80	896843.6016047	896843.6020189	40	896846.8689423	896846.8694068	100	del	896847.48402	2.0	896848.651661	896847.9958106	896847.9965501	120.0
1245.59521484375	0.0	80	2550979	81	50	4	1	0	896980.484704	896980.4851689	80	896983.6848857	896983.6853947	40	896987.0461595	896987.046687	100	del	896987.9799915	1.0	896989.6353345	896988.4935019	896988.4940021	120.0
1248.794921875	0.0	40	2557532	81	50	4	1	0	896980.484704	896980.4851689	80	896983.6848857	896983.6853947	40	896987.0461595	896987.046687	100	del	896987.9799915	1.0	896989.6353345	896988.4935019	896988.4940021	120.0
1252.15625	0.0	100	2564416	81	50	4	1	0	896980.484704	896980.4851689	80	896983.6848857	896983.6853947	40	896987.0461595	896987.046687	100	del	896987.9799915	1.0	896989.6353345	896988.4935019	896988.4940021	120.0
1253.603515625	0.0	120	2567380	81	50	4	1	0	896980.484704	896980.4851689	80	896983.6848857	896983.6853947	40	896987.0461595	896987.046687	100	del	896987.9799915	1.0	896989.6353345	896988.4935019	896988.4940021	120.0
1257.07568359375	0.0	80	2574491	82	90	180	1	1	896991.9656178	896991.9660677	80	896995.1988627	896995.1993353	40	896998.4487996	896998.4492556	100	del	896999.7954112	2.0	897002.3715938	897000.305801	897000.3062399	120.0
1260.30859375	0.0	40	2581112	82	90	180	1	1	896991.9656178	896991.9660677	80	896995.1988627	896995.1993353	40	896998.4487996	896998.4492556	100	del	896999.7954112	2.0	897002.3715938	897000.305801	897000.3062399	120.0
1263.55859375	0.0	100	2587768	82	90	180	1	1	896991.9656178	896991.9660677	80	896995.1988627	896995.1993353	40	896998.4487996	896998.4492556	100	del	896999.7954112	2.0	897002.3715938	897000.305801	897000.3062399	120.0
1265.41552734375	0.0	120	2591571	82	90	180	1	1	896991.9656178	896991.9660677	80	896995.1988627	896995.1993353	40	896998.4487996	896998.4492556	100	del	896999.7954112	2.0	897002.3715938	897000.305801	897000.3062399	120.0
1269.9697265625	0.0	80	2600898	83	83	1190	0	0	897004.8600094	897004.8605021	80	897007.9103352	897007.9109651	40	897011.0640023	897011.06452	100	del	897012.7323503	nan	nan	nan	nan	nan
1273.02001953125	0.0	40	2607145	83	83	1190	0	0	897004.8600094	897004.8605021	80	897007.9103352	897007.9109651	40	897011.0640023	897011.06452	100	del	897012.7323503	nan	nan	nan	nan	nan
1276.17333984375	0.0	100	2613603	83	83	1190	0	0	897004.8600094	897004.8605021	80	897007.9103352	897007.9109651	40	897011.0640023	897011.06452	100	del	897012.7323503	nan	nan	nan	nan	nan
1280.57861328125	0.0	80	2622625	84	67	180	1	0	897015.4693277	897015.4696441	80	897018.7707003	897018.7712685	40	897022.2226331	897022.2231237	100	del	897024.1410705	2.0	897026.3155422	897024.6512658	897024.6515947	120.0
1283.8798828125	0.0	40	2629386	84	67	180	1	0	897015.4693277	897015.4696441	80	897018.7707003	897018.7712685	40	897022.2226331	897022.2231237	100	del	897024.1410705	2.0	897026.3155422	897024.6512658	897024.6515947	120.0
1287.33203125	0.0	100	2636456	84	67	180	1	0	897015.4693277	897015.4696441	80	897018.7707003	897018.7712685	40	897022.2226331	897022.2231237	100	del	897024.1410705	2.0	897026.3155422	897024.6512658	897024.6515947	120.0
1289.76025390625	0.0	120	2641429	84	67	180	1	0	897015.4693277	897015.4696441	80	897018.7707003	897018.7712685	40	897022.2226331	897022.2231237	100	del	897024.1410705	2.0	897026.3155422	897024.6512658	897024.6515947	120.0
1293.6748046875	0.0	80	2649446	85	53	1190	0	0	897028.5655882	897028.5661133	80	897031.7921469	897031.7926425	40	897035.1784581	897035.1789644	100	del	897035.9477843	nan	nan	nan	nan	nan
1296.9013671875	0.0	40	2656054	85	53	1190	0	0	897028.5655882	897028.5661133	80	897031.7921469	897031.7926425	40	897035.1784581	897035.1789644	100	del	897035.9477843	nan	nan	nan	nan	nan
1300.28759765625	0.0	100	2662989	85	53	1190	0	0	897028.5655882	897028.5661133	80	897031.7921469	897031.7926425	40	897035.1784581	897035.1789644	100	del	897035.9477843	nan	nan	nan	nan	nan
1303.80810546875	0.0	80	2670199	86	93	63	1	1	897038.6993553	897038.6998111	80	897042.1373584	897042.1378528	40	897045.3841204	897045.3846197	100	del	897046.395332	3.0	897049.018914	897046.905042	897046.9053733	120.0
1307.24609375	0.0	40	2677240	86	93	63	1	1	897038.6993553	897038.6998111	80	897042.1373584	897042.1378528	40	897045.3841204	897045.3846197	100	del	897046.395332	3.0	897049.018914	897046.905042	897046.9053733	120.0
1310.49267578125	0.0	100	2683889	86	93	63	1	1	897038.6993553	897038.6998111	80	897042.1373584	897042.1378528	40	897045.3841204	897045.3846197	100	del	897046.395332	3.0	897049.018914	897046.905042	897046.9053733	120.0
1312.013671875	0.0	120	2687004	86	93	63	1	1	897038.6993553	897038.6998111	80	897042.1373584	897042.1378528	40	897045.3841204	897045.3846197	100	del	897046.395332	3.0	897049.018914	897046.905042	897046.9053733	120.0
1316.390625	0.0	80	2695968	87	70	230	0	1	897051.2819398	897051.2822168	80	897054.5328085	897054.5332581	40	897057.6598716	897057.6602913	100	del	897058.6914939	nan	nan	nan	nan	nan
1319.64111328125	0.0	40	2702625	87	70	230	0	1	897051.2819398	897051.2822168	80	897054.5328085	897054.5332581	40	897057.6598716	897057.6602913	100	del	897058.6914939	nan	nan	nan	nan	nan
1322.76806640625	0.0	100	2709029	87	70	230	0	1	897051.2819398	897051.2822168	80	897054.5328085	897054.5332581	40	897057.6598716	897057.6602913	100	del	897058.6914939	nan	nan	nan	nan	nan
1326.3603515625	0.0	80	2716386	88	53	110	0	1	897061.2518482	897061.2522684	80	897064.2917245	897064.2920716	40	897067.748778	897067.749258	100	del	897068.9073963	nan	nan	nan	nan	nan
1329.39990234375	0.0	40	2722611	88	53	110	0	1	897061.2518482	897061.2522684	80	897064.2917245	897064.2920716	40	897067.748778	897067.749258	100	del	897068.9073963	nan	nan	nan	nan	nan
1332.85693359375	0.0	100	2729691	88	53	110	0	1	897061.2518482	897061.2522684	80	897064.2917245	897064.2920716	40	897067.748778	897067.749258	100	del	897068.9073963	nan	nan	nan	nan	nan
1336.6494140625	0.0	80	2737458	89	63	270	1	0	897071.5415245	897071.5419962	80	897074.979899	897074.9803472	40	897078.3489648	897078.3494288	100	del	897079.115146	2.0	897080.3396097	897079.6252834	897079.6257932	120.0
1340.087890625	0.0	40	2744500	89	63	270	1	0	897071.5415245	897071.5419962	80	897074.979899	897074.9803472	40	897078.3489648	897078.3494288	100	del	897079.115146	2.0	897080.3396097	897079.6252834	897079.6257932	120.0
1343.45703125	0.0	100	2751400	89	63	270	1	0	897071.5415245	897071.5419962	80	897074.979899	897074.9803472	40	897078.3489648	897078.3494288	100	del	897079.115146	2.0	897080.3396097	897079.6252834	897079.6257932	120.0
1344.73291015625	0.0	120	2754013	89	63	270	1	0	897071.5415245	897071.5419962	80	897074.979899	897074.9803472	40	897078.3489648	897078.3494288	100	del	897079.115146	2.0	897080.3396097	897079.6252834	897079.6257932	120.0
1347.89990234375	0.0	80	2760499	90	63	450	0	0	897082.7920805	897082.7925291	80	897086.2685754	897086.2690202	40	897089.3518233	897089.3522765	100	del	897092.0048157	nan	nan	nan	nan	nan
1351.37646484375	0.0	40	2767619	90	63	450	0	0	897082.7920805	897082.7925291	80	897086.2685754	897086.2690202	40	897089.3518233	897089.3522765	100	del	897092.0048157	nan	nan	nan	nan	nan
1354.45947265625	0.0	100	2773933	90	63	450	0	0	897082.7920805	897082.7925291	80	897086.2685754	897086.2690202	40	897089.3518233	897089.3522765	100	del	897092.0048157	nan	nan	nan	nan	nan
1359.82763671875	0.0	80	2784927	91	90	20	0	1	897094.7202545	897094.7207893	80	897098.2166463	897098.2170503	40	897101.5534013	897101.5538038	100	del	897102.3159324	nan	nan	nan	nan	nan
1363.32373046875	0.0	40	2792087	91	90	20	0	1	897094.7202545	897094.7207893	80	897098.2166463	897098.2170503	40	897101.5534013	897101.5538038	100	del	897102.3159324	nan	nan	nan	nan	nan
1366.66064453125	0.0	100	2798921	91	90	20	0	1	897094.7202545	897094.7207893	80	897098.2166463	897098.2170503	40	897101.5534013	897101.5538038	100	del	897102.3159324	nan	nan	nan	nan	nan
1370.38818359375	0.0	80	2806555	92	57	180	1	1	897105.2811453	897105.2815775	80	897108.5299286	897108.5303437	40	897111.5511636	897111.5517112	100	del	897112.2688487	2.0	897113.6108754	897112.7826601	897112.7832506	120.0
1373.63720703125	0.0	40	2813209	92	57	180	1	1	897105.2811453	897105.2815775	80	897108.5299286	897108.5303437	40	897111.5511636	897111.5517112	100	del	897112.2688487	2.0	897113.6108754	897112.7826601	897112.7832506	120.0
1376.658203125	0.0	100	2819396	92	57	180	1	1	897105.2811453	897105.2815775	80	897108.5299286	897108.5303437	40	897111.5511636	897111.5517112	100	del	897112.2688487	2.0	897113.6108754	897112.7826601	897112.7832506	120.0
1377.8896484375	0.0	120	2821918	92	57	180	1	1	897105.2811453	897105.2815775	80	897108.5299286	897108.5303437	40	897111.5511636	897111.5517112	100	del	897112.2688487	2.0	897113.6108754	897112.7826601	897112.7832506	120.0
1381.044921875	0.0	80	2828380	93	93	1190	0	1	897115.9377968	897115.9382227	80	897119.0603432	897119.0608132	40	897122.3372272	897122.3377147	100	del	897123.0911968	nan	nan	nan	nan	nan
1384.1669921875	0.0	40	2834774	93	93	1190	0	1	897115.9377968	897115.9382227	80	897119.0603432	897119.0608132	40	897122.3372272	897122.3377147	100	del	897123.0911968	nan	nan	nan	nan	nan
1387.44384765625	0.0	100	2841485	93	93	1190	0	1	897115.9377968	897115.9382227	80	897119.0603432	897119.0608132	40	897122.3372272	897122.3377147	100	del	897123.0911968	nan	nan	nan	nan	nan
1391.078125	0.0	80	2848928	94	80	730	1	0	897125.9712435	897125.9717099	80	897129.2826383	897129.2831512	40	897132.5909596	897132.5914501	100	del	897133.7311172	3.0	897135.1166379	897134.2409451	897134.2412242	120.0
1394.38916015625	0.0	40	2855709	94	80	730	1	0	897125.9712435	897125.9717099	80	897129.2826383	897129.2831512	40	897132.5909596	897132.5914501	100	del	897133.7311172	3.0	897135.1166379	897134.2409451	897134.2412242	120.0
1397.69775390625	0.0	100	2862485	94	80	730	1	0	897125.9712435	897125.9717099	80	897129.2826383	897129.2831512	40	897132.5909596	897132.5914501	100	del	897133.7311172	3.0	897135.1166379	897134.2409451	897134.2412242	120.0
1399.34716796875	0.0	120	2865863	94	80	730	1	0	897125.9712435	897125.9717099	80	897129.2826383	897129.2831512	40	897132.5909596	897132.5914501	100	del	897133.7311172	3.0	897135.1166379	897134.2409451	897134.2412242	120.0
1402.455078125	0.0	80	2872228	95	93	450	0	1	897137.3487895	897137.349263	80	897140.4784867	897140.4789369	40	897143.7059831	897143.7065066	100	del	897147.5237848	nan	nan	nan	nan	nan
1405.5849609375	0.0	40	2878638	95	93	450	0	1	897137.3487895	897137.349263	80	897140.4784867	897140.4789369	40	897143.7059831	897143.7065066	100	del	897147.5237848	nan	nan	nan	nan	nan
1408.81201171875	0.0	100	2885247	95	93	450	0	1	897137.3487895	897137.349263	80	897140.4784867	897140.4789369	40	897143.7059831	897143.7065066	100	del	897147.5237848	nan	nan	nan	nan	nan
1415.15283203125	0.0	80	2898233	96	93	20	0	1	897150.046817	897150.047317	80	897153.3586676	897153.3591319	40	897156.8522347	897156.8527248	100	del	897157.8748186	nan	nan	nan	nan	nan
1418.46484375	0.0	40	2905016	96	93	20	0	1	897150.046817	897150.047317	80	897153.3586676	897153.3591319	40	897156.8522347	897156.8527248	100	del	897157.8748186	nan	nan	nan	nan	nan
1421.9580078125	0.0	100	2912170	96	93	20	0	1	897150.046817	897150.047317	80	897153.3586676	897153.3591319	40	897156.8522347	897156.8527248	100	del	897157.8748186	nan	nan	nan	nan	nan
1425.546875	0.0	80	2919520	97	93	4	1	0	897160.4411099	897160.4415931	80	897163.4672049	897163.4677571	40	897166.9238839	897166.9243682	100	del	897168.5083747	1.0	897169.6767503	897169.0215154	897169.0219962	120.0
1428.5732421875	0.0	40	2925718	97	93	4	1	0	897160.4411099	897160.4415931	80	897163.4672049	897163.4677571	40	897166.9238839	897166.9243682	100	del	897168.5083747	1.0	897169.6767503	897169.0215154	897169.0219962	120.0
1432.02978515625	0.0	100	2932797	97	93	4	1	0	897160.4411099	897160.4415931	80	897163.4672049	897163.4677571	40	897166.9238839	897166.9243682	100	del	897168.5083747	1.0	897169.6767503	897169.0215154	897169.0219962	120.0
1434.126953125	0.0	120	2937092	97	93	4	1	0	897160.4411099	897160.4415931	80	897163.4672049	897163.4677571	40	897166.9238839	897166.9243682	100	del	897168.5083747	1.0	897169.6767503	897169.0215154	897169.0219962	120.0
1436.9169921875	0.0	80	2942806	98	73	20	0	0	897171.8114058	897171.8118027	80	897174.8230762	897174.8235583	40	897178.244025	897178.2445559	100	del	897178.843673	nan	nan	nan	nan	nan
1439.9287109375	0.0	40	2948974	98	73	20	0	0	897171.8114058	897171.8118027	80	897174.8230762	897174.8235583	40	897178.244025	897178.2445559	100	del	897178.843673	nan	nan	nan	nan	nan
1443.349609375	0.0	100	2955980	98	73	20	0	0	897171.8114058	897171.8118027	80	897174.8230762	897174.8235583	40	897178.244025	897178.2445559	100	del	897178.843673	nan	nan	nan	nan	nan
1446.53466796875	0.0	80	2962503	99	77	1190	0	0	897181.4291702	897181.4296616	80	897184.8770588	897184.8775508	40	897187.9377624	897187.9382472	100	del	897188.5227602	nan	nan	nan	nan	nan
1449.982421875	0.0	40	2969564	99	77	1190	0	0	897181.4291702	897181.4296616	80	897184.8770588	897184.8775508	40	897187.9377624	897187.9382472	100	del	897188.5227602	nan	nan	nan	nan	nan
1453.04296875	0.0	100	2975832	99	77	1190	0	0	897181.4291702	897181.4296616	80	897184.8770588	897184.8775508	40	897187.9377624	897187.9382472	100	del	897188.5227602	nan	nan	nan	nan	nan
1456.32373046875	0.0	80	2982551	100	90	110	0	0	897191.2185093	897191.2190464	80	897194.5228745	897194.5234483	40	897197.8293473	897197.8298636	100	del	897198.5229665	nan	nan	nan	nan	nan
1459.6279296875	0.0	40	2989318	100	90	110	0	0	897191.2185093	897191.2190464	80	897194.5228745	897194.5234483	40	897197.8293473	897197.8298636	100	del	897198.5229665	nan	nan	nan	nan	nan
1462.93408203125	0.0	100	2996089	100	90	110	0	0	897191.2185093	897191.2190464	80	897194.5228745	897194.5234483	40	897197.8293473	897197.8298636	100	del	897198.5229665	nan	nan	nan	nan	nan
1547.9697265625	0.0	80	3170242	101	80	230	0	0	897282.8671001	897282.8676272	80	897286.199733	897286.200226	40	897289.4302997	897289.4307474	100	del	897290.2764415	nan	nan	nan	nan	nan
1551.30224609375	0.0	40	3177067	101	80	230	0	0	897282.8671001	897282.8676272	80	897286.199733	897286.200226	40	897289.4302997	897289.4307474	100	del	897290.2764415	nan	nan	nan	nan	nan
1554.533203125	0.0	100	3183684	101	80	230	0	0	897282.8671001	897282.8676272	80	897286.199733	897286.200226	40	897289.4302997	897289.4307474	100	del	897290.2764415	nan	nan	nan	nan	nan
1557.96728515625	0.0	80	3190717	102	87	20	0	0	897292.8648836	897292.8653378	80	897296.2488046	897296.2492828	40	897299.3830878	897299.3836016	100	del	897301.0750434	nan	nan	nan	nan	nan
1561.35107421875	0.0	40	3197647	102	87	20	0	0	897292.8648836	897292.8653378	80	897296.2488046	897296.2492828	40	897299.3830878	897299.3836016	100	del	897301.0750434	nan	nan	nan	nan	nan
1564.4853515625	0.0	100	3204066	102	87	20	0	0	897292.8648836	897292.8653378	80	897296.2488046	897296.2492828	40	897299.3830878	897299.3836016	100	del	897301.0750434	nan	nan	nan	nan	nan
1569.01953125	0.0	80	3213352	103	57	230	0	1	897303.917005	897303.9175312	80	897307.3533659	897307.3538084	40	897310.4086254	897310.4091798	100	del	897312.1629956	nan	nan	nan	nan	nan
1572.45556640625	0.0	40	3220389	103	57	230	0	1	897303.917005	897303.9175312	80	897307.3533659	897307.3538084	40	897310.4086254	897310.4091798	100	del	897312.1629956	nan	nan	nan	nan	nan
1575.5107421875	0.0	100	3226646	103	57	230	0	1	897303.917005	897303.9175312	80	897307.3533659	897307.3538084	40	897310.4086254	897310.4091798	100	del	897312.1629956	nan	nan	nan	nan	nan
1580.26708984375	0.0	80	3236387	104	93	110	0	0	897315.1649906	897315.1654079	80	897318.1882947	897318.188775	40	897321.6189283	897321.6194699	100	del	897322.2914828	nan	nan	nan	nan	nan
1583.2900390625	0.0	40	3242578	104	93	110	0	0	897315.1649906	897315.1654079	80	897318.1882947	897318.188775	40	897321.6189283	897321.6194699	100	del	897322.2914828	nan	nan	nan	nan	nan
1586.720703125	0.0	100	3249604	104	93	110	0	0	897315.1649906	897315.1654079	80	897318.1882947	897318.188775	40	897321.6189283	897321.6194699	100	del	897322.2914828	nan	nan	nan	nan	nan
1590.330078125	0.0	80	3256996	105	60	180	1	0	897325.2282042	897325.2287174	80	897328.261606	897328.2620438	40	897331.5480432	897331.5485134	100	del	897332.2592243	2.0	897333.0591485	897332.7707735	897332.7712087	120.0
1593.36328125	0.0	40	3263208	105	60	180	1	0	897325.2282042	897325.2287174	80	897328.261606	897328.2620438	40	897331.5480432	897331.5485134	100	del	897332.2592243	2.0	897333.0591485	897332.7707735	897332.7712087	120.0
1596.64990234375	0.0	100	3269939	105	60	180	1	0	897325.2282042	897325.2287174	80	897328.261606	897328.2620438	40	897331.5480432	897331.5485134	100	del	897332.2592243	2.0	897333.0591485	897332.7707735	897332.7712087	120.0
1597.87255859375	0.0	120	3272443	105	60	180	1	0	897325.2282042	897325.2287174	80	897328.261606	897328.2620438	40	897331.5480432	897331.5485134	100	del	897332.2592243	2.0	897333.0591485	897332.7707735	897332.7712087	120.0
1600.6474609375	0.0	80	3278126	106	63	4	1	1	897335.546126	897335.5465923	80	897338.7147213	897338.7151217	40	897342.1314421	897342.1319132	100	del	897343.3227243	1.0	897344.3469461	897343.8363951	897343.836853	120.0
1603.81591796875	0.0	40	3284615	106	63	4	1	1	897335.546126	897335.5465923	80	897338.7147213	897338.7151217	40	897342.1314421	897342.1319132	100	del	897343.3227243	1.0	897344.3469461	897343.8363951	897343.836853	120.0
1607.23291015625	0.0	100	3291613	106	63	4	1	1	897335.546126	897335.5465923	80	897338.7147213	897338.7151217	40	897342.1314421	897342.1319132	100	del	897343.3227243	1.0	897344.3469461	897343.8363951	897343.836853	120.0
1608.9375	0.0	120	3295104	106	63	4	1	1	897335.546126	897335.5465923	80	897338.7147213	897338.7151217	40	897342.1314421	897342.1319132	100	del	897343.3227243	1.0	897344.3469461	897343.8363951	897343.836853	120.0
1611.76416015625	0.0	80	3300893	107	50	1190	0	0	897346.6629239	897346.6634984	80	897350.0651788	897350.0656788	40	897353.4784609	897353.4789622	100	imm	897354.4186341	nan	nan	nan	nan	nan
1615.16650390625	0.0	40	3307861	107	50	1190	0	0	897346.6629239	897346.6634984	80	897350.0651788	897350.0656788	40	897353.4784609	897353.4789622	100	imm	897354.4186341	nan	nan	nan	nan	nan
1618.57958984375	0.0	100	3314851	107	50	1190	0	0	897346.6629239	897346.6634984	80	897350.0651788	897350.0656788	40	897353.4784609	897353.4789622	100	imm	897354.4186341	nan	nan	nan	nan	nan
1622.05859375	0.0	80	3321976	108	77	450	0	1	897356.9574916	897356.9577763	80	897360.1068844	897360.1073501	40	897363.4424232	897363.4427244	100	del	897364.5873941	nan	nan	nan	nan	nan
1625.2080078125	0.0	40	3328426	108	77	450	0	1	897356.9574916	897356.9577763	80	897360.1068844	897360.1073501	40	897363.4424232	897363.4427244	100	del	897364.5873941	nan	nan	nan	nan	nan
1628.54296875	0.0	100	3335256	108	77	450	0	1	897356.9574916	897356.9577763	80	897360.1068844	897360.1073501	40	897363.4424232	897363.4427244	100	del	897364.5873941	nan	nan	nan	nan	nan
1632.44580078125	0.0	80	3343249	109	87	270	1	1	897367.3449613	897367.3452254	80	897370.8393505	897370.8398504	40	897374.2271565	897374.2276803	100	del	897375.7720056	3.0	897376.603933	897376.2855991	897376.2862157	120.0
1635.93994140625	0.0	40	3350405	109	87	270	1	1	897367.3449613	897367.3452254	80	897370.8393505	897370.8398504	40	897374.2271565	897374.2276803	100	del	897375.7720056	3.0	897376.603933	897376.2855991	897376.2862157	120.0
1639.32763671875	0.0	100	3357343	109	87	270	1	1	897367.3449613	897367.3452254	80	897370.8393505	897370.8398504	40	897374.2271565	897374.2276803	100	del	897375.7720056	3.0	897376.603933	897376.2855991	897376.2862157	120.0
1641.38623046875	0.0	120	3361559	109	87	270	1	1	897367.3449613	897367.3452254	80	897370.8393505	897370.8398504	40	897374.2271565	897374.2276803	100	del	897375.7720056	3.0	897376.603933	897376.2855991	897376.2862157	120.0
1644.00146484375	0.0	80	3366915	110	83	230	0	1	897378.9012646	897378.9016894	80	897382.0580376	897382.0584889	40	897385.1989888	897385.199537	100	del	897386.418892	nan	nan	nan	nan	nan
1647.158203125	0.0	40	3373380	110	83	230	0	1	897378.9012646	897378.9016894	80	897382.0580376	897382.0584889	40	897385.1989888	897385.199537	100	del	897386.418892	nan	nan	nan	nan	nan
1650.29931640625	0.0	100	3379813	110	83	230	0	1	897378.9012646	897378.9016894	80	897382.0580376	897382.0584889	40	897385.1989888	897385.199537	100	del	897386.418892	nan	nan	nan	nan	nan
1654.47998046875	0.0	80	3388375	111	67	230	0	0	897389.3797928	897389.3802954	80	897392.6107626	897392.6112734	40	897396.0314897	897396.0321314	100	del	897396.7064364	nan	nan	nan	nan	nan
1657.7109375	0.0	40	3394992	111	67	230	0	0	897389.3797928	897389.3802954	80	897392.6107626	897392.6112734	40	897396.0314897	897396.0321314	100	del	897396.7064364	nan	nan	nan	nan	nan
1661.1318359375	0.0	100	3401998	111	67	230	0	0	897389.3797928	897389.3802954	80	897392.6107626	897392.6112734	40	897396.0314897	897396.0321314	100	del	897396.7064364	nan	nan	nan	nan	nan
1664.37451171875	0.0	80	3408639	112	80	1190	0	1	897399.2744574	897399.2749508	80	897402.7120762	897402.7125808	40	897405.7407707	897405.7412686	100	del	897406.8750035	nan	nan	nan	nan	nan
1667.81201171875	0.0	40	3415679	112	80	1190	0	1	897399.2744574	897399.2749508	80	897402.7120762	897402.7125808	40	897405.7407707	897405.7412686	100	del	897406.8750035	nan	nan	nan	nan	nan
1670.84033203125	0.0	100	3421881	112	80	1190	0	1	897399.2744574	897399.2749508	80	897402.7120762	897402.7125808	40	897405.7407707	897405.7412686	100	del	897406.8750035	nan	nan	nan	nan	nan
1674.94189453125	0.0	80	3430281	113	67	450	0	0	897409.842443	897409.8429141	80	897413.3003582	897413.3008527	40	897416.5689926	897416.5692485	100	del	897419.7229851	nan	nan	nan	nan	nan
1678.39990234375	0.0	40	3437363	113	67	450	0	0	897409.842443	897409.8429141	80	897413.3003582	897413.3008527	40	897416.5689926	897416.5692485	100	del	897419.7229851	nan	nan	nan	nan	nan
1681.66845703125	0.0	100	3444057	113	67	450	0	0	897409.842443	897409.8429141	80	897413.3003582	897413.3008527	40	897416.5689926	897416.5692485	100	del	897419.7229851	nan	nan	nan	nan	nan
1687.400390625	0.0	80	3455796	114	57	110	0	1	897422.3010095	897422.3014516	80	897425.3978554	897425.3983543	40	897428.7644716	897428.7649824	100	del	897429.5312169	nan	nan	nan	nan	nan
1690.4970703125	0.0	40	3462138	114	57	110	0	1	897422.3010095	897422.3014516	80	897425.3978554	897425.3983543	40	897428.7644716	897428.7649824	100	del	897429.5312169	nan	nan	nan	nan	nan
1693.86376953125	0.0	100	3469033	114	57	110	0	1	897422.3010095	897422.3014516	80	897425.3978554	897425.3983543	40	897428.7644716	897428.7649824	100	del	897429.5312169	nan	nan	nan	nan	nan
1697.5634765625	0.0	80	3476610	115	73	180	1	0	897432.4643954	897432.4648803	80	897435.4895447	897435.4899993	40	897438.8815855	897438.8820511	100	del	897439.794531	2.0	897440.3090003	897440.3082172	897440.3087389	120.0
1700.58837890625	0.0	40	3482805	115	73	180	1	0	897432.4643954	897432.4648803	80	897435.4895447	897435.4899993	40	897438.8815855	897438.8820511	100	del	897439.794531	2.0	897440.3090003	897440.3082172	897440.3087389	120.0
1703.98046875	0.0	100	3489752	115	73	180	1	0	897432.4643954	897432.4648803	80	897435.4895447	897435.4899993	40	897438.8815855	897438.8820511	100	del	897439.794531	2.0	897440.3090003	897440.3082172	897440.3087389	120.0
1705.4072265625	0.0	120	3492674	115	73	180	1	0	897432.4643954	897432.4648803	80	897435.4895447	897435.4899993	40	897438.8815855	897438.8820511	100	del	897439.794531	2.0	897440.3090003	897440.3082172	897440.3087389	120.0
1707.904296875	0.0	80	3497788	116	100	270	1	0	897442.8053792	897442.8058825	80	897445.9845962	897445.9850676	40	897449.3176529	897449.3180928	100	del	897450.0983996	3.0	897450.9468553	897450.6097638	897450.6103093	120.0
1711.08349609375	0.0	40	3504299	116	100	270	1	0	897442.8053792	897442.8058825	80	897445.9845962	897445.9850676	40	897449.3176529	897449.3180928	100	del	897450.0983996	3.0	897450.9468553	897450.6097638	897450.6103093	120.0
1714.41650390625	0.0	100	3511125	116	100	270	1	0	897442.8053792	897442.8058825	80	897445.9845962	897445.9850676	40	897449.3176529	897449.3180928	100	del	897450.0983996	3.0	897450.9468553	897450.6097638	897450.6103093	120.0
1715.70849609375	0.0	120	3513771	116	100	270	1	0	897442.8053792	897442.8058825	80	897445.9845962	897445.9850676	40	897449.3176529	897449.3180928	100	del	897450.0983996	3.0	897450.9468553	897450.6097638	897450.6103093	120.0
1718.23046875	0.0	80	3518936	117	97	63	1	0	897453.131971	897453.1324626	80	897456.247744	897456.2482514	40	897459.6538959	897459.6543697	100	del	897460.9702832	3.0	897462.195157	897461.4843263	897461.4848389	120.0
1721.34619140625	0.0	40	3525317	117	97	63	1	0	897453.131971	897453.1324626	80	897456.247744	897456.2482514	40	897459.6538959	897459.6543697	100	del	897460.9702832	3.0	897462.195157	897461.4843263	897461.4848389	120.0
1724.75244140625	0.0	100	3532293	117	97	63	1	0	897453.131971	897453.1324626	80	897456.247744	897456.2482514	40	897459.6538959	897459.6543697	100	del	897460.9702832	3.0	897462.195157	897461.4843263	897461.4848389	120.0
1726.58251953125	0.0	120	3536041	117	97	63	1	0	897453.131971	897453.1324626	80	897456.247744	897456.2482514	40	897459.6538959	897459.6543697	100	del	897460.9702832	3.0	897462.195157	897461.4843263	897461.4848389	120.0
1729.66845703125	0.0	80	3542361	118	73	110	0	1	897464.5702774	897464.5707065	80	897467.7160035	897467.7163109	40	897471.0198608	897471.020398	100	del	897472.3561417	nan	nan	nan	nan	nan
1732.81396484375	0.0	40	3548803	118	73	110	0	1	897464.5702774	897464.5707065	80	897467.7160035	897467.7163109	40	897471.0198608	897471.020398	100	del	897472.3561417	nan	nan	nan	nan	nan
1736.1181640625	0.0	100	3555570	118	73	110	0	1	897464.5702774	897464.5707065	80	897467.7160035	897467.7163109	40	897471.0198608	897471.020398	100	del	897472.3561417	nan	nan	nan	nan	nan
1740.18115234375	0.0	80	3563891	119	83	270	1	1	897475.0833644	897475.0837728	80	897478.1369022	897478.1373186	40	897481.1628652	897481.1633369	100	del	897482.7464832	2.0	897484.6361041	897483.2577869	897483.2582112	120.0
1743.23486328125	0.0	40	3570145	119	83	270	1	1	897475.0833644	897475.0837728	80	897478.1369022	897478.1373186	40	897481.1628652	897481.1633369	100	del	897482.7464832	2.0	897484.6361041	897483.2577869	897483.2582112	120.0
1746.2607421875	0.0	100	3576342	119	83	270	1	1	897475.0833644	897475.0837728	80	897478.1369022	897478.1373186	40	897481.1628652	897481.1633369	100	del	897482.7464832	2.0	897484.6361041	897483.2577869	897483.2582112	120.0
1748.35546875	0.0	120	3580632	119	83	270	1	1	897475.0833644	897475.0837728	80	897478.1369022	897478.1373186	40	897481.1628652	897481.1633369	100	del	897482.7464832	2.0	897484.6361041	897483.2577869	897483.2582112	120.0
1751.99609375	0.0	80	3588088	120	83	63	1	1	897486.8982578	897486.8986556	80	897490.044415	897490.044808	40	897493.2276976	897493.2282204	100	del	897493.834499	2.0	897495.7070795	897494.3450741	897494.3454296	120.0
1755.14208984375	0.0	40	3594531	120	83	63	1	1	897486.8982578	897486.8986556	80	897490.044415	897490.044808	40	897493.2276976	897493.2282204	100	del	897493.834499	2.0	897495.7070795	897494.3450741	897494.3454296	120.0
1758.3251953125	0.0	100	3601050	120	83	63	1	1	897486.8982578	897486.8986556	80	897490.044415	897490.044808	40	897493.2276976	897493.2282204	100	del	897493.834499	2.0	897495.7070795	897494.3450741	897494.3454296	120.0
1759.4423828125	0.0	120	3603338	120	83	63	1	1	897486.8982578	897486.8986556	80	897490.044415	897490.044808	40	897493.2276976	897493.2282204	100	del	897493.834499	2.0	897495.7070795	897494.3450741	897494.3454296	120.0
1802.37060546875	0.0	80	3691255	121	73	4	1	1	897537.2740213	897537.2745511	80	897540.3677845	897540.3683139	40	897543.5802982	897543.5807904	100	del	897546.4586145	1.0	897547.3707108	897546.9690874	897546.9694312	120.0
1805.46435546875	0.0	40	3697591	121	73	4	1	1	897537.2740213	897537.2745511	80	897540.3677845	897540.3683139	40	897543.5802982	897543.5807904	100	del	897546.4586145	1.0	897547.3707108	897546.9690874	897546.9694312	120.0
1808.6767578125	0.0	100	3704170	121	73	4	1	1	897537.2740213	897537.2745511	80	897540.3677845	897540.3683139	40	897543.5802982	897543.5807904	100	del	897546.4586145	1.0	897547.3707108	897546.9690874	897546.9694312	120.0
1812.0654296875	0.0	120	3711110	121	73	4	1	1	897537.2740213	897537.2745511	80	897540.3677845	897540.3683139	40	897543.5802982	897543.5807904	100	del	897546.4586145	1.0	897547.3707108	897546.9690874	897546.9694312	120.0
1814.82958984375	0.0	80	3716771	122	97	180	1	0	897549.7332356	897549.7336905	80	897552.8425332	897552.8430421	40	897556.1894788	897556.1899475	100	del	897556.8918799	2.0	897557.7462036	897557.4063277	897557.4068301	120.0
1817.9384765625	0.0	40	3723138	122	97	180	1	0	897549.7332356	897549.7336905	80	897552.8425332	897552.8430421	40	897556.1894788	897556.1899475	100	del	897556.8918799	2.0	897557.7462036	897557.4063277	897557.4068301	120.0
1821.28564453125	0.0	100	3729993	122	97	180	1	0	897549.7332356	897549.7336905	80	897552.8425332	897552.8430421	40	897556.1894788	897556.1899475	100	del	897556.8918799	2.0	897557.7462036	897557.4063277	897557.4068301	120.0
1822.50244140625	0.0	120	3732485	122	97	180	1	0	897549.7332356	897549.7336905	80	897552.8425332	897552.8430421	40	897556.1894788	897556.1899475	100	del	897556.8918799	2.0	897557.7462036	897557.4063277	897557.4068301	120.0
1825.0732421875	0.0	80	3737750	123	100	180	1	1	897559.9775287	897559.9777739	80	897563.2016788	897563.2021184	40	897566.3013264	897566.3017873	100	del	897567.4263271	2.0	897568.9306475	897567.9367122	897567.9372652	120.0
1828.29736328125	0.0	40	3744353	123	100	180	1	1	897559.9775287	897559.9777739	80	897563.2016788	897563.2021184	40	897566.3013264	897566.3017873	100	del	897567.4263271	2.0	897568.9306475	897567.9367122	897567.9372652	120.0
1831.39697265625	0.0	100	3750701	123	100	180	1	1	897559.9775287	897559.9777739	80	897563.2016788	897563.2021184	40	897566.3013264	897566.3017873	100	del	897567.4263271	2.0	897568.9306475	897567.9367122	897567.9372652	120.0
1833.03271484375	0.0	120	3754051	123	100	180	1	1	897559.9775287	897559.9777739	80	897563.2016788	897563.2021184	40	897566.3013264	897566.3017873	100	del	897567.4263271	2.0	897568.9306475	897567.9367122	897567.9372652	120.0
1836.13818359375	0.0	80	3760411	124	77	4	1	0	897571.0425259	897571.0430591	80	897574.3587559	897574.3592626	40	897577.5065176	897577.5070312	100	del	897578.2748717	1.0	897580.6581235	897578.7854845	897578.7858114	120.0
1839.45458984375	0.0	40	3767203	124	77	4	1	0	897571.0425259	897571.0430591	80	897574.3587559	897574.3592626	40	897577.5065176	897577.5070312	100	del	897578.2748717	1.0	897580.6581235	897578.7854845	897578.7858114	120.0
1842.60205078125	0.0	100	3773649	124	77	4	1	0	897571.0425259	897571.0430591	80	897574.3587559	897574.3592626	40	897577.5065176	897577.5070312	100	del	897578.2748717	1.0	897580.6581235	897578.7854845	897578.7858114	120.0
1843.880859375	0.0	120	3776268	124	77	4	1	0	897571.0425259	897571.0430591	80	897574.3587559	897574.3592626	40	897577.5065176	897577.5070312	100	del	897578.2748717	1.0	897580.6581235	897578.7854845	897578.7858114	120.0
1848.0498046875	0.0	80	3784806	125	53	270	1	0	897582.9546156	897582.9551046	80	897586.4344955	897586.4349981	40	897589.804798	897589.8053309	100	del	897592.7547337	3.0	897593.5462676	897593.266035	897593.2664673	120.0
1851.52978515625	0.0	40	3791933	125	53	270	1	0	897582.9546156	897582.9551046	80	897586.4344955	897586.4349981	40	897589.804798	897589.8053309	100	del	897592.7547337	3.0	897593.5462676	897593.266035	897593.2664673	120.0
1854.89990234375	0.0	100	3798835	125	53	270	1	0	897582.9546156	897582.9551046	80	897586.4344955	897586.4349981	40	897589.804798	897589.8053309	100	del	897592.7547337	3.0	897593.5462676	897593.266035	897593.2664673	120.0
1858.361328125	0.0	120	3805924	125	53	270	1	0	897582.9546156	897582.9551046	80	897586.4344955	897586.4349981	40	897589.804798	897589.8053309	100	del	897592.7547337	3.0	897593.5462676	897593.266035	897593.2664673	120.0
1860.9951171875	0.0	80	3811318	126	67	110	0	0	897595.9000135	897595.9005166	80	897599.3859391	897599.3863332	40	897602.7865101	897602.7870213	100	del	897603.9226276	nan	nan	nan	nan	nan
1864.48095703125	0.0	40	3818457	126	67	110	0	0	897595.9000135	897595.9005166	80	897599.3859391	897599.3863332	40	897602.7865101	897602.7870213	100	del	897603.9226276	nan	nan	nan	nan	nan
1867.88134765625	0.0	100	3825421	126	67	110	0	0	897595.9000135	897595.9005166	80	897599.3859391	897599.3863332	40	897602.7865101	897602.7870213	100	del	897603.9226276	nan	nan	nan	nan	nan
1871.83935546875	0.0	80	3833527	127	83	180	1	0	897606.7443642	897606.7447669	80	897610.2261819	897610.2266527	40	897613.2687724	897613.2692573	100	del	897613.8425205	2.0	897615.1464233	897614.3523992	897614.3527283	120.0
1875.32080078125	0.0	40	3840657	127	83	180	1	0	897606.7443642	897606.7447669	80	897610.2261819	897610.2266527	40	897613.2687724	897613.2692573	100	del	897613.8425205	2.0	897615.1464233	897614.3523992	897614.3527283	120.0
1878.36328125	0.0	100	3846888	127	83	180	1	0	897606.7443642	897606.7447669	80	897610.2261819	897610.2266527	40	897613.2687724	897613.2692573	100	del	897613.8425205	2.0	897615.1464233	897614.3523992	897614.3527283	120.0
1879.44677734375	0.0	120	3849107	127	83	180	1	0	897606.7443642	897606.7447669	80	897610.2261819	897610.2266527	40	897613.2687724	897613.2692573	100	del	897613.8425205	2.0	897615.1464233	897614.3523992	897614.3527283	120.0
1882.388671875	0.0	80	3855132	128	70	270	1	0	897617.2941076	897617.2945293	80	897620.7948489	897620.7953169	40	897624.1946576	897624.1951724	100	del	897625.6022618	2.0	897627.1459004	897626.1143447	897626.1147997	120.0
1885.88916015625	0.0	40	3862301	128	70	270	1	0	897617.2941076	897617.2945293	80	897620.7948489	897620.7953169	40	897624.1946576	897624.1951724	100	del	897625.6022618	2.0	897627.1459004	897626.1143447	897626.1147997	120.0
1889.2890625	0.0	100	3869264	128	70	270	1	0	897617.2941076	897617.2945293	80	897620.7948489	897620.7953169	40	897624.1946576	897624.1951724	100	del	897625.6022618	2.0	897627.1459004	897626.1143447	897626.1147997	120.0
1891.20849609375	0.0	120	3873195	128	70	270	1	0	897617.2941076	897617.2945293	80	897620.7948489	897620.7953169	40	897624.1946576	897624.1951724	100	del	897625.6022618	2.0	897627.1459004	897626.1143447	897626.1147997	120.0
1894.49267578125	0.0	80	3879921	129	57	63	1	1	897629.3985266	897629.398947	80	897632.7465108	897632.746936	40	897635.9679374	897635.9683865	100	del	897636.85029	3.0	897637.75499	897637.3607937	897637.3611406	120.0
1897.8408203125	0.0	40	3886778	129	57	63	1	1	897629.3985266	897629.398947	80	897632.7465108	897632.746936	40	897635.9679374	897635.9683865	100	del	897636.85029	3.0	897637.75499	897637.3607937	897637.3611406	120.0
1901.06201171875	0.0	100	3893375	129	57	63	1	1	897629.3985266	897629.398947	80	897632.7465108	897632.746936	40	897635.9679374	897635.9683865	100	del	897636.85029	3.0	897637.75499	897637.3607937	897637.3611406	120.0
1902.45458984375	0.0	120	3896227	129	57	63	1	1	897629.3985266	897629.398947	80	897632.7465108	897632.746936	40	897635.9679374	897635.9683865	100	del	897636.85029	3.0	897637.75499	897637.3607937	897637.3611406	120.0
1905.05322265625	0.0	80	3901549	130	63	230	0	1	897639.9591766	897639.9596914	80	897643.0743092	897643.0747637	40	897646.2801307	897646.2805826	100	del	897647.098757	nan	nan	nan	nan	nan
1908.16796875	0.0	40	3907928	130	63	230	0	1	897639.9591766	897639.9596914	80	897643.0743092	897643.0747637	40	897646.2801307	897646.2805826	100	del	897647.098757	nan	nan	nan	nan	nan
1911.3740234375	0.0	100	3914494	130	63	230	0	1	897639.9591766	897639.9596914	80	897643.0743092	897643.0747637	40	897646.2801307	897646.2805826	100	del	897647.098757	nan	nan	nan	nan	nan
1914.72265625	0.0	80	3921352	131	60	450	0	1	897649.6287834	897649.6292761	80	897652.8730017	897652.8734514	40	897656.0535075	897656.054106	100	del	897656.7218211	nan	nan	nan	nan	nan
1917.966796875	0.0	40	3927996	131	60	450	0	1	897649.6287834	897649.6292761	80	897652.8730017	897652.8734514	40	897656.0535075	897656.054106	100	del	897656.7218211	nan	nan	nan	nan	nan
1921.14697265625	0.0	100	3934509	131	60	450	0	1	897649.6287834	897649.6292761	80	897652.8730017	897652.8734514	40	897656.0535075	897656.054106	100	del	897656.7218211	nan	nan	nan	nan	nan
1924.822265625	0.0	80	3942036	132	97	450	0	1	897659.7289883	897659.7294675	80	897663.0142246	897663.0146174	40	897666.4511486	897666.4516848	100	del	897666.8820503	nan	nan	nan	nan	nan
1928.107421875	0.0	40	3948764	132	97	450	0	1	897659.7289883	897659.7294675	80	897663.0142246	897663.0146174	40	897666.4511486	897666.4516848	100	del	897666.8820503	nan	nan	nan	nan	nan
1931.54443359375	0.0	100	3955803	132	97	450	0	1	897659.7289883	897659.7294675	80	897663.0142246	897663.0146174	40	897666.4511486	897666.4516848	100	del	897666.8820503	nan	nan	nan	nan	nan
1934.69775390625	0.0	80	3962261	133	87	1190	0	0	897669.6045878	897669.6050572	80	897672.8431263	897672.8436101	40	897676.270327	897676.2708987	100	del	897677.3707989	nan	nan	nan	nan	nan
1937.93603515625	0.0	40	3968893	133	87	1190	0	0	897669.6045878	897669.6050572	80	897672.8431263	897672.8436101	40	897676.270327	897676.2708987	100	del	897677.3707989	nan	nan	nan	nan	nan
1941.36328125	0.0	100	3975912	133	87	1190	0	0	897669.6045878	897669.6050572	80	897672.8431263	897672.8436101	40	897676.270327	897676.2708987	100	del	897677.3707989	nan	nan	nan	nan	nan
1945.4775390625	0.0	80	3984338	134	90	63	1	1	897680.3847523	897680.3852517	80	897683.6544666	897683.6549695	40	897687.1302955	897687.1308937	100	del	897688.1875776	2.0	897689.1225315	897688.6974023	897688.6978379	120.0
1948.74755859375	0.0	40	3991035	134	90	63	1	1	897680.3847523	897680.3852517	80	897683.6544666	897683.6549695	40	897687.1302955	897687.1308937	100	del	897688.1875776	2.0	897689.1225315	897688.6974023	897688.6978379	120.0
1952.22314453125	0.0	100	3998153	134	90	63	1	1	897680.3847523	897680.3852517	80	897683.6544666	897683.6549695	40	897687.1302955	897687.1308937	100	del	897688.1875776	2.0	897689.1225315	897688.6974023	897688.6978379	120.0
1953.7900390625	0.0	120	4001362	134	90	63	1	1	897680.3847523	897680.3852517	80	897683.6544666	897683.6549695	40	897687.1302955	897687.1308937	100	del	897688.1875776	2.0	897689.1225315	897688.6974023	897688.6978379	120.0
1956.59814453125	0.0	80	4007113	135	60	270	1	0	897691.505417	897691.5057761	80	897694.7964892	897694.7970887	40	897698.2942672	897698.2948187	100	del	897699.0982762	3.0	897701.2740816	897699.6090986	897699.6096118	120.0
1959.88916015625	0.0	40	4013853	135	60	270	1	0	897691.505417	897691.5057761	80	897694.7964892	897694.7970887	40	897698.2942672	897698.2948187	100	del	897699.0982762	3.0	897701.2740816	897699.6090986	897699.6096118	120.0
1963.38671875	0.0	100	4021016	135	60	270	1	0	897691.505417	897691.5057761	80	897694.7964892	897694.7970887	40	897698.2942672	897698.2948187	100	del	897699.0982762	3.0	897701.2740816	897699.6090986	897699.6096118	120.0
1964.70166015625	0.0	120	4023709	135	60	270	1	0	897691.505417	897691.5057761	80	897694.7964892	897694.7970887	40	897698.2942672	897698.2948187	100	del	897699.0982762	3.0	897701.2740816	897699.6090986	897699.6096118	120.0
1968.794921875	0.0	80	4032092	136	90	1190	0	0	897703.7023854	897703.7029408	80	897707.1899399	897707.1904308	40	897710.5258813	897710.5264087	100	del	897711.2902759	nan	nan	nan	nan	nan
1972.2822265625	0.0	40	4039234	136	90	1190	0	0	897703.7023854	897703.7029408	80	897707.1899399	897707.1904308	40	897710.5258813	897710.5264087	100	del	897711.2902759	nan	nan	nan	nan	nan
1975.6181640625	0.0	100	4046066	136	90	1190	0	0	897703.7023854	897703.7029408	80	897707.1899399	897707.1904308	40	897710.5258813	897710.5264087	100	del	897711.2902759	nan	nan	nan	nan	nan
1979.08984375	0.0	80	4053176	137	50	450	0	0	897713.9975674	897713.998029	80	897717.2421952	897717.2425115	40	897720.7109744	897720.7116586	100	del	897722.1221207	nan	nan	nan	nan	nan
1982.333984375	0.0	40	4059820	137	50	450	0	0	897713.9975674	897713.998029	80	897717.2421952	897717.2425115	40	897720.7109744	897720.7116586	100	del	897722.1221207	nan	nan	nan	nan	nan
1985.80322265625	0.0	100	4066925	137	50	450	0	0	897713.9975674	897713.998029	80	897717.2421952	897717.2425115	40	897720.7109744	897720.7116586	100	del	897722.1221207	nan	nan	nan	nan	nan
1989.7392578125	0.0	80	4074986	138	80	20	0	1	897724.647354	897724.6478274	80	897727.7331076	897727.7335784	40	897730.9828453	897730.9833248	100	del	897731.9556329	nan	nan	nan	nan	nan
1992.82470703125	0.0	40	4081305	138	80	20	0	1	897724.647354	897724.6478274	80	897727.7331076	897727.7335784	40	897730.9828453	897730.9833248	100	del	897731.9556329	nan	nan	nan	nan	nan
1996.07470703125	0.0	100	4087961	138	80	20	0	1	897724.647354	897724.6478274	80	897727.7331076	897727.7335784	40	897730.9828453	897730.9833248	100	del	897731.9556329	nan	nan	nan	nan	nan
1999.8369140625	0.0	80	4095666	139	60	230	0	0	897734.7454445	897734.7459184	80	897737.7827355	897737.7832412	40	897741.1249819	897741.1256995	100	del	897741.8105806	nan	nan	nan	nan	nan
2002.87451171875	0.0	40	4101887	139	60	230	0	0	897734.7454445	897734.7459184	80	897737.7827355	897737.7832412	40	897741.1249819	897741.1256995	100	del	897741.8105806	nan	nan	nan	nan	nan
2006.216796875	0.0	100	4108732	139	60	230	0	0	897734.7454445	897734.7459184	80	897737.7827355	897737.7832412	40	897741.1249819	897741.1256995	100	del	897741.8105806	nan	nan	nan	nan	nan
2009.86181640625	0.0	80	4116197	140	60	63	1	1	897744.7704411	897744.7710431	80	897747.832948	897747.8334472	40	897751.0655362	897751.065956	100	del	897751.9153539	2.0	897753.7715818	897752.4271321	897752.4275582	120.0
2012.92431640625	0.0	40	4122469	140	60	63	1	1	897744.7704411	897744.7710431	80	897747.832948	897747.8334472	40	897751.0655362	897751.065956	100	del	897751.9153539	2.0	897753.7715818	897752.4271321	897752.4275582	120.0
2016.15673828125	0.0	100	4129089	140	60	63	1	1	897744.7704411	897744.7710431	80	897747.832948	897747.8334472	40	897751.0655362	897751.065956	100	del	897751.9153539	2.0	897753.7715818	897752.4271321	897752.4275582	120.0
2017.51806640625	0.0	120	4131877	140	60	63	1	1	897744.7704411	897744.7710431	80	897747.832948	897747.8334472	40	897751.0655362	897751.065956	100	del	897751.9153539	2.0	897753.7715818	897752.4271321	897752.4275582	120.0
2034.166015625	0.0	80	4165972	141	100	63	1	0	897769.0751944	897769.0757128	80	897772.5754286	897772.5759234	40	897775.8935643	897775.8940447	100	del	897776.5793734	3.0	897777.490103	897777.0930636	897777.0936411	120.0
2037.666015625	0.0	40	4173140	141	100	63	1	0	897769.0751944	897769.0757128	80	897772.5754286	897772.5759234	40	897775.8935643	897775.8940447	100	del	897776.5793734	3.0	897777.490103	897777.0930636	897777.0936411	120.0
