onset	duration	value	sample	trial_idx	val	del	is_cued	rev_opts	del_pres_displaytime	del_pres_triggertime	del_pres_triggercode	val_pres_displaytime	val_pres_triggertime	val_pres_triggercode	choice_displaytime	choice_triggertime	choice_triggercode	choice	choice_time	viv	viv_time	viv_displaytime	viv_triggertime	viv_triggercode
29.7822265625	0.0	80	60994	1	93	60	0	1	1457256.3197232	1457256.3203968	80	1457259.6346024	1457259.6350727	40	1457263.0955412	1457263.0961978	100	del	1457264.7406948	nan	nan	nan	nan	nan
33.0966796875	0.0	40	67782	1	93	60	0	1	1457256.3197232	1457256.3203968	80	1457259.6346024	1457259.6350727	40	1457263.0955412	1457263.0961978	100	del	1457264.7406948	nan	nan	nan	nan	nan
36.5576171875	0.0	100	74870	1	93	60	0	1	1457256.3197232	1457256.3203968	80	1457259.6346024	1457259.6350727	40	1457263.0955412	1457263.0961978	100	del	1457264.7406948	nan	nan	nan	nan	nan
41.2197265625	0.0	80	84418	2	50	120	1	0	1457267.7575436	1457267.7586657	80	1457271.2324563	1457271.2334681	40	1457274.4534483	1457274.4547763	100	del	1457276.1872862	2.0	1457280.5073312	1457276.7066673	1457276.7072325	120.0
44.6943359375	0.0	40	91534	2	50	120	1	0	1457267.7575436	1457267.7586657	80	1457271.2324563	1457271.2334681	40	1457274.4534483	1457274.4547763	100	del	1457276.1872862	2.0	1457280.5073312	1457276.7066673	1457276.7072325	120.0
47.9150390625	0.0	100	98130	2	50	120	1	0	1457267.7575436	1457267.7586657	80	1457271.2324563	1457271.2334681	40	1457274.4534483	1457274.4547763	100	del	1457276.1872862	2.0	1457280.5073312	1457276.7066673	1457276.7072325	120.0
50.16845703125	0.0	120	102745	2	50	120	1	0	1457267.7575436	1457267.7586657	80	1457271.2324563	1457271.2334681	40	1457274.4534483	1457274.4547763	100	del	1457276.1872862	2.0	1457280.5073312	1457276.7066673	1457276.7072325	120.0
55.986328125	0.0	80	114660	3	90	22	1	1	1457282.5247334	1457282.5252245	80	1457285.8029679	1457285.8034023	40	1457288.9199513	1457288.9204221	100	imm	1457289.8274457	3.0	1457291.420244	1457290.3415452	1457290.3420355	120.0
59.2646484375	0.0	40	121374	3	90	22	1	1	1457282.5247334	1457282.5252245	80	1457285.8029679	1457285.8034023	40	1457288.9199513	1457288.9204221	100	imm	1457289.8274457	3.0	1457291.420244	1457290.3415452	1457290.3420355	120.0
62.38134765625	0.0	100	127757	3	90	22	1	1	1457282.5247334	1457282.5252245	80	1457285.8029679	1457285.8034023	40	1457288.9199513	1457288.9204221	100	imm	1457289.8274457	3.0	1457291.420244	1457290.3415452	1457290.3420355	120.0
63.802734375	0.0	120	130668	3	90	22	1	1	1457282.5247334	1457282.5252245	80	1457285.8029679	1457285.8034023	40	1457288.9199513	1457288.9204221	100	imm	1457289.8274457	3.0	1457291.420244	1457290.3415452	1457290.3420355	120.0
67.00634765625	0.0	80	137229	4	60	190	1	1	1457293.5453388	1457293.5458016	80	1457296.7155947	1457296.7160642	40	1457299.7776514	1457299.7781909	100	del	1457301.6441191	3.0	1457304.781256	1457302.1578548	1457302.1583442	120.0
70.1767578125	0.0	40	143722	4	60	190	1	1	1457293.5453388	1457293.5458016	80	1457296.7155947	1457296.7160642	40	1457299.7776514	1457299.7781909	100	del	1457301.6441191	3.0	1457304.781256	1457302.1578548	1457302.1583442	120.0
73.23876953125	0.0	100	149993	4	60	190	1	1	1457293.5453388	1457293.5458016	80	1457296.7155947	1457296.7160642	40	1457299.7776514	1457299.7781909	100	del	1457301.6441191	3.0	1457304.781256	1457302.1578548	1457302.1583442	120.0
75.61865234375	0.0	120	154867	4	60	190	1	1	1457293.5453388	1457293.5458016	80	1457296.7155947	1457296.7160642	40	1457299.7776514	1457299.7781909	100	del	1457301.6441191	3.0	1457304.781256	1457302.1578548	1457302.1583442	120.0
80.63134765625	0.0	80	165133	5	97	22	1	0	1457307.1705585	1457307.1710699	80	1457310.5525423	1457310.5530104	40	1457313.8381617	1457313.8386498	100	del	1457315.0122734	3.0	1457318.7636326	1457315.5253536	1457315.5257272	120.0
84.01318359375	0.0	40	172059	5	97	22	1	0	1457307.1705585	1457307.1710699	80	1457310.5525423	1457310.5530104	40	1457313.8381617	1457313.8386498	100	del	1457315.0122734	3.0	1457318.7636326	1457315.5253536	1457315.5257272	120.0
87.298828125	0.0	100	178788	5	97	22	1	0	1457307.1705585	1457307.1710699	80	1457310.5525423	1457310.5530104	40	1457313.8381617	1457313.8386498	100	del	1457315.0122734	3.0	1457318.7636326	1457315.5253536	1457315.5257272	120.0
88.98583984375	0.0	120	182243	5	97	22	1	0	1457307.1705585	1457307.1710699	80	1457310.5525423	1457310.5530104	40	1457313.8381617	1457313.8386498	100	del	1457315.0122734	3.0	1457318.7636326	1457315.5253536	1457315.5257272	120.0
94.408203125	0.0	80	193348	6	83	300	1	0	1457320.9478043	1457320.9482666	80	1457324.3718783	1457324.372372	40	1457327.6609252	1457327.6614528	100	del	1457329.9879715	3.0	1457331.6038533	1457330.4982158	1457330.4985681	120.0
97.83251953125	0.0	40	200361	6	83	300	1	0	1457320.9478043	1457320.9482666	80	1457324.3718783	1457324.372372	40	1457327.6609252	1457327.6614528	100	del	1457329.9879715	3.0	1457331.6038533	1457330.4982158	1457330.4985681	120.0
101.12109375	0.0	100	207096	6	83	300	1	0	1457320.9478043	1457320.9482666	80	1457324.3718783	1457324.372372	40	1457327.6609252	1457327.6614528	100	del	1457329.9879715	3.0	1457331.6038533	1457330.4982158	1457330.4985681	120.0
103.95849609375	0.0	120	212907	6	83	300	1	0	1457320.9478043	1457320.9482666	80	1457324.3718783	1457324.372372	40	1457327.6609252	1457327.6614528	100	del	1457329.9879715	3.0	1457331.6038533	1457330.4982158	1457330.4985681	120.0
107.55859375	0.0	80	220280	7	87	460	0	0	1457334.0985092	1457334.0990051	80	1457337.551139	1457337.5514752	40	1457340.7423229	1457340.7427658	100	imm	1457342.4840346	nan	nan	nan	nan	nan
111.01123046875	0.0	40	227351	7	87	460	0	0	1457334.0985092	1457334.0990051	80	1457337.551139	1457337.5514752	40	1457340.7423229	1457340.7427658	100	imm	1457342.4840346	nan	nan	nan	nan	nan
114.2021484375	0.0	100	233886	7	87	460	0	0	1457334.0985092	1457334.0990051	80	1457337.551139	1457337.5514752	40	1457340.7423229	1457340.7427658	100	imm	1457342.4840346	nan	nan	nan	nan	nan
118.73681640625	0.0	80	243173	8	80	240	0	0	1457345.2765501	1457345.2772776	80	1457348.4579615	1457348.4584633	40	1457351.7827641	1457351.7832497	100	imm	1457352.6051763	nan	nan	nan	nan	nan
121.91748046875	0.0	40	249687	8	80	240	0	0	1457345.2765501	1457345.2772776	80	1457348.4579615	1457348.4584633	40	1457351.7827641	1457351.7832497	100	imm	1457352.6051763	nan	nan	nan	nan	nan
125.2421875	0.0	100	256496	8	80	240	0	0	1457345.2765501	1457345.2772776	80	1457348.4579615	1457348.4584633	40	1457351.7827641	1457351.7832497	100	imm	1457352.6051763	nan	nan	nan	nan	nan
128.9814453125	0.0	80	264154	9	60	120	1	0	1457355.5217996	1457355.522363	80	1457358.9025455	1457358.9030128	40	1457361.9784234	1457361.9788999	100	del	1457362.9313787	3.0	1457364.7156477	1457363.4456314	1457363.4461639	120.0
132.36181640625	0.0	40	271077	9	60	120	1	0	1457355.5217996	1457355.522363	80	1457358.9025455	1457358.9030128	40	1457361.9784234	1457361.9788999	100	del	1457362.9313787	3.0	1457364.7156477	1457363.4456314	1457363.4461639	120.0
135.43798828125	0.0	100	277377	9	60	120	1	0	1457355.5217996	1457355.522363	80	1457358.9025455	1457358.9030128	40	1457361.9784234	1457361.9788999	100	del	1457362.9313787	3.0	1457364.7156477	1457363.4456314	1457363.4461639	120.0
136.90478515625	0.0	120	280381	9	60	120	1	0	1457355.5217996	1457355.522363	80	1457358.9025455	1457358.9030128	40	1457361.9784234	1457361.9788999	100	del	1457362.9313787	3.0	1457364.7156477	1457363.4456314	1457363.4461639	120.0
140.60205078125	0.0	80	287953	10	60	160	0	1	1457367.1426898	1457367.1433082	80	1457370.1641186	1457370.1646047	40	1457373.3845082	1457373.3850392	100	imm	1457374.8036535	nan	nan	nan	nan	nan
143.623046875	0.0	40	294140	10	60	160	0	1	1457367.1426898	1457367.1433082	80	1457370.1641186	1457370.1646047	40	1457373.3845082	1457373.3850392	100	imm	1457374.8036535	nan	nan	nan	nan	nan
146.84375	0.0	100	300736	10	60	160	0	1	1457367.1426898	1457367.1433082	80	1457370.1641186	1457370.1646047	40	1457373.3845082	1457373.3850392	100	imm	1457374.8036535	nan	nan	nan	nan	nan
151.14599609375	0.0	80	309547	11	100	700	1	1	1457377.6870152	1457377.6874807	80	1457381.0854396	1457381.0859713	40	1457384.2825965	1457384.2830588	100	imm	1457385.3153762	3.0	1457387.4518141	1457385.825535	1457385.8259219	120.0
154.54443359375	0.0	40	316507	11	100	700	1	1	1457377.6870152	1457377.6874807	80	1457381.0854396	1457381.0859713	40	1457384.2825965	1457384.2830588	100	imm	1457385.3153762	3.0	1457387.4518141	1457385.825535	1457385.8259219	120.0
157.7412109375	0.0	100	323054	11	100	700	1	1	1457377.6870152	1457377.6874807	80	1457381.0854396	1457381.0859713	40	1457384.2825965	1457384.2830588	100	imm	1457385.3153762	3.0	1457387.4518141	1457385.825535	1457385.8259219	120.0
159.2841796875	0.0	120	326214	11	100	700	1	1	1457377.6870152	1457377.6874807	80	1457381.0854396	1457381.0859713	40	1457384.2825965	1457384.2830588	100	imm	1457385.3153762	3.0	1457387.4518141	1457385.825535	1457385.8259219	120.0
163.29833984375	0.0	80	334435	12	57	460	0	1	1457389.8397178	1457389.8401764	80	1457393.2943972	1457393.2949234	40	1457396.424583	1457396.4248181	100	imm	1457397.8918043	nan	nan	nan	nan	nan
166.7529296875	0.0	40	341510	12	57	460	0	1	1457389.8397178	1457389.8401764	80	1457393.2943972	1457393.2949234	40	1457396.424583	1457396.4248181	100	imm	1457397.8918043	nan	nan	nan	nan	nan
169.88330078125	0.0	100	347921	12	57	460	0	1	1457389.8397178	1457389.8401764	80	1457393.2943972	1457393.2949234	40	1457396.424583	1457396.4248181	100	imm	1457397.8918043	nan	nan	nan	nan	nan
173.9365234375	0.0	80	356222	13	83	22	1	0	1457400.4780268	1457400.4785817	80	1457403.5980957	1457403.5985561	40	1457406.7859227	1457406.7863813	100	del	1457407.8113969	2.0	1457410.5556985	1457408.3253756	1457408.3258542	120.0
177.05615234375	0.0	40	362611	13	83	22	1	0	1457400.4780268	1457400.4785817	80	1457403.5980957	1457403.5985561	40	1457406.7859227	1457406.7863813	100	del	1457407.8113969	2.0	1457410.5556985	1457408.3253756	1457408.3258542	120.0
180.244140625	0.0	100	369140	13	83	22	1	0	1457400.4780268	1457400.4785817	80	1457403.5980957	1457403.5985561	40	1457406.7859227	1457406.7863813	100	del	1457407.8113969	2.0	1457410.5556985	1457408.3253756	1457408.3258542	120.0
181.78369140625	0.0	120	372293	13	83	22	1	0	1457400.4780268	1457400.4785817	80	1457403.5980957	1457403.5985561	40	1457406.7859227	1457406.7863813	100	del	1457407.8113969	2.0	1457410.5556985	1457408.3253756	1457408.3258542	120.0
186.1728515625	0.0	80	381282	14	63	120	1	1	1457412.7149705	1457412.7154519	80	1457416.1859198	1457416.1864395	40	1457419.2258139	1457419.2262758	100	del	1457421.6532631	4.0	1457423.8762629	1457422.1651622	1457422.1655911	120.0
189.6435546875	0.0	40	388390	14	63	120	1	1	1457412.7149705	1457412.7154519	80	1457416.1859198	1457416.1864395	40	1457419.2258139	1457419.2262758	100	del	1457421.6532631	4.0	1457423.8762629	1457422.1651622	1457422.1655911	120.0
192.68359375	0.0	100	394616	14	63	120	1	1	1457412.7149705	1457412.7154519	80	1457416.1859198	1457416.1864395	40	1457419.2258139	1457419.2262758	100	del	1457421.6532631	4.0	1457423.8762629	1457422.1651622	1457422.1655911	120.0
195.623046875	0.0	120	400636	14	63	120	1	1	1457412.7149705	1457412.7154519	80	1457416.1859198	1457416.1864395	40	1457419.2258139	1457419.2262758	100	del	1457421.6532631	4.0	1457423.8762629	1457422.1651622	1457422.1655911	120.0
199.646484375	0.0	80	408876	15	87	22	1	0	1457426.18908	1457426.1895589	80	1457429.2783928	1457429.2788102	40	1457432.7109611	1457432.7114614	100	del	1457433.7238343	3.0	1457436.1801656	1457434.2375708	1457434.2380772	120.0
202.73583984375	0.0	40	415203	15	87	22	1	0	1457426.18908	1457426.1895589	80	1457429.2783928	1457429.2788102	40	1457432.7109611	1457432.7114614	100	del	1457433.7238343	3.0	1457436.1801656	1457434.2375708	1457434.2380772	120.0
206.16845703125	0.0	100	422233	15	87	22	1	0	1457426.18908	1457426.1895589	80	1457429.2783928	1457429.2788102	40	1457432.7109611	1457432.7114614	100	del	1457433.7238343	3.0	1457436.1801656	1457434.2375708	1457434.2380772	120.0
207.69482421875	0.0	120	425359	15	87	22	1	0	1457426.18908	1457426.1895589	80	1457429.2783928	1457429.2788102	40	1457432.7109611	1457432.7114614	100	del	1457433.7238343	3.0	1457436.1801656	1457434.2375708	1457434.2380772	120.0
211.7373046875	0.0	80	433638	16	57	700	1	0	1457438.2800475	1457438.2806667	80	1457441.5394658	1457441.5399431	40	1457445.0530036	1457445.0535639	100	imm	1457445.9079652	3.0	1457448.6676385	1457446.4175695	1457446.4178906	120.0
214.99658203125	0.0	40	440313	16	57	700	1	0	1457438.2800475	1457438.2806667	80	1457441.5394658	1457441.5399431	40	1457445.0530036	1457445.0535639	100	imm	1457445.9079652	3.0	1457448.6676385	1457446.4175695	1457446.4178906	120.0
218.51025390625	0.0	100	447509	16	57	700	1	0	1457438.2800475	1457438.2806667	80	1457441.5394658	1457441.5399431	40	1457445.0530036	1457445.0535639	100	imm	1457445.9079652	3.0	1457448.6676385	1457446.4175695	1457446.4178906	120.0
219.87451171875	0.0	120	450303	16	57	700	1	0	1457438.2800475	1457438.2806667	80	1457441.5394658	1457441.5399431	40	1457445.0530036	1457445.0535639	100	imm	1457445.9079652	3.0	1457448.6676385	1457446.4175695	1457446.4178906	120.0
224.318359375	0.0	80	459404	17	63	190	1	0	1457450.861667	1457450.8621495	80	1457453.892694	1457453.8931588	40	1457457.0133738	1457457.0138871	100	del	1457457.8694397	3.0	1457459.6280863	1457458.3822371	1457458.3826935	120.0
227.349609375	0.0	40	465612	17	63	190	1	0	1457450.861667	1457450.8621495	80	1457453.892694	1457453.8931588	40	1457457.0133738	1457457.0138871	100	del	1457457.8694397	3.0	1457459.6280863	1457458.3822371	1457458.3826935	120.0
230.47021484375	0.0	100	472003	17	63	190	1	0	1457450.861667	1457450.8621495	80	1457453.892694	1457453.8931588	40	1457457.0133738	1457457.0138871	100	del	1457457.8694397	3.0	1457459.6280863	1457458.3822371	1457458.3826935	120.0
231.8388671875	0.0	120	474806	17	63	190	1	0	1457450.861667	1457450.8621495	80	1457453.892694	1457453.8931588	40	1457457.0133738	1457457.0138871	100	del	1457457.8694397	3.0	1457459.6280863	1457458.3822371	1457458.3826935	120.0
235.296875	0.0	80	481888	18	77	190	1	1	1457461.8401736	1457461.8404721	80	1457465.0143069	1457465.0147309	40	1457468.14214	1457468.1426427	100	del	1457469.0840147	3.0	1457470.7157209	1457469.5951579	1457469.5955558	120.0
238.470703125	0.0	40	488388	18	77	190	1	1	1457461.8401736	1457461.8404721	80	1457465.0143069	1457465.0147309	40	1457468.14214	1457468.1426427	100	del	1457469.0840147	3.0	1457470.7157209	1457469.5951579	1457469.5955558	120.0
241.5986328125	0.0	100	494794	18	77	190	1	1	1457461.8401736	1457461.8404721	80	1457465.0143069	1457465.0147309	40	1457468.14214	1457468.1426427	100	del	1457469.0840147	3.0	1457470.7157209	1457469.5951579	1457469.5955558	120.0
243.05126953125	0.0	120	497769	18	77	190	1	1	1457461.8401736	1457461.8404721	80	1457465.0143069	1457465.0147309	40	1457468.14214	1457468.1426427	100	del	1457469.0840147	3.0	1457470.7157209	1457469.5951579	1457469.5955558	120.0
246.65576171875	0.0	80	505151	19	57	190	1	0	1457473.1994493	1457473.1999675	80	1457476.5491099	1457476.5496039	40	1457480.0433243	1457480.0437899	100	del	1457481.3955903	4.0	1457482.6356405	1457481.9051668	1457481.9054561	120.0
250.00537109375	0.0	40	512011	19	57	190	1	0	1457473.1994493	1457473.1999675	80	1457476.5491099	1457476.5496039	40	1457480.0433243	1457480.0437899	100	del	1457481.3955903	4.0	1457482.6356405	1457481.9051668	1457481.9054561	120.0
253.49951171875	0.0	100	519167	19	57	190	1	0	1457473.1994493	1457473.1999675	80	1457476.5491099	1457476.5496039	40	1457480.0433243	1457480.0437899	100	del	1457481.3955903	4.0	1457482.6356405	1457481.9051668	1457481.9054561	120.0
255.361328125	0.0	120	522980	19	57	190	1	0	1457473.1994493	1457473.1999675	80	1457476.5491099	1457476.5496039	40	1457480.0433243	1457480.0437899	100	del	1457481.3955903	4.0	1457482.6356405	1457481.9051668	1457481.9054561	120.0
258.32421875	0.0	80	529048	20	100	60	0	0	1457484.8682683	1457484.8687478	80	1457488.3460296	1457488.3465207	40	1457491.3622918	1457491.3627963	100	del	1457492.1643842	nan	nan	nan	nan	nan
261.8017578125	0.0	40	536170	20	100	60	0	0	1457484.8682683	1457484.8687478	80	1457488.3460296	1457488.3465207	40	1457491.3622918	1457491.3627963	100	del	1457492.1643842	nan	nan	nan	nan	nan
264.81787109375	0.0	100	542347	20	100	60	0	0	1457484.8682683	1457484.8687478	80	1457488.3460296	1457488.3465207	40	1457491.3622918	1457491.3627963	100	del	1457492.1643842	nan	nan	nan	nan	nan
277.845703125	0.0	80	569028	21	87	240	0	1	1457504.3902846	1457504.3907984	80	1457507.79845	1457507.798944	40	1457510.9287003	1457510.9291662	100	imm	1457514.451581	nan	nan	nan	nan	nan
281.25390625	0.0	40	576008	21	87	240	0	1	1457504.3902846	1457504.3907984	80	1457507.79845	1457507.798944	40	1457510.9287003	1457510.9291662	100	imm	1457514.451581	nan	nan	nan	nan	nan
284.3837890625	0.0	100	582418	21	87	240	0	1	1457504.3902846	1457504.3907984	80	1457507.79845	1457507.798944	40	1457510.9287003	1457510.9291662	100	imm	1457514.451581	nan	nan	nan	nan	nan
290.892578125	0.0	80	595748	22	93	300	1	0	1457517.4376873	1457517.4381928	80	1457520.8275151	1457520.8280629	40	1457524.25402	1457524.254496	100	del	1457533.4436185	2.0	1457533.955006	1457533.9544392	1457533.954795	120.0
294.28271484375	0.0	40	602691	22	93	300	1	0	1457517.4376873	1457517.4381928	80	1457520.8275151	1457520.8280629	40	1457524.25402	1457524.254496	100	del	1457533.4436185	2.0	1457533.955006	1457533.9544392	1457533.954795	120.0
297.708984375	0.0	100	609708	22	93	300	1	0	1457517.4376873	1457517.4381928	80	1457520.8275151	1457520.8280629	40	1457524.25402	1457524.254496	100	del	1457533.4436185	2.0	1457533.955006	1457533.9544392	1457533.954795	120.0
307.4091796875	0.0	120	629574	22	93	300	1	0	1457517.4376873	1457517.4381928	80	1457520.8275151	1457520.8280629	40	1457524.25402	1457524.254496	100	del	1457533.4436185	2.0	1457533.955006	1457533.9544392	1457533.954795	120.0
309.7138671875	0.0	80	634294	23	90	460	0	1	1457536.2591394	1457536.2596041	80	1457539.6631592	1457539.6635855	40	1457542.8408906	1457542.8415803	100	imm	1457543.7641166	nan	nan	nan	nan	nan
313.11767578125	0.0	40	641265	23	90	460	0	1	1457536.2591394	1457536.2596041	80	1457539.6631592	1457539.6635855	40	1457542.8408906	1457542.8415803	100	imm	1457543.7641166	nan	nan	nan	nan	nan
316.29541015625	0.0	100	647773	23	90	460	0	1	1457536.2591394	1457536.2596041	80	1457539.6631592	1457539.6635855	40	1457542.8408906	1457542.8415803	100	imm	1457543.7641166	nan	nan	nan	nan	nan
319.84912109375	0.0	80	655051	24	50	300	1	1	1457546.3950781	1457546.3955494	80	1457549.5595116	1457549.5600118	40	1457552.8652555	1457552.8657669	100	imm	1457553.8765189	1.0	1457555.5561768	1457554.3896899	1457554.3902298	120.0
323.013671875	0.0	40	661532	24	50	300	1	1	1457546.3950781	1457546.3955494	80	1457549.5595116	1457549.5600118	40	1457552.8652555	1457552.8657669	100	imm	1457553.8765189	1.0	1457555.5561768	1457554.3896899	1457554.3902298	120.0
326.3193359375	0.0	100	668302	24	50	300	1	1	1457546.3950781	1457546.3955494	80	1457549.5595116	1457549.5600118	40	1457552.8652555	1457552.8657669	100	imm	1457553.8765189	1.0	1457555.5561768	1457554.3896899	1457554.3902298	120.0
327.84375	0.0	120	671424	24	50	300	1	1	1457546.3950781	1457546.3955494	80	1457549.5595116	1457549.5600118	40	1457552.8652555	1457552.8657669	100	imm	1457553.8765189	1.0	1457555.5561768	1457554.3896899	1457554.3902298	120.0
331.4404296875	0.0	80	678790	25	67	460	0	1	1457557.9864302	1457557.9869071	80	1457561.1405941	1457561.1410607	40	1457564.3551973	1457564.3557975	100	imm	1457567.0855946	nan	nan	nan	nan	nan
334.59423828125	0.0	40	685249	25	67	460	0	1	1457557.9864302	1457557.9869071	80	1457561.1405941	1457561.1410607	40	1457564.3551973	1457564.3557975	100	imm	1457567.0855946	nan	nan	nan	nan	nan
337.80908203125	0.0	100	691833	25	67	460	0	1	1457557.9864302	1457557.9869071	80	1457561.1405941	1457561.1410607	40	1457564.3551973	1457564.3557975	100	imm	1457567.0855946	nan	nan	nan	nan	nan
343.48681640625	0.0	80	703461	26	87	160	0	1	1457570.0333838	1457570.0338128	80	1457573.3487836	1457573.3492835	40	1457576.8577867	1457576.858314	100	del	1457578.004519	nan	nan	nan	nan	nan
346.80224609375	0.0	40	710251	26	87	160	0	1	1457570.0333838	1457570.0338128	80	1457573.3487836	1457573.3492835	40	1457576.8577867	1457576.858314	100	del	1457578.004519	nan	nan	nan	nan	nan
350.31103515625	0.0	100	717437	26	87	160	0	1	1457570.0333838	1457570.0338128	80	1457573.3487836	1457573.3492835	40	1457576.8577867	1457576.858314	100	del	1457578.004519	nan	nan	nan	nan	nan
354.076171875	0.0	80	725148	27	53	700	1	0	1457580.6226507	1457580.6231284	80	1457584.0437724	1457584.0442415	40	1457587.3950949	1457587.395563	100	imm	1457588.3959581	3.0	1457589.7798714	1457588.9088461	1457588.9093071	120.0
357.4970703125	0.0	40	732154	27	53	700	1	0	1457580.6226507	1457580.6231284	80	1457584.0437724	1457584.0442415	40	1457587.3950949	1457587.395563	100	imm	1457588.3959581	3.0	1457589.7798714	1457588.9088461	1457588.9093071	120.0
360.84814453125	0.0	100	739017	27	53	700	1	0	1457580.6226507	1457580.6231284	80	1457584.0437724	1457584.0442415	40	1457587.3950949	1457587.395563	100	imm	1457588.3959581	3.0	1457589.7798714	1457588.9088461	1457588.9093071	120.0
362.36181640625	0.0	120	742117	27	53	700	1	0	1457580.6226507	1457580.6231284	80	1457584.0437724	1457584.0442415	40	1457587.3950949	1457587.395563	100	imm	1457588.3959581	3.0	1457589.7798714	1457588.9088461	1457588.9093071	120.0
365.373046875	0.0	80	748284	28	97	160	0	1	1457591.9202605	1457591.9207852	80	1457595.1658938	1457595.1663674	40	1457598.378776	1457598.3792604	100	imm	1457599.388251	nan	nan	nan	nan	nan
368.61865234375	0.0	40	754931	28	97	160	0	1	1457591.9202605	1457591.9207852	80	1457595.1658938	1457595.1663674	40	1457598.378776	1457598.3792604	100	imm	1457599.388251	nan	nan	nan	nan	nan
371.83154296875	0.0	100	761511	28	97	160	0	1	1457591.9202605	1457591.9207852	80	1457595.1658938	1457595.1663674	40	1457598.378776	1457598.3792604	100	imm	1457599.388251	nan	nan	nan	nan	nan
375.65673828125	0.0	80	769345	29	83	60	0	1	1457602.204173	1457602.2045525	80	1457605.612068	1457605.612574	40	1457608.6775106	1457608.67804	100	del	1457610.0599595	nan	nan	nan	nan	nan
379.06494140625	0.0	40	776325	29	83	60	0	1	1457602.204173	1457602.2045525	80	1457605.612068	1457605.612574	40	1457608.6775106	1457608.67804	100	del	1457610.0599595	nan	nan	nan	nan	nan
382.1298828125	0.0	100	782602	29	83	60	0	1	1457602.204173	1457602.2045525	80	1457605.612068	1457605.612574	40	1457608.6775106	1457608.67804	100	del	1457610.0599595	nan	nan	nan	nan	nan
386.44287109375	0.0	80	791435	30	53	1070	0	0	1457612.9903229	1457612.9908522	80	1457616.4188833	1457616.4193064	40	1457619.6092859	1457619.6097279	100	imm	1457620.2922095	nan	nan	nan	nan	nan
389.87109375	0.0	40	798456	30	53	1070	0	0	1457612.9903229	1457612.9908522	80	1457616.4188833	1457616.4193064	40	1457619.6092859	1457619.6097279	100	imm	1457620.2922095	nan	nan	nan	nan	nan
393.0615234375	0.0	100	804990	30	53	1070	0	0	1457612.9903229	1457612.9908522	80	1457616.4188833	1457616.4193064	40	1457619.6092859	1457619.6097279	100	imm	1457620.2922095	nan	nan	nan	nan	nan
396.4775390625	0.0	80	811986	31	97	190	1	0	1457623.0252753	1457623.0257483	80	1457626.3191308	1457626.3196028	40	1457629.6832766	1457629.6837937	100	del	1457631.7318857	4.0	1457633.0919241	1457632.2442306	1457632.2447072	120.0
399.77099609375	0.0	40	818731	31	97	190	1	0	1457623.0252753	1457623.0257483	80	1457626.3191308	1457626.3196028	40	1457629.6832766	1457629.6837937	100	del	1457631.7318857	4.0	1457633.0919241	1457632.2442306	1457632.2447072	120.0
403.13525390625	0.0	100	825621	31	97	190	1	0	1457623.0252753	1457623.0257483	80	1457626.3191308	1457626.3196028	40	1457629.6832766	1457629.6837937	100	del	1457631.7318857	4.0	1457633.0919241	1457632.2442306	1457632.2447072	120.0
405.6962890625	0.0	120	830866	31	97	190	1	0	1457623.0252753	1457623.0257483	80	1457626.3191308	1457626.3196028	40	1457629.6832766	1457629.6837937	100	del	1457631.7318857	4.0	1457633.0919241	1457632.2442306	1457632.2447072	120.0
408.93017578125	0.0	80	837489	32	70	240	0	1	1457635.4784296	1457635.4789897	80	1457638.8662383	1457638.866708	40	1457642.0740896	1457642.0746324	100	imm	1457643.7399056	nan	nan	nan	nan	nan
412.31787109375	0.0	40	844427	32	70	240	0	1	1457635.4784296	1457635.4789897	80	1457638.8662383	1457638.866708	40	1457642.0740896	1457642.0746324	100	imm	1457643.7399056	nan	nan	nan	nan	nan
415.52587890625	0.0	100	850997	32	70	240	0	1	1457635.4784296	1457635.4789897	80	1457638.8662383	1457638.866708	40	1457642.0740896	1457642.0746324	100	imm	1457643.7399056	nan	nan	nan	nan	nan
419.923828125	0.0	80	860004	33	97	60	0	1	1457646.4722794	1457646.4727598	80	1457649.9579531	1457649.9584437	40	1457653.2577493	1457653.258256	100	del	1457654.6136459	nan	nan	nan	nan	nan
423.4091796875	0.0	40	867142	33	97	60	0	1	1457646.4722794	1457646.4727598	80	1457649.9579531	1457649.9584437	40	1457653.2577493	1457653.258256	100	del	1457654.6136459	nan	nan	nan	nan	nan
426.708984375	0.0	100	873900	33	97	60	0	1	1457646.4722794	1457646.4727598	80	1457649.9579531	1457649.9584437	40	1457653.2577493	1457653.258256	100	del	1457654.6136459	nan	nan	nan	nan	nan
431.00732421875	0.0	80	882703	34	73	160	0	0	1457657.5559645	1457657.5564732	80	1457660.7006918	1457660.7010668	40	1457664.0253257	1457664.0258621	100	del	1457666.3242033	nan	nan	nan	nan	nan
434.15185546875	0.0	40	889143	34	73	160	0	0	1457657.5559645	1457657.5564732	80	1457660.7006918	1457660.7010668	40	1457664.0253257	1457664.0258621	100	del	1457666.3242033	nan	nan	nan	nan	nan
437.4765625	0.0	100	895952	34	73	160	0	0	1457657.5559645	1457657.5564732	80	1457660.7006918	1457660.7010668	40	1457664.0253257	1457664.0258621	100	del	1457666.3242033	nan	nan	nan	nan	nan
442.5888671875	0.0	80	906422	35	77	120	1	0	1457669.1382541	1457669.1386355	80	1457672.6277403	1457672.6281797	40	1457675.6873435	1457675.6878646	100	del	1457677.3002259	3.0	1457680.6762364	1457677.8125088	1457677.8129387	120.0
446.07861328125	0.0	40	913569	35	77	120	1	0	1457669.1382541	1457669.1386355	80	1457672.6277403	1457672.6281797	40	1457675.6873435	1457675.6878646	100	del	1457677.3002259	3.0	1457680.6762364	1457677.8125088	1457677.8129387	120.0
449.13818359375	0.0	100	919835	35	77	120	1	0	1457669.1382541	1457669.1386355	80	1457672.6277403	1457672.6281797	40	1457675.6873435	1457675.6878646	100	del	1457677.3002259	3.0	1457680.6762364	1457677.8125088	1457677.8129387	120.0
451.26318359375	0.0	120	924187	35	77	120	1	0	1457669.1382541	1457669.1386355	80	1457672.6277403	1457672.6281797	40	1457675.6873435	1457675.6878646	100	del	1457677.3002259	3.0	1457680.6762364	1457677.8125088	1457677.8129387	120.0
456.392578125	0.0	80	934692	36	57	240	0	1	1457682.9422378	1457682.9427338	80	1457686.2106606	1457686.2111411	40	1457689.2688589	1457689.2693632	100	imm	1457689.7484152	nan	nan	nan	nan	nan
459.6611328125	0.0	40	941386	36	57	240	0	1	1457682.9422378	1457682.9427338	80	1457686.2106606	1457686.2111411	40	1457689.2688589	1457689.2693632	100	imm	1457689.7484152	nan	nan	nan	nan	nan
462.71923828125	0.0	100	947649	36	57	240	0	1	1457682.9422378	1457682.9427338	80	1457686.2106606	1457686.2111411	40	1457689.2688589	1457689.2693632	100	imm	1457689.7484152	nan	nan	nan	nan	nan
466.16845703125	0.0	80	954713	37	83	1070	0	0	1457692.7184786	1457692.7189621	80	1457696.1686005	1457696.1690777	40	1457699.4005722	1457699.4010913	100	imm	1457700.6921386	nan	nan	nan	nan	nan
469.61865234375	0.0	40	961779	37	83	1070	0	0	1457692.7184786	1457692.7189621	80	1457696.1686005	1457696.1690777	40	1457699.4005722	1457699.4010913	100	imm	1457700.6921386	nan	nan	nan	nan	nan
472.8505859375	0.0	100	968398	37	83	1070	0	0	1457692.7184786	1457692.7189621	80	1457696.1686005	1457696.1690777	40	1457699.4005722	1457699.4010913	100	imm	1457700.6921386	nan	nan	nan	nan	nan
477.05029296875	0.0	80	976999	38	60	1070	0	1	1457703.6004452	1457703.6009444	80	1457706.6822867	1457706.682718	40	1457710.0052286	1457710.0057975	100	imm	1457712.0519946	nan	nan	nan	nan	nan
480.13232421875	0.0	40	983311	38	60	1070	0	1	1457703.6004452	1457703.6009444	80	1457706.6822867	1457706.682718	40	1457710.0052286	1457710.0057975	100	imm	1457712.0519946	nan	nan	nan	nan	nan
483.455078125	0.0	100	990116	38	60	1070	0	1	1457703.6004452	1457703.6009444	80	1457706.6822867	1457706.682718	40	1457710.0052286	1457710.0057975	100	imm	1457712.0519946	nan	nan	nan	nan	nan
488.14697265625	0.0	80	999725	39	97	700	1	1	1457714.6976086	1457714.6981024	80	1457717.9281446	1457717.9287126	40	1457721.363804	1457721.3642082	100	imm	1457728.1806944	3.0	1457730.692312	1457728.6908445	1457728.6912228	120.0
491.3779296875	0.0	40	1006342	39	97	700	1	1	1457714.6976086	1457714.6981024	80	1457717.9281446	1457717.9287126	40	1457721.363804	1457721.3642082	100	imm	1457728.1806944	3.0	1457730.692312	1457728.6908445	1457728.6912228	120.0
494.81298828125	0.0	100	1013377	39	97	700	1	1	1457714.6976086	1457714.6981024	80	1457717.9281446	1457717.9287126	40	1457721.363804	1457721.3642082	100	imm	1457728.1806944	3.0	1457730.692312	1457728.6908445	1457728.6912228	120.0
502.14013671875	0.0	120	1028383	39	97	700	1	1	1457714.6976086	1457714.6981024	80	1457717.9281446	1457717.9287126	40	1457721.363804	1457721.3642082	100	imm	1457728.1806944	3.0	1457730.692312	1457728.6908445	1457728.6912228	120.0
506.25732421875	0.0	80	1036815	40	67	120	1	0	1457732.8079859	1457732.8084635	80	1457735.9677234	1457735.9682005	40	1457739.2228747	1457739.2233551	100	del	1457740.6839493	3.0	1457742.6120173	1457741.1965093	1457741.1970255	120.0
509.41650390625	0.0	40	1043285	40	67	120	1	0	1457732.8079859	1457732.8084635	80	1457735.9677234	1457735.9682005	40	1457739.2228747	1457739.2233551	100	del	1457740.6839493	3.0	1457742.6120173	1457741.1965093	1457741.1970255	120.0
512.671875	0.0	100	1049952	40	67	120	1	0	1457732.8079859	1457732.8084635	80	1457735.9677234	1457735.9682005	40	1457739.2228747	1457739.2233551	100	del	1457740.6839493	3.0	1457742.6120173	1457741.1965093	1457741.1970255	120.0
514.6455078125	0.0	120	1053994	40	67	120	1	0	1457732.8079859	1457732.8084635	80	1457735.9677234	1457735.9682005	40	1457739.2228747	1457739.2233551	100	del	1457740.6839493	3.0	1457742.6120173	1457741.1965093	1457741.1970255	120.0
536.7001953125	0.0	80	1099162	41	97	300	1	1	1457763.2518249	1457763.2523246	80	1457766.6587086	1457766.6591343	40	1457770.1659483	1457770.1664936	100	imm	1457771.244429	3.0	1457772.8439094	1457771.7550772	1457771.7555059	120.0
540.10693359375	0.0	40	1106139	41	97	300	1	1	1457763.2518249	1457763.2523246	80	1457766.6587086	1457766.6591343	40	1457770.1659483	1457770.1664936	100	imm	1457771.244429	3.0	1457772.8439094	1457771.7550772	1457771.7555059	120.0
543.6142578125	0.0	100	1113322	41	97	300	1	1	1457763.2518249	1457763.2523246	80	1457766.6587086	1457766.6591343	40	1457770.1659483	1457770.1664936	100	imm	1457771.244429	3.0	1457772.8439094	1457771.7550772	1457771.7555059	120.0
545.203125	0.0	120	1116576	41	97	300	1	1	1457763.2518249	1457763.2523246	80	1457766.6587086	1457766.6591343	40	1457770.1659483	1457770.1664936	100	imm	1457771.244429	3.0	1457772.8439094	1457771.7550772	1457771.7555059	120.0
548.38818359375	0.0	80	1123099	42	80	1070	0	1	1457774.9402006	1457774.9406644	80	1457778.0666305	1457778.0671232	40	1457781.4304322	1457781.4308716	100	imm	1457782.2284002	nan	nan	nan	nan	nan
551.5146484375	0.0	40	1129502	42	80	1070	0	1	1457774.9402006	1457774.9406644	80	1457778.0666305	1457778.0671232	40	1457781.4304322	1457781.4308716	100	imm	1457782.2284002	nan	nan	nan	nan	nan
554.87841796875	0.0	100	1136391	42	80	1070	0	1	1457774.9402006	1457774.9406644	80	1457778.0666305	1457778.0671232	40	1457781.4304322	1457781.4308716	100	imm	1457782.2284002	nan	nan	nan	nan	nan
558.38232421875	0.0	80	1143567	43	87	190	1	0	1457784.9345193	1457784.935027	80	1457788.4290243	1457788.4294402	40	1457791.9286539	1457791.9293045	100	imm	1457795.6361043	3.0	1457797.356454	1457796.1483621	1457796.1488404	120.0
561.87646484375	0.0	40	1150723	43	87	190	1	0	1457784.9345193	1457784.935027	80	1457788.4290243	1457788.4294402	40	1457791.9286539	1457791.9293045	100	imm	1457795.6361043	3.0	1457797.356454	1457796.1483621	1457796.1488404	120.0
565.37646484375	0.0	100	1157891	43	87	190	1	0	1457784.9345193	1457784.935027	80	1457788.4290243	1457788.4294402	40	1457791.9286539	1457791.9293045	100	imm	1457795.6361043	3.0	1457797.356454	1457796.1483621	1457796.1488404	120.0
569.595703125	0.0	120	1166532	43	87	190	1	0	1457784.9345193	1457784.935027	80	1457788.4290243	1457788.4294402	40	1457791.9286539	1457791.9293045	100	imm	1457795.6361043	3.0	1457797.356454	1457796.1483621	1457796.1488404	120.0
573.1416015625	0.0	80	1173794	44	70	700	1	1	1457799.6943124	1457799.6949527	80	1457803.1320044	1457803.1324588	40	1457806.3447064	1457806.3450947	100	imm	1457807.333654	3.0	1457809.4123359	1457807.8467587	1457807.8472481	120.0
576.5791015625	0.0	40	1180834	44	70	700	1	1	1457799.6943124	1457799.6949527	80	1457803.1320044	1457803.1324588	40	1457806.3447064	1457806.3450947	100	imm	1457807.333654	3.0	1457809.4123359	1457807.8467587	1457807.8472481	120.0
579.79150390625	0.0	100	1187413	44	70	700	1	1	1457799.6943124	1457799.6949527	80	1457803.1320044	1457803.1324588	40	1457806.3447064	1457806.3450947	100	imm	1457807.333654	3.0	1457809.4123359	1457807.8467587	1457807.8472481	120.0
581.2939453125	0.0	120	1190490	44	70	700	1	1	1457799.6943124	1457799.6949527	80	1457803.1320044	1457803.1324588	40	1457806.3447064	1457806.3450947	100	imm	1457807.333654	3.0	1457809.4123359	1457807.8467587	1457807.8472481	120.0
585.19091796875	0.0	80	1198471	45	70	1070	0	0	1457811.7440471	1457811.7444584	80	1457815.2450123	1457815.2455025	40	1457818.5371787	1457818.5376129	100	imm	1457821.276551	nan	nan	nan	nan	nan
588.69189453125	0.0	40	1205641	45	70	1070	0	0	1457811.7440471	1457811.7444584	80	1457815.2450123	1457815.2455025	40	1457818.5371787	1457818.5376129	100	imm	1457821.276551	nan	nan	nan	nan	nan
591.98388671875	0.0	100	1212383	45	70	1070	0	0	1457811.7440471	1457811.7444584	80	1457815.2450123	1457815.2455025	40	1457818.5371787	1457818.5376129	100	imm	1457821.276551	nan	nan	nan	nan	nan
597.705078125	0.0	80	1224100	46	80	60	0	0	1457824.2584779	1457824.2590377	80	1457827.6265309	1457827.627026	40	1457830.8820432	1457830.8825363	100	del	1457831.748581	nan	nan	nan	nan	nan
601.07275390625	0.0	40	1230997	46	80	60	0	0	1457824.2584779	1457824.2590377	80	1457827.6265309	1457827.627026	40	1457830.8820432	1457830.8825363	100	del	1457831.748581	nan	nan	nan	nan	nan
604.32861328125	0.0	100	1237665	46	80	60	0	0	1457824.2584779	1457824.2590377	80	1457827.6265309	1457827.627026	40	1457830.8820432	1457830.8825363	100	del	1457831.748581	nan	nan	nan	nan	nan
608.03271484375	0.0	80	1245251	47	57	1070	0	1	1457834.5864624	1457834.5869655	80	1457838.0377922	1457838.0382457	40	1457841.1475281	1457841.1479054	100	imm	1457842.0765571	nan	nan	nan	nan	nan
611.48388671875	0.0	40	1252319	47	57	1070	0	1	1457834.5864624	1457834.5869655	80	1457838.0377922	1457838.0382457	40	1457841.1475281	1457841.1479054	100	imm	1457842.0765571	nan	nan	nan	nan	nan
614.59375	0.0	100	1258688	47	57	1070	0	1	1457834.5864624	1457834.5869655	80	1457838.0377922	1457838.0382457	40	1457841.1475281	1457841.1479054	100	imm	1457842.0765571	nan	nan	nan	nan	nan
618.23828125	0.0	80	1266152	48	97	460	0	1	1457844.7921031	1457844.7925156	80	1457848.2957204	1457848.2962299	40	1457851.5050179	1457851.505313	100	imm	1457854.2198231	nan	nan	nan	nan	nan
621.74169921875	0.0	40	1273327	48	97	460	0	1	1457844.7921031	1457844.7925156	80	1457848.2957204	1457848.2962299	40	1457851.5050179	1457851.505313	100	imm	1457854.2198231	nan	nan	nan	nan	nan
624.95068359375	0.0	100	1279899	48	97	460	0	1	1457844.7921031	1457844.7925156	80	1457848.2957204	1457848.2962299	40	1457851.5050179	1457851.505313	100	imm	1457854.2198231	nan	nan	nan	nan	nan
630.5185546875	0.0	80	1291302	49	73	1070	0	1	1457857.0727029	1457857.0731989	80	1457860.5310055	1457860.5314553	40	1457864.0434045	1457864.0439088	100	imm	1457865.3878695	nan	nan	nan	nan	nan
633.9765625	0.0	40	1298384	49	73	1070	0	1	1457857.0727029	1457857.0731989	80	1457860.5310055	1457860.5314553	40	1457864.0434045	1457864.0439088	100	imm	1457865.3878695	nan	nan	nan	nan	nan
637.48876953125	0.0	100	1305577	49	73	1070	0	1	1457857.0727029	1457857.0731989	80	1457860.5310055	1457860.5314553	40	1457864.0434045	1457864.0439088	100	imm	1457865.3878695	nan	nan	nan	nan	nan
641.67822265625	0.0	80	1314157	50	50	190	1	1	1457868.232693	1457868.2331193	80	1457871.2944479	1457871.2948745	40	1457874.3262253	1457874.3267135	100	imm	1457875.5559003	1.0	1457878.5161899	1457876.069603	1457876.0700491	120.0
644.73974609375	0.0	40	1320427	50	50	190	1	1	1457868.232693	1457868.2331193	80	1457871.2944479	1457871.2948745	40	1457874.3262253	1457874.3267135	100	imm	1457875.5559003	1.0	1457878.5161899	1457876.069603	1457876.0700491	120.0
647.771484375	0.0	100	1326636	50	50	190	1	1	1457868.232693	1457868.2331193	80	1457871.2944479	1457871.2948745	40	1457874.3262253	1457874.3267135	100	imm	1457875.5559003	1.0	1457878.5161899	1457876.069603	1457876.0700491	120.0
649.5146484375	0.0	120	1330206	50	50	190	1	1	1457868.232693	1457868.2331193	80	1457871.2944479	1457871.2948745	40	1457874.3262253	1457874.3267135	100	imm	1457875.5559003	1.0	1457878.5161899	1457876.069603	1457876.0700491	120.0
654.28662109375	0.0	80	1339979	51	67	22	1	1	1457880.8417319	1457880.8422383	80	1457884.1328612	1457884.1333435	40	1457887.6273335	1457887.6278994	100	del	1457888.6608124	3.0	1457893.5248114	1457889.1732333	1457889.1736619	120.0
657.57763671875	0.0	40	1346719	51	67	22	1	1	1457880.8417319	1457880.8422383	80	1457884.1328612	1457884.1333435	40	1457887.6273335	1457887.6278994	100	del	1457888.6608124	3.0	1457893.5248114	1457889.1732333	1457889.1736619	120.0
661.072265625	0.0	100	1353876	51	67	22	1	1	1457880.8417319	1457880.8422383	80	1457884.1328612	1457884.1333435	40	1457887.6273335	1457887.6278994	100	del	1457888.6608124	3.0	1457893.5248114	1457889.1732333	1457889.1736619	120.0
662.6181640625	0.0	120	1357042	51	67	22	1	1	1457880.8417319	1457880.8422383	80	1457884.1328612	1457884.1333435	40	1457887.6273335	1457887.6278994	100	del	1457888.6608124	3.0	1457893.5248114	1457889.1732333	1457889.1736619	120.0
669.35400390625	0.0	80	1370837	52	100	190	1	1	1457895.9094035	1457895.909731	80	1457899.2479614	1457899.2484627	40	1457902.5238351	1457902.5243362	100	del	1457903.3407422	3.0	1457905.6920595	1457903.855269	1457903.8558225	120.0
672.6923828125	0.0	40	1377674	52	100	190	1	1	1457895.9094035	1457895.909731	80	1457899.2479614	1457899.2484627	40	1457902.5238351	1457902.5243362	100	del	1457903.3407422	3.0	1457905.6920595	1457903.855269	1457903.8558225	120.0
675.96826171875	0.0	100	1384383	52	100	190	1	1	1457895.9094035	1457895.909731	80	1457899.2479614	1457899.2484627	40	1457902.5238351	1457902.5243362	100	del	1457903.3407422	3.0	1457905.6920595	1457903.855269	1457903.8558225	120.0
677.2998046875	0.0	120	1387110	52	100	190	1	1	1457895.9094035	1457895.909731	80	1457899.2479614	1457899.2484627	40	1457902.5238351	1457902.5243362	100	del	1457903.3407422	3.0	1457905.6920595	1457903.855269	1457903.8558225	120.0
681.28564453125	0.0	80	1395273	53	80	160	0	1	1457907.8415575	1457907.842063	80	1457911.3300671	1457911.3305073	40	1457914.6126364	1457914.6131543	100	del	1457917.7806039	nan	nan	nan	nan	nan
684.7744140625	0.0	40	1402418	53	80	160	0	1	1457907.8415575	1457907.842063	80	1457911.3300671	1457911.3305073	40	1457914.6126364	1457914.6131543	100	del	1457917.7806039	nan	nan	nan	nan	nan
688.056640625	0.0	100	1409140	53	80	160	0	1	1457907.8415575	1457907.842063	80	1457911.3300671	1457911.3305073	40	1457914.6126364	1457914.6131543	100	del	1457917.7806039	nan	nan	nan	nan	nan
693.7568359375	0.0	80	1420814	54	53	120	1	0	1457920.3129856	1457920.3135846	80	1457923.6686622	1457923.6691327	40	1457926.9414693	1457926.941907	100	imm	1457931.4123168	2.0	1457934.3882218	1457931.9247508	1457931.9252489	120.0
697.1123046875	0.0	40	1427686	54	53	120	1	0	1457920.3129856	1457920.3135846	80	1457923.6686622	1457923.6691327	40	1457926.9414693	1457926.941907	100	imm	1457931.4123168	2.0	1457934.3882218	1457931.9247508	1457931.9252489	120.0
700.38525390625	0.0	100	1434389	54	53	120	1	0	1457920.3129856	1457920.3135846	80	1457923.6686622	1457923.6691327	40	1457926.9414693	1457926.941907	100	imm	1457931.4123168	2.0	1457934.3882218	1457931.9247508	1457931.9252489	120.0
705.3681640625	0.0	120	1444594	54	53	120	1	0	1457920.3129856	1457920.3135846	80	1457923.6686622	1457923.6691327	40	1457926.9414693	1457926.941907	100	imm	1457931.4123168	2.0	1457934.3882218	1457931.9247508	1457931.9252489	120.0
709.876953125	0.0	80	1453828	55	70	190	1	0	1457936.4335472	1457936.4340102	80	1457939.8859649	1457939.88644	40	1457943.0646152	1457943.0651552	100	imm	1457947.7896792	2.0	1457949.5967191	1457948.3026205	1457948.3031879	120.0
713.3291015625	0.0	40	1460898	55	70	190	1	0	1457936.4335472	1457936.4340102	80	1457939.8859649	1457939.88644	40	1457943.0646152	1457943.0651552	100	imm	1457947.7896792	2.0	1457949.5967191	1457948.3026205	1457948.3031879	120.0
716.5078125	0.0	100	1467408	55	70	190	1	0	1457936.4335472	1457936.4340102	80	1457939.8859649	1457939.88644	40	1457943.0646152	1457943.0651552	100	imm	1457947.7896792	2.0	1457949.5967191	1457948.3026205	1457948.3031879	120.0
721.74609375	0.0	120	1478136	55	70	190	1	0	1457936.4335472	1457936.4340102	80	1457939.8859649	1457939.88644	40	1457943.0646152	1457943.0651552	100	imm	1457947.7896792	2.0	1457949.5967191	1457948.3026205	1457948.3031879	120.0
725.17041015625	0.0	80	1485149	56	53	60	0	1	1457951.7271037	1457951.7277417	80	1457954.7916038	1457954.7920444	40	1457957.9602907	1457957.9609417	100	imm	1457958.8928225	nan	nan	nan	nan	nan
728.234375	0.0	40	1491424	56	53	60	0	1	1457951.7271037	1457951.7277417	80	1457954.7916038	1457954.7920444	40	1457957.9602907	1457957.9609417	100	imm	1457958.8928225	nan	nan	nan	nan	nan
731.4033203125	0.0	100	1497914	56	53	60	0	1	1457951.7271037	1457951.7277417	80	1457954.7916038	1457954.7920444	40	1457957.9602907	1457957.9609417	100	imm	1457958.8928225	nan	nan	nan	nan	nan
734.9658203125	0.0	80	1505210	57	73	22	1	1	1457961.5228998	1457961.5233607	80	1457964.8567854	1457964.8572718	40	1457967.9041331	1457967.9046214	100	del	1457969.1402292	4.0	1457970.284697	1457969.6520221	1457969.6527405	120.0
738.29931640625	0.0	40	1512037	57	73	22	1	1	1457961.5228998	1457961.5233607	80	1457964.8567854	1457964.8572718	40	1457967.9041331	1457967.9046214	100	del	1457969.1402292	4.0	1457970.284697	1457969.6520221	1457969.6527405	120.0
741.3466796875	0.0	100	1518278	57	73	22	1	1	1457961.5228998	1457961.5233607	80	1457964.8567854	1457964.8572718	40	1457967.9041331	1457967.9046214	100	del	1457969.1402292	4.0	1457970.284697	1457969.6520221	1457969.6527405	120.0
743.0947265625	0.0	120	1521858	57	73	22	1	1	1457961.5228998	1457961.5233607	80	1457964.8567854	1457964.8572718	40	1457967.9041331	1457967.9046214	100	del	1457969.1402292	4.0	1457970.284697	1457969.6520221	1457969.6527405	120.0
745.88037109375	0.0	80	1527563	58	87	1070	0	1	1457972.4378946	1457972.4383873	80	1457975.5867504	1457975.5872452	40	1457979.0402285	1457979.0407653	100	imm	1457980.6927214	nan	nan	nan	nan	nan
749.029296875	0.0	40	1534012	58	87	1070	0	1	1457972.4378946	1457972.4383873	80	1457975.5867504	1457975.5872452	40	1457979.0402285	1457979.0407653	100	imm	1457980.6927214	nan	nan	nan	nan	nan
752.482421875	0.0	100	1541084	58	87	1070	0	1	1457972.4378946	1457972.4383873	80	1457975.5867504	1457975.5872452	40	1457979.0402285	1457979.0407653	100	imm	1457980.6927214	nan	nan	nan	nan	nan
756.875	0.0	80	1550080	59	50	700	1	0	1457983.432686	1457983.4331943	80	1457986.8181893	1457986.8186401	40	1457990.1294126	1457990.1297762	100	imm	1457991.5418922	3.0	1457995.1801015	1457992.0515445	1457992.0518961	120.0
760.26025390625	0.0	40	1557013	59	50	700	1	0	1457983.432686	1457983.4331943	80	1457986.8181893	1457986.8186401	40	1457990.1294126	1457990.1297762	100	imm	1457991.5418922	3.0	1457995.1801015	1457992.0515445	1457992.0518961	120.0
763.5712890625	0.0	100	1563794	59	50	700	1	0	1457983.432686	1457983.4331943	80	1457986.8181893	1457986.8186401	40	1457990.1294126	1457990.1297762	100	imm	1457991.5418922	3.0	1457995.1801015	1457992.0515445	1457992.0518961	120.0
765.4931640625	0.0	120	1567730	59	50	700	1	0	1457983.432686	1457983.4331943	80	1457986.8181893	1457986.8186401	40	1457990.1294126	1457990.1297762	100	imm	1457991.5418922	3.0	1457995.1801015	1457992.0515445	1457992.0518961	120.0
771.02880859375	0.0	80	1579067	60	97	120	1	1	1457997.5868343	1457997.5873093	80	1458000.6514161	1458000.6519076	40	1458004.1537553	1458004.1542738	100	del	1458010.4202504	2.0	1458011.9165988	1458010.9317465	1458010.9322055	120.0
774.09326171875	0.0	40	1585343	60	97	120	1	1	1457997.5868343	1457997.5873093	80	1458000.6514161	1458000.6519076	40	1458004.1537553	1458004.1542738	100	del	1458010.4202504	2.0	1458011.9165988	1458010.9317465	1458010.9322055	120.0
777.59521484375	0.0	100	1592515	60	97	120	1	1	1457997.5868343	1457997.5873093	80	1458000.6514161	1458000.6519076	40	1458004.1537553	1458004.1542738	100	del	1458010.4202504	2.0	1458011.9165988	1458010.9317465	1458010.9322055	120.0
784.373046875	0.0	120	1606396	60	97	120	1	1	1457997.5868343	1457997.5873093	80	1458000.6514161	1458000.6519076	40	1458004.1537553	1458004.1542738	100	del	1458010.4202504	2.0	1458011.9165988	1458010.9317465	1458010.9322055	120.0
795.09228515625	0.0	80	1628349	61	100	300	1	0	1458021.6513096	1458021.651887	80	1458024.6842876	1458024.6848955	40	1458027.9333703	1458027.9339966	100	imm	1458030.644944	3.0	1458032.2920912	1458031.1542053	1458031.1545349	120.0
798.12548828125	0.0	40	1634561	61	100	300	1	0	1458021.6513096	1458021.651887	80	1458024.6842876	1458024.6848955	40	1458027.9333703	1458027.9339966	100	imm	1458030.644944	3.0	1458032.2920912	1458031.1542053	1458031.1545349	120.0
801.37451171875	0.0	100	1641215	61	100	300	1	0	1458021.6513096	1458021.651887	80	1458024.6842876	1458024.6848955	40	1458027.9333703	1458027.9339966	100	imm	1458030.644944	3.0	1458032.2920912	1458031.1542053	1458031.1545349	120.0
804.5947265625	0.0	120	1647810	61	100	300	1	0	1458021.6513096	1458021.651887	80	1458024.6842876	1458024.6848955	40	1458027.9333703	1458027.9339966	100	imm	1458030.644944	3.0	1458032.2920912	1458031.1542053	1458031.1545349	120.0
807.91162109375	0.0	80	1654603	62	100	460	0	0	1458034.470928	1458034.471427	80	1458037.793549	1458037.7939639	40	1458040.9222824	1458040.9227906	100	imm	1458041.5888499	nan	nan	nan	nan	nan
811.234375	0.0	40	1661408	62	100	460	0	0	1458034.470928	1458034.471427	80	1458037.793549	1458037.7939639	40	1458040.9222824	1458040.9227906	100	imm	1458041.5888499	nan	nan	nan	nan	nan
814.36279296875	0.0	100	1667815	62	100	460	0	0	1458034.470928	1458034.471427	80	1458037.793549	1458037.7939639	40	1458040.9222824	1458040.9227906	100	imm	1458041.5888499	nan	nan	nan	nan	nan
817.83642578125	0.0	80	1674929	63	50	22	1	1	1458044.3959143	1458044.3963638	80	1458047.7060398	1458047.7065431	40	1458051.0160844	1458051.0165475	100	del	1458051.8601857	3.0	1458053.7405657	1458052.3743251	1458052.375031	120.0
821.146484375	0.0	40	1681708	63	50	22	1	1	1458044.3959143	1458044.3963638	80	1458047.7060398	1458047.7065431	40	1458051.0160844	1458051.0165475	100	del	1458051.8601857	3.0	1458053.7405657	1458052.3743251	1458052.375031	120.0
824.45654296875	0.0	100	1688487	63	50	22	1	1	1458044.3959143	1458044.3963638	80	1458047.7060398	1458047.7065431	40	1458051.0160844	1458051.0165475	100	del	1458051.8601857	3.0	1458053.7405657	1458052.3743251	1458052.375031	120.0
825.81494140625	0.0	120	1691269	63	50	22	1	1	1458044.3959143	1458044.3963638	80	1458047.7060398	1458047.7065431	40	1458051.0160844	1458051.0165475	100	del	1458051.8601857	3.0	1458053.7405657	1458052.3743251	1458052.375031	120.0
829.419921875	0.0	80	1698652	64	63	240	0	0	1458055.9797745	1458055.9802897	80	1458059.0051284	1458059.0056081	40	1458062.2751265	1458062.2756242	100	imm	1458065.0763427	nan	nan	nan	nan	nan
832.4453125	0.0	40	1704848	64	63	240	0	0	1458055.9797745	1458055.9802897	80	1458059.0051284	1458059.0056081	40	1458062.2751265	1458062.2756242	100	imm	1458065.0763427	nan	nan	nan	nan	nan
835.71484375	0.0	100	1711544	64	63	240	0	0	1458055.9797745	1458055.9802897	80	1458059.0051284	1458059.0056081	40	1458062.2751265	1458062.2756242	100	imm	1458065.0763427	nan	nan	nan	nan	nan
841.23828125	0.0	80	1722856	65	87	300	1	0	1458067.7982107	1458067.7987137	80	1458070.8598188	1458070.8603215	40	1458074.1059421	1458074.1064362	100	imm	1458077.9400882	3.0	1458082.1177579	1458078.4516543	1458078.4520589	120.0
844.29931640625	0.0	40	1729125	65	87	300	1	0	1458067.7982107	1458067.7987137	80	1458070.8598188	1458070.8603215	40	1458074.1059421	1458074.1064362	100	imm	1458077.9400882	3.0	1458082.1177579	1458078.4516543	1458078.4520589	120.0
847.54541015625	0.0	100	1735773	65	87	300	1	0	1458067.7982107	1458067.7987137	80	1458070.8598188	1458070.8603215	40	1458074.1059421	1458074.1064362	100	imm	1458077.9400882	3.0	1458082.1177579	1458078.4516543	1458078.4520589	120.0
851.89111328125	0.0	120	1744673	65	87	300	1	0	1458067.7982107	1458067.7987137	80	1458070.8598188	1458070.8603215	40	1458074.1059421	1458074.1064362	100	imm	1458077.9400882	3.0	1458082.1177579	1458078.4516543	1458078.4520589	120.0
857.796875	0.0	80	1756768	66	100	240	0	0	1458084.357584	1458084.3580872	80	1458087.6412304	1458087.641767	40	1458091.0571487	1458091.0576528	100	imm	1458091.9080904	nan	nan	nan	nan	nan
861.08056640625	0.0	40	1763493	66	100	240	0	0	1458084.357584	1458084.3580872	80	1458087.6412304	1458087.641767	40	1458091.0571487	1458091.0576528	100	imm	1458091.9080904	nan	nan	nan	nan	nan
864.49609375	0.0	100	1770488	66	100	240	0	0	1458084.357584	1458084.3580872	80	1458087.6412304	1458087.641767	40	1458091.0571487	1458091.0576528	100	imm	1458091.9080904	nan	nan	nan	nan	nan
868.2158203125	0.0	80	1778106	67	63	60	0	0	1458094.7766347	1458094.777151	80	1458098.22048	1458098.220977	40	1458101.2594408	1458101.2598845	100	del	1458104.6444761	nan	nan	nan	nan	nan
871.65966796875	0.0	40	1785159	67	63	60	0	0	1458094.7766347	1458094.777151	80	1458098.22048	1458098.220977	40	1458101.2594408	1458101.2598845	100	del	1458104.6444761	nan	nan	nan	nan	nan
874.6982421875	0.0	100	1791382	67	63	60	0	0	1458094.7766347	1458094.777151	80	1458098.22048	1458098.220977	40	1458101.2594408	1458101.2598845	100	del	1458104.6444761	nan	nan	nan	nan	nan
880.71044921875	0.0	80	1803695	68	93	120	1	0	1458107.2717187	1458107.2722037	80	1458110.5091591	1458110.5097236	40	1458114.0016436	1458114.0021111	100	imm	1458122.6690553	3.0	1458124.3499704	1458123.1829654	1458123.1835025	120.0
883.94775390625	0.0	40	1810325	68	93	120	1	0	1458107.2717187	1458107.2722037	80	1458110.5091591	1458110.5097236	40	1458114.0016436	1458114.0021111	100	imm	1458122.6690553	3.0	1458124.3499704	1458123.1829654	1458123.1835025	120.0
887.43994140625	0.0	100	1817477	68	93	120	1	0	1458107.2717187	1458107.2722037	80	1458110.5091591	1458110.5097236	40	1458114.0016436	1458114.0021111	100	imm	1458122.6690553	3.0	1458124.3499704	1458123.1829654	1458123.1835025	120.0
896.62109375	0.0	120	1836280	68	93	120	1	0	1458107.2717187	1458107.2722037	80	1458110.5091591	1458110.5097236	40	1458114.0016436	1458114.0021111	100	imm	1458122.6690553	3.0	1458124.3499704	1458123.1829654	1458123.1835025	120.0
900.19921875	0.0	80	1843608	69	57	160	0	1	1458126.7610889	1458126.7615873	80	1458129.995516	1458129.9960182	40	1458133.1761897	1458133.1767266	100	imm	1458135.7485329	nan	nan	nan	nan	nan
903.43359375	0.0	40	1850232	69	57	160	0	1	1458126.7610889	1458126.7615873	80	1458129.995516	1458129.9960182	40	1458133.1761897	1458133.1767266	100	imm	1458135.7485329	nan	nan	nan	nan	nan
906.6142578125	0.0	100	1856746	69	57	160	0	1	1458126.7610889	1458126.7615873	80	1458129.995516	1458129.9960182	40	1458133.1761897	1458133.1767266	100	imm	1458135.7485329	nan	nan	nan	nan	nan
911.734375	0.0	80	1867232	70	57	120	1	1	1458138.2963697	1458138.296831	80	1458141.6739237	1458141.6743081	40	1458144.9412522	1458144.9417561	100	del	1458146.2128399	4.0	1458148.196152	1458146.726498	1458146.7270174	120.0
915.11181640625	0.0	40	1874149	70	57	120	1	1	1458138.2963697	1458138.296831	80	1458141.6739237	1458141.6743081	40	1458144.9412522	1458144.9417561	100	del	1458146.2128399	4.0	1458148.196152	1458146.726498	1458146.7270174	120.0
918.37890625	0.0	100	1880840	70	57	120	1	1	1458138.2963697	1458138.296831	80	1458141.6739237	1458141.6743081	40	1458144.9412522	1458144.9417561	100	del	1458146.2128399	4.0	1458148.196152	1458146.726498	1458146.7270174	120.0
920.1640625	0.0	120	1884496	70	57	120	1	1	1458138.2963697	1458138.296831	80	1458141.6739237	1458141.6743081	40	1458144.9412522	1458144.9417561	100	del	1458146.2128399	4.0	1458148.196152	1458146.726498	1458146.7270174	120.0
923.75	0.0	80	1891840	71	73	190	1	1	1458150.3126347	1458150.3131824	80	1458153.5338615	1458153.5343494	40	1458156.6317353	1458156.6321958	100	imm	1458158.3819214	3.0	1458160.556722	1458158.8918496	1458158.8922351	120.0
926.97119140625	0.0	40	1898437	71	73	190	1	1	1458150.3126347	1458150.3131824	80	1458153.5338615	1458153.5343494	40	1458156.6317353	1458156.6321958	100	imm	1458158.3819214	3.0	1458160.556722	1458158.8918496	1458158.8922351	120.0
930.06884765625	0.0	100	1904781	71	73	190	1	1	1458150.3126347	1458150.3131824	80	1458153.5338615	1458153.5343494	40	1458156.6317353	1458156.6321958	100	imm	1458158.3819214	3.0	1458160.556722	1458158.8918496	1458158.8922351	120.0
932.3291015625	0.0	120	1909410	71	73	190	1	1	1458150.3126347	1458150.3131824	80	1458153.5338615	1458153.5343494	40	1458156.6317353	1458156.6321958	100	imm	1458158.3819214	3.0	1458160.556722	1458158.8918496	1458158.8922351	120.0
936.3837890625	0.0	80	1917714	72	100	22	1	0	1458162.9468324	1458162.9473453	80	1458166.1393993	1458166.139889	40	1458169.6236777	1458169.6241344	100	del	1458170.4371563	4.0	1458171.9657404	1458170.9473076	1458170.9476625	120.0
939.57666015625	0.0	40	1924253	72	100	22	1	0	1458162.9468324	1458162.9473453	80	1458166.1393993	1458166.139889	40	1458169.6236777	1458169.6241344	100	del	1458170.4371563	4.0	1458171.9657404	1458170.9473076	1458170.9476625	120.0
943.060546875	0.0	100	1931388	72	100	22	1	0	1458162.9468324	1458162.9473453	80	1458166.1393993	1458166.139889	40	1458169.6236777	1458169.6241344	100	del	1458170.4371563	4.0	1458171.9657404	1458170.9473076	1458170.9476625	120.0
944.38427734375	0.0	120	1934099	72	100	22	1	0	1458162.9468324	1458162.9473453	80	1458166.1393993	1458166.139889	40	1458169.6236777	1458169.6241344	100	del	1458170.4371563	4.0	1458171.9657404	1458170.9473076	1458170.9476625	120.0
947.4267578125	0.0	80	1940330	73	87	700	1	1	1458173.9900383	1458173.9905238	80	1458177.4121253	1458177.4125738	40	1458180.7388581	1458180.7401543	100	imm	1458181.8686035	4.0	1458185.0445943	1458182.3813396	1458182.3818526	120.0
950.8486328125	0.0	40	1947338	73	87	700	1	1	1458173.9900383	1458173.9905238	80	1458177.4121253	1458177.4125738	40	1458180.7388581	1458180.7401543	100	imm	1458181.8686035	4.0	1458185.0445943	1458182.3813396	1458182.3818526	120.0
954.17529296875	0.0	100	1954151	73	87	700	1	1	1458173.9900383	1458173.9905238	80	1458177.4121253	1458177.4125738	40	1458180.7388581	1458180.7401543	100	imm	1458181.8686035	4.0	1458185.0445943	1458182.3813396	1458182.3818526	120.0
955.81787109375	0.0	120	1957515	73	87	700	1	1	1458173.9900383	1458173.9905238	80	1458177.4121253	1458177.4125738	40	1458180.7388581	1458180.7401543	100	imm	1458181.8686035	4.0	1458185.0445943	1458182.3813396	1458182.3818526	120.0
960.765625	0.0	80	1967648	74	70	300	1	1	1458187.3292047	1458187.3297073	80	1458190.6619845	1458190.6624136	40	1458194.0390814	1458194.0395361	100	imm	1458198.3482172	4.0	1458200.2044057	1458198.8609964	1458198.8614832	120.0
964.09814453125	0.0	40	1974473	74	70	300	1	1	1458187.3292047	1458187.3297073	80	1458190.6619845	1458190.6624136	40	1458194.0390814	1458194.0395361	100	imm	1458198.3482172	4.0	1458200.2044057	1458198.8609964	1458198.8614832	120.0
967.4755859375	0.0	100	1981390	74	70	300	1	1	1458187.3292047	1458187.3297073	80	1458190.6619845	1458190.6624136	40	1458194.0390814	1458194.0395361	100	imm	1458198.3482172	4.0	1458200.2044057	1458198.8609964	1458198.8614832	120.0
972.29736328125	0.0	120	1991265	74	70	300	1	1	1458187.3292047	1458187.3297073	80	1458190.6619845	1458190.6624136	40	1458194.0390814	1458194.0395361	100	imm	1458198.3482172	4.0	1458200.2044057	1458198.8609964	1458198.8614832	120.0
975.7021484375	0.0	80	1998238	75	83	120	1	0	1458202.2661326	1458202.266556	80	1458205.7124158	1458205.7128432	40	1458208.7337139	1458208.7342757	100	imm	1458212.42222	3.0	1458214.3017168	1458212.9343439	1458212.9347769	120.0
979.1484375	0.0	40	2005296	75	83	120	1	0	1458202.2661326	1458202.266556	80	1458205.7124158	1458205.7128432	40	1458208.7337139	1458208.7342757	100	imm	1458212.42222	3.0	1458214.3017168	1458212.9343439	1458212.9347769	120.0
982.16943359375	0.0	100	2011483	75	83	120	1	0	1458202.2661326	1458202.266556	80	1458205.7124158	1458205.7128432	40	1458208.7337139	1458208.7342757	100	imm	1458212.42222	3.0	1458214.3017168	1458212.9343439	1458212.9347769	120.0
986.3701171875	0.0	120	2020086	75	83	120	1	0	1458202.2661326	1458202.266556	80	1458205.7124158	1458205.7128432	40	1458208.7337139	1458208.7342757	100	imm	1458212.42222	3.0	1458214.3017168	1458212.9343439	1458212.9347769	120.0
989.900390625	0.0	80	2027316	76	87	60	0	0	1458216.4646354	1458216.4650967	80	1458219.562314	1458219.5629041	40	1458223.0392657	1458223.0397221	100	imm	1458226.2204155	nan	nan	nan	nan	nan
992.998046875	0.0	40	2033660	76	87	60	0	0	1458216.4646354	1458216.4650967	80	1458219.562314	1458219.5629041	40	1458223.0392657	1458223.0397221	100	imm	1458226.2204155	nan	nan	nan	nan	nan
996.474609375	0.0	100	2040780	76	87	60	0	0	1458216.4646354	1458216.4650967	80	1458219.562314	1458219.5629041	40	1458223.0392657	1458223.0397221	100	imm	1458226.2204155	nan	nan	nan	nan	nan
1002.20849609375	0.0	80	2052523	77	60	22	1	0	1458228.7733777	1458228.7738682	80	1458232.0713509	1458232.0718429	40	1458235.4041389	1458235.4046504	100	del	1458235.9410739	4.0	1458238.0607475	1458236.4544689	1458236.4549947	120.0
1005.50634765625	0.0	40	2059277	77	60	22	1	0	1458228.7733777	1458228.7738682	80	1458232.0713509	1458232.0718429	40	1458235.4041389	1458235.4046504	100	del	1458235.9410739	4.0	1458238.0607475	1458236.4544689	1458236.4549947	120.0
1008.83935546875	0.0	100	2066103	77	60	22	1	0	1458228.7733777	1458228.7738682	80	1458232.0713509	1458232.0718429	40	1458235.4041389	1458235.4046504	100	del	1458235.9410739	4.0	1458238.0607475	1458236.4544689	1458236.4549947	120.0
1009.8896484375	0.0	120	2068254	77	60	22	1	0	1458228.7733777	1458228.7738682	80	1458232.0713509	1458232.0718429	40	1458235.4041389	1458235.4046504	100	del	1458235.9410739	4.0	1458238.0607475	1458236.4544689	1458236.4549947	120.0
1013.8369140625	0.0	80	2076338	78	77	240	0	0	1458240.4020166	1458240.4024701	80	1458243.8416856	1458243.8421716	40	1458246.8833787	1458246.8838201	100	imm	1458248.3489954	nan	nan	nan	nan	nan
1017.2763671875	0.0	40	2083382	78	77	240	0	0	1458240.4020166	1458240.4024701	80	1458243.8416856	1458243.8421716	40	1458246.8833787	1458246.8838201	100	imm	1458248.3489954	nan	nan	nan	nan	nan
1020.318359375	0.0	100	2089612	78	77	240	0	0	1458240.4020166	1458240.4024701	80	1458243.8416856	1458243.8421716	40	1458246.8833787	1458246.8838201	100	imm	1458248.3489954	nan	nan	nan	nan	nan
1024.70947265625	0.0	80	2098605	79	73	120	1	1	1458251.2746793	1458251.2751687	80	1458254.5472135	1458254.5477015	40	1458257.9079244	1458257.9085146	100	del	1458261.2522665	3.0	1458262.8130571	1458261.7656626	1458261.7661475	120.0
1027.98193359375	0.0	40	2105307	79	73	120	1	1	1458251.2746793	1458251.2751687	80	1458254.5472135	1458254.5477015	40	1458257.9079244	1458257.9085146	100	del	1458261.2522665	3.0	1458262.8130571	1458261.7656626	1458261.7661475	120.0
1031.3427734375	0.0	100	2112190	79	73	120	1	1	1458251.2746793	1458251.2751687	80	1458254.5472135	1458254.5477015	40	1458257.9079244	1458257.9085146	100	del	1458261.2522665	3.0	1458262.8130571	1458261.7656626	1458261.7661475	120.0
1035.2001953125	0.0	120	2120090	79	73	120	1	1	1458251.2746793	1458251.2751687	80	1458254.5472135	1458254.5477015	40	1458257.9079244	1458257.9085146	100	del	1458261.2522665	3.0	1458262.8130571	1458261.7656626	1458261.7661475	120.0
1038.37109375	0.0	80	2126584	80	60	460	0	1	1458264.9369118	1458264.9373764	80	1458268.2160779	1458268.2165425	40	1458271.5812832	1458271.5817261	100	imm	1458274.5006256	nan	nan	nan	nan	nan
1041.650390625	0.0	40	2133300	80	60	460	0	1	1458264.9369118	1458264.9373764	80	1458268.2160779	1458268.2165425	40	1458271.5812832	1458271.5817261	100	imm	1458274.5006256	nan	nan	nan	nan	nan
1045.015625	0.0	100	2140192	80	60	460	0	1	1458264.9369118	1458264.9373764	80	1458268.2160779	1458268.2165425	40	1458271.5812832	1458271.5817261	100	imm	1458274.5006256	nan	nan	nan	nan	nan
1066.8935546875	0.0	80	2184998	81	73	700	1	0	1458293.4599694	1458293.4604706	80	1458296.689911	1458296.6904283	40	1458299.7459722	1458299.7464092	100	imm	1458301.5250841	4.0	1458303.7969181	1458302.0392501	1458302.0397516	120.0
1070.12353515625	0.0	40	2191613	81	73	700	1	0	1458293.4599694	1458293.4604706	80	1458296.689911	1458296.6904283	40	1458299.7459722	1458299.7464092	100	imm	1458301.5250841	4.0	1458303.7969181	1458302.0392501	1458302.0397516	120.0
1073.17919921875	0.0	100	2197871	81	73	700	1	0	1458293.4599694	1458293.4604706	80	1458296.689911	1458296.6904283	40	1458299.7459722	1458299.7464092	100	imm	1458301.5250841	4.0	1458303.7969181	1458302.0392501	1458302.0397516	120.0
1075.47265625	0.0	120	2202568	81	73	700	1	0	1458293.4599694	1458293.4604706	80	1458296.689911	1458296.6904283	40	1458299.7459722	1458299.7464092	100	imm	1458301.5250841	4.0	1458303.7969181	1458302.0392501	1458302.0397516	120.0
1079.27490234375	0.0	80	2210355	82	97	1070	0	1	1458305.8415359	1458305.8419837	80	1458309.1636847	1458309.164155	40	1458312.575225	1458312.5757083	100	imm	1458313.4610838	nan	nan	nan	nan	nan
1082.5966796875	0.0	40	2217158	82	97	1070	0	1	1458305.8415359	1458305.8419837	80	1458309.1636847	1458309.164155	40	1458312.575225	1458312.5757083	100	imm	1458313.4610838	nan	nan	nan	nan	nan
1086.00830078125	0.0	100	2224145	82	97	1070	0	1	1458305.8415359	1458305.8419837	80	1458309.1636847	1458309.164155	40	1458312.575225	1458312.5757083	100	imm	1458313.4610838	nan	nan	nan	nan	nan
1089.75732421875	0.0	80	2231823	83	77	160	0	0	1458316.3245399	1458316.3250181	80	1458319.505282	1458319.5057011	40	1458322.9855723	1458322.985747	100	del	1458327.5885312	nan	nan	nan	nan	nan
1092.93798828125	0.0	40	2238337	83	77	160	0	0	1458316.3245399	1458316.3250181	80	1458319.505282	1458319.5057011	40	1458322.9855723	1458322.985747	100	del	1458327.5885312	nan	nan	nan	nan	nan
1096.41845703125	0.0	100	2245465	83	77	160	0	0	1458316.3245399	1458316.3250181	80	1458319.505282	1458319.5057011	40	1458322.9855723	1458322.985747	100	del	1458327.5885312	nan	nan	nan	nan	nan
1103.798828125	0.0	80	2260580	84	90	700	1	1	1458330.3660439	1458330.3666189	80	1458333.8511187	1458333.8518005	40	1458336.901939	1458336.9024313	100	imm	1458337.9652941	4.0	1458340.004777	1458338.4785343	1458338.4789737	120.0
1107.28369140625	0.0	40	2267717	84	90	700	1	1	1458330.3660439	1458330.3666189	80	1458333.8511187	1458333.8518005	40	1458336.901939	1458336.9024313	100	imm	1458337.9652941	4.0	1458340.004777	1458338.4785343	1458338.4789737	120.0
1110.33447265625	0.0	100	2273965	84	90	700	1	1	1458330.3660439	1458330.3666189	80	1458333.8511187	1458333.8518005	40	1458336.901939	1458336.9024313	100	imm	1458337.9652941	4.0	1458340.004777	1458338.4785343	1458338.4789737	120.0
1111.91064453125	0.0	120	2277193	84	90	700	1	1	1458330.3660439	1458330.3666189	80	1458333.8511187	1458333.8518005	40	1458336.901939	1458336.9024313	100	imm	1458337.9652941	4.0	1458340.004777	1458338.4785343	1458338.4789737	120.0
1115.55615234375	0.0	80	2284659	85	80	22	1	0	1458342.1240218	1458342.124455	80	1458345.5196629	1458345.5200464	40	1458348.9902114	1458348.9907145	100	del	1458350.0292534	4.0	1458351.501127	1458350.538197	1458350.5384831	120.0
1118.95166015625	0.0	40	2291613	85	80	22	1	0	1458342.1240218	1458342.124455	80	1458345.5196629	1458345.5200464	40	1458348.9902114	1458348.9907145	100	del	1458350.0292534	4.0	1458351.501127	1458350.538197	1458350.5384831	120.0
1122.42236328125	0.0	100	2298721	85	80	22	1	0	1458342.1240218	1458342.124455	80	1458345.5196629	1458345.5200464	40	1458348.9902114	1458348.9907145	100	del	1458350.0292534	4.0	1458351.501127	1458350.538197	1458350.5384831	120.0
1123.97021484375	0.0	120	2301891	85	80	22	1	0	1458342.1240218	1458342.124455	80	1458345.5196629	1458345.5200464	40	1458348.9902114	1458348.9907145	100	del	1458350.0292534	4.0	1458351.501127	1458350.538197	1458350.5384831	120.0
1127.34033203125	0.0	80	2308793	86	77	60	0	0	1458353.9084321	1458353.9088292	80	1458357.0655202	1458357.0660382	40	1458360.1546799	1458360.1551736	100	del	1458360.8766558	nan	nan	nan	nan	nan
1130.49755859375	0.0	40	2315259	86	77	60	0	0	1458353.9084321	1458353.9088292	80	1458357.0655202	1458357.0660382	40	1458360.1546799	1458360.1551736	100	del	1458360.8766558	nan	nan	nan	nan	nan
1133.58642578125	0.0	100	2321585	86	77	60	0	0	1458353.9084321	1458353.9088292	80	1458357.0655202	1458357.0660382	40	1458360.1546799	1458360.1551736	100	del	1458360.8766558	nan	nan	nan	nan	nan
1137.25048828125	0.0	80	2329089	87	67	240	0	1	1458363.8188257	1458363.8193118	80	1458367.2177332	1458367.2181762	40	1458370.3636643	1458370.3640471	100	imm	1458370.9253389	nan	nan	nan	nan	nan
1140.6494140625	0.0	40	2336050	87	67	240	0	1	1458363.8188257	1458363.8193118	80	1458367.2177332	1458367.2181762	40	1458370.3636643	1458370.3640471	100	imm	1458370.9253389	nan	nan	nan	nan	nan
1143.794921875	0.0	100	2342492	87	67	240	0	1	1458363.8188257	1458363.8193118	80	1458367.2177332	1458367.2181762	40	1458370.3636643	1458370.3640471	100	imm	1458370.9253389	nan	nan	nan	nan	nan
1146.98876953125	0.0	80	2349033	88	80	700	1	1	1458373.5573509	1458373.557863	80	1458376.7254352	1458376.7259109	40	1458380.1554042	1458380.155969	100	imm	1458382.5088697	4.0	1458384.2848645	1458383.0195168	1458383.019821	120.0
1150.15673828125	0.0	40	2355521	88	80	700	1	1	1458373.5573509	1458373.557863	80	1458376.7254352	1458376.7259109	40	1458380.1554042	1458380.155969	100	imm	1458382.5088697	4.0	1458384.2848645	1458383.0195168	1458383.019821	120.0
1153.58642578125	0.0	100	2362545	88	80	700	1	1	1458373.5573509	1458373.557863	80	1458376.7254352	1458376.7259109	40	1458380.1554042	1458380.155969	100	imm	1458382.5088697	4.0	1458384.2848645	1458383.0195168	1458383.019821	120.0
1156.45068359375	0.0	120	2368411	88	80	700	1	1	1458373.5573509	1458373.557863	80	1458376.7254352	1458376.7259109	40	1458380.1554042	1458380.155969	100	imm	1458382.5088697	4.0	1458384.2848645	1458383.0195168	1458383.019821	120.0
1160.14208984375	0.0	80	2375971	89	90	160	0	1	1458386.7111655	1458386.7117792	80	1458390.0040161	1458390.0044418	40	1458393.3030434	1458393.3035003	100	imm	1458394.8366496	nan	nan	nan	nan	nan
1163.43505859375	0.0	40	2382715	89	90	160	0	1	1458386.7111655	1458386.7117792	80	1458390.0040161	1458390.0044418	40	1458393.3030434	1458393.3035003	100	imm	1458394.8366496	nan	nan	nan	nan	nan
1166.73388671875	0.0	100	2389471	89	90	160	0	1	1458386.7111655	1458386.7117792	80	1458390.0040161	1458390.0044418	40	1458393.3030434	1458393.3035003	100	imm	1458394.8366496	nan	nan	nan	nan	nan
1170.92822265625	0.0	80	2398061	90	77	460	0	0	1458397.4975462	1458397.4980404	80	1458400.8546621	1458400.8550893	40	1458404.2660347	1458404.2665359	100	imm	1458405.1340094	nan	nan	nan	nan	nan
1174.28515625	0.0	40	2404936	90	77	460	0	0	1458397.4975462	1458397.4980404	80	1458400.8546621	1458400.8550893	40	1458404.2660347	1458404.2665359	100	imm	1458405.1340094	nan	nan	nan	nan	nan
1177.6962890625	0.0	100	2411922	90	77	460	0	0	1458397.4975462	1458397.4980404	80	1458400.8546621	1458400.8550893	40	1458404.2660347	1458404.2665359	100	imm	1458405.1340094	nan	nan	nan	nan	nan
1181.30322265625	0.0	80	2419309	91	80	300	1	1	1458407.8728543	1458407.8733303	80	1458411.1039034	1458411.1044093	40	1458414.3505825	1458414.351196	100	imm	1458415.2446902	3.0	1458416.4374233	1458415.7579172	1458415.758358	120.0
1184.5341796875	0.0	40	2425926	91	80	300	1	1	1458407.8728543	1458407.8733303	80	1458411.1039034	1458411.1044093	40	1458414.3505825	1458414.351196	100	imm	1458415.2446902	3.0	1458416.4374233	1458415.7579172	1458415.758358	120.0
1187.78076171875	0.0	100	2432575	91	80	300	1	1	1458407.8728543	1458407.8733303	80	1458411.1039034	1458411.1044093	40	1458414.3505825	1458414.351196	100	imm	1458415.2446902	3.0	1458416.4374233	1458415.7579172	1458415.758358	120.0
1189.18798828125	0.0	120	2435457	91	80	300	1	1	1458407.8728543	1458407.8733303	80	1458411.1039034	1458411.1044093	40	1458414.3505825	1458414.351196	100	imm	1458415.2446902	3.0	1458416.4374233	1458415.7579172	1458415.758358	120.0
1192.0224609375	0.0	80	2441262	92	63	160	0	1	1458418.5924531	1458418.592965	80	1458421.9376136	1458421.9380904	40	1458425.4029925	1458425.4034803	100	imm	1458427.6525464	nan	nan	nan	nan	nan
1195.36767578125	0.0	40	2448113	92	63	160	0	1	1458418.5924531	1458418.592965	80	1458421.9376136	1458421.9380904	40	1458425.4029925	1458425.4034803	100	imm	1458427.6525464	nan	nan	nan	nan	nan
1198.8330078125	0.0	100	2455210	92	63	160	0	1	1458418.5924531	1458418.592965	80	1458421.9376136	1458421.9380904	40	1458425.4029925	1458425.4034803	100	imm	1458427.6525464	nan	nan	nan	nan	nan
1204.05419921875	0.0	80	2465903	93	67	60	0	0	1458430.6244682	1458430.6249643	80	1458434.0063191	1458434.0068827	40	1458437.1501706	1458437.1506417	100	imm	1458438.1011982	nan	nan	nan	nan	nan
1207.43603515625	0.0	40	2472829	93	67	60	0	0	1458430.6244682	1458430.6249643	80	1458434.0063191	1458434.0068827	40	1458437.1501706	1458437.1506417	100	imm	1458438.1011982	nan	nan	nan	nan	nan
1210.57958984375	0.0	100	2479267	93	67	60	0	0	1458430.6244682	1458430.6249643	80	1458434.0063191	1458434.0068827	40	1458437.1501706	1458437.1506417	100	imm	1458438.1011982	nan	nan	nan	nan	nan
1214.392578125	0.0	80	2487076	94	93	460	0	1	1458440.9631478	1458440.9636109	80	1458444.0368793	1458444.0374003	40	1458447.1118622	1458447.1124002	100	imm	1458448.0285356	nan	nan	nan	nan	nan
1217.46630859375	0.0	40	2493371	94	93	460	0	1	1458440.9631478	1458440.9636109	80	1458444.0368793	1458444.0374003	40	1458447.1118622	1458447.1124002	100	imm	1458448.0285356	nan	nan	nan	nan	nan
1220.541015625	0.0	100	2499668	94	93	460	0	1	1458440.9631478	1458440.9636109	80	1458444.0368793	1458444.0374003	40	1458447.1118622	1458447.1124002	100	imm	1458448.0285356	nan	nan	nan	nan	nan
1224.0703125	0.0	80	2506896	95	60	240	0	1	1458450.6413582	1458450.641812	80	1458453.7219889	1458453.722478	40	1458457.0280357	1458457.0285734	100	imm	1458458.4849684	nan	nan	nan	nan	nan
1227.15087890625	0.0	40	2513205	95	60	240	0	1	1458450.6413582	1458450.641812	80	1458453.7219889	1458453.722478	40	1458457.0280357	1458457.0285734	100	imm	1458458.4849684	nan	nan	nan	nan	nan
1230.45703125	0.0	100	2519976	95	60	240	0	1	1458450.6413582	1458450.641812	80	1458453.7219889	1458453.722478	40	1458457.0280357	1458457.0285734	100	imm	1458458.4849684	nan	nan	nan	nan	nan
1234.46826171875	0.0	80	2528191	96	50	1070	0	0	1458461.0394337	1458461.039894	80	1458464.4582438	1458464.458726	40	1458467.8327711	1458467.8332442	100	imm	1458470.0686776	nan	nan	nan	nan	nan
1237.88720703125	0.0	40	2535193	96	50	1070	0	0	1458461.0394337	1458461.039894	80	1458464.4582438	1458464.458726	40	1458467.8327711	1458467.8332442	100	imm	1458470.0686776	nan	nan	nan	nan	nan
1241.26171875	0.0	100	2542104	96	50	1070	0	0	1458461.0394337	1458461.039894	80	1458464.4582438	1458464.458726	40	1458467.8327711	1458467.8332442	100	imm	1458470.0686776	nan	nan	nan	nan	nan
1246.4775390625	0.0	80	2552786	97	93	190	1	1	1458473.0488242	1458473.0492884	80	1458476.3033395	1458476.3038229	40	1458479.6443025	1458479.6448076	100	imm	1458480.2366254	1.0	1458482.5963459	1458480.7477492	1458480.7481649	120.0
1249.73193359375	0.0	40	2559451	97	93	190	1	1	1458473.0488242	1458473.0492884	80	1458476.3033395	1458476.3038229	40	1458479.6443025	1458479.6448076	100	imm	1458480.2366254	1.0	1458482.5963459	1458480.7477492	1458480.7481649	120.0
1253.07275390625	0.0	100	2566293	97	93	190	1	1	1458473.0488242	1458473.0492884	80	1458476.3033395	1458476.3038229	40	1458479.6443025	1458479.6448076	100	imm	1458480.2366254	1.0	1458482.5963459	1458480.7477492	1458480.7481649	120.0
1254.17626953125	0.0	120	2568553	97	93	190	1	1	1458473.0488242	1458473.0492884	80	1458476.3033395	1458476.3038229	40	1458479.6443025	1458479.6448076	100	imm	1458480.2366254	1.0	1458482.5963459	1458480.7477492	1458480.7481649	120.0
1258.4873046875	0.0	80	2577382	98	53	22	1	0	1458485.0589123	1458485.0593563	80	1458488.3363201	1458488.3367824	40	1458491.4907382	1458491.4912288	100	na	1458494.3171805	4.0	1458497.3263999	1458494.8264136	1458494.8267643	120.0
1261.7646484375	0.0	40	2584094	98	53	22	1	0	1458485.0589123	1458485.0593563	80	1458488.3363201	1458488.3367824	40	1458491.4907382	1458491.4912288	100	na	1458494.3171805	4.0	1458497.3263999	1458494.8264136	1458494.8267643	120.0
1264.9189453125	0.0	100	2590554	98	53	22	1	0	1458485.0589123	1458485.0593563	80	1458488.3363201	1458488.3367824	40	1458491.4907382	1458491.4912288	100	na	1458494.3171805	4.0	1458497.3263999	1458494.8264136	1458494.8267643	120.0
1268.25439453125	0.0	120	2597385	98	53	22	1	0	1458485.0589123	1458485.0593563	80	1458488.3363201	1458488.3367824	40	1458491.4907382	1458491.4912288	100	na	1458494.3171805	4.0	1458497.3263999	1458494.8264136	1458494.8267643	120.0
1273.25634765625	0.0	80	2607629	99	70	460	0	0	1458499.8285101	1458499.829045	80	1458502.8544365	1458502.8548518	40	1458506.0346995	1458506.0351798	100	imm	1458508.10143	nan	nan	nan	nan	nan
1276.2822265625	0.0	40	2613826	99	70	460	0	0	1458499.8285101	1458499.829045	80	1458502.8544365	1458502.8548518	40	1458506.0346995	1458506.0351798	100	imm	1458508.10143	nan	nan	nan	nan	nan
1279.46240234375	0.0	100	2620339	99	70	460	0	0	1458499.8285101	1458499.829045	80	1458502.8544365	1458502.8548518	40	1458506.0346995	1458506.0351798	100	imm	1458508.10143	nan	nan	nan	nan	nan
1284.533203125	0.0	80	2630724	100	100	160	0	0	1458511.1057816	1458511.1062526	80	1458514.2958947	1458514.2963434	40	1458517.4646954	1458517.4652428	100	imm	1458518.5088206	nan	nan	nan	nan	nan
1287.72314453125	0.0	40	2637257	100	100	160	0	0	1458511.1057816	1458511.1062526	80	1458514.2958947	1458514.2963434	40	1458517.4646954	1458517.4652428	100	imm	1458518.5088206	nan	nan	nan	nan	nan
1290.89208984375	0.0	100	2643747	100	100	160	0	0	1458511.1057816	1458511.1062526	80	1458514.2958947	1458514.2963434	40	1458517.4646954	1458517.4652428	100	imm	1458518.5088206	nan	nan	nan	nan	nan
1300.6875	0.0	80	2663808	101	53	300	1	0	1458527.2605896	1458527.2610314	80	1458530.7259417	1458530.7263861	40	1458533.8067651	1458533.8072618	100	imm	1458534.3418961	1.0	1458535.8534022	1458534.8523835	1458534.8527419	120.0
1304.15283203125	0.0	40	2670905	101	53	300	1	0	1458527.2605896	1458527.2610314	80	1458530.7259417	1458530.7263861	40	1458533.8067651	1458533.8072618	100	imm	1458534.3418961	1.0	1458535.8534022	1458534.8523835	1458534.8527419	120.0
1307.2333984375	0.0	100	2677214	101	53	300	1	0	1458527.2605896	1458527.2610314	80	1458530.7259417	1458530.7263861	40	1458533.8067651	1458533.8072618	100	imm	1458534.3418961	1.0	1458535.8534022	1458534.8523835	1458534.8527419	120.0
1308.279296875	0.0	120	2679356	101	53	300	1	0	1458527.2605896	1458527.2610314	80	1458530.7259417	1458530.7263861	40	1458533.8067651	1458533.8072618	100	imm	1458534.3418961	1.0	1458535.8534022	1458534.8523835	1458534.8527419	120.0
1311.46240234375	0.0	80	2685875	102	100	120	1	0	1458538.0356503	1458538.0361535	80	1458541.4922285	1458541.4927908	40	1458544.754843	1458544.755363	100	del	1458546.76642	3.0	1458548.7253271	1458547.2763094	1458547.2766385	120.0
1314.9189453125	0.0	40	2692954	102	100	120	1	0	1458538.0356503	1458538.0361535	80	1458541.4922285	1458541.4927908	40	1458544.754843	1458544.755363	100	del	1458546.76642	3.0	1458548.7253271	1458547.2763094	1458547.2766385	120.0
1318.181640625	0.0	100	2699636	102	100	120	1	0	1458538.0356503	1458538.0361535	80	1458541.4922285	1458541.4927908	40	1458544.754843	1458544.755363	100	del	1458546.76642	3.0	1458548.7253271	1458547.2763094	1458547.2766385	120.0
1320.70263671875	0.0	120	2704799	102	100	120	1	0	1458538.0356503	1458538.0361535	80	1458541.4922285	1458541.4927908	40	1458544.754843	1458544.755363	100	del	1458546.76642	3.0	1458548.7253271	1458547.2763094	1458547.2766385	120.0
1324.4755859375	0.0	80	2712526	103	83	160	0	0	1458551.0493185	1458551.049778	80	1458554.3483175	1458554.3487433	40	1458557.7109115	1458557.711389	100	del	1458559.0528451	nan	nan	nan	nan	nan
1327.7744140625	0.0	40	2719282	103	83	160	0	0	1458551.0493185	1458551.049778	80	1458554.3483175	1458554.3487433	40	1458557.7109115	1458557.711389	100	del	1458559.0528451	nan	nan	nan	nan	nan
1331.13720703125	0.0	100	2726169	103	83	160	0	0	1458551.0493185	1458551.049778	80	1458554.3483175	1458554.3487433	40	1458557.7109115	1458557.711389	100	del	1458559.0528451	nan	nan	nan	nan	nan
1335.01025390625	0.0	80	2734101	104	93	22	1	1	1458561.5840863	1458561.5846077	80	1458564.8555606	1458564.8559832	40	1458567.8850901	1458567.8855693	100	del	1458569.0783385	4.0	1458570.3501643	1458569.5912326	1458569.5917528	120.0
1338.28173828125	0.0	40	2740801	104	93	22	1	1	1458561.5840863	1458561.5846077	80	1458564.8555606	1458564.8559832	40	1458567.8850901	1458567.8855693	100	del	1458569.0783385	4.0	1458570.3501643	1458569.5912326	1458569.5917528	120.0
1341.31103515625	0.0	100	2747005	104	93	22	1	1	1458561.5840863	1458561.5846077	80	1458564.8555606	1458564.8559832	40	1458567.8850901	1458567.8855693	100	del	1458569.0783385	4.0	1458570.3501643	1458569.5912326	1458569.5917528	120.0
1343.01708984375	0.0	120	2750499	104	93	22	1	1	1458561.5840863	1458561.5846077	80	1458564.8555606	1458564.8559832	40	1458567.8850901	1458567.8855693	100	del	1458569.0783385	4.0	1458570.3501643	1458569.5912326	1458569.5917528	120.0
1346.205078125	0.0	80	2757028	105	83	700	1	1	1458572.7792265	1458572.7797225	80	1458575.956988	1458575.957445	40	1458579.3936338	1458579.3941023	100	imm	1458580.4695714	4.0	1458581.8449367	1458580.9828514	1458580.9832598	120.0
1349.3828125	0.0	40	2763536	105	83	700	1	1	1458572.7792265	1458572.7797225	80	1458575.956988	1458575.957445	40	1458579.3936338	1458579.3941023	100	imm	1458580.4695714	4.0	1458581.8449367	1458580.9828514	1458580.9832598	120.0
1352.8193359375	0.0	100	2770574	105	83	700	1	1	1458572.7792265	1458572.7797225	80	1458575.956988	1458575.957445	40	1458579.3936338	1458579.3941023	100	imm	1458580.4695714	4.0	1458581.8449367	1458580.9828514	1458580.9832598	120.0
1354.408203125	0.0	120	2773828	105	83	700	1	1	1458572.7792265	1458572.7797225	80	1458575.956988	1458575.957445	40	1458579.3936338	1458579.3941023	100	imm	1458580.4695714	4.0	1458581.8449367	1458580.9828514	1458580.9832598	120.0
1357.40869140625	0.0	80	2779973	106	90	190	1	0	1458583.9831054	1458583.983595	80	1458587.2813203	1458587.2818011	40	1458590.7635604	1458590.7640781	100	del	1458593.6693894	4.0	1458595.4847652	1458594.1817375	1458594.1821961	120.0
1360.70654296875	0.0	40	2786727	106	90	190	1	0	1458583.9831054	1458583.983595	80	1458587.2813203	1458587.2818011	40	1458590.7635604	1458590.7640781	100	del	1458593.6693894	4.0	1458595.4847652	1458594.1817375	1458594.1821961	120.0
1364.18896484375	0.0	100	2793859	106	90	190	1	0	1458583.9831054	1458583.983595	80	1458587.2813203	1458587.2818011	40	1458590.7635604	1458590.7640781	100	del	1458593.6693894	4.0	1458595.4847652	1458594.1817375	1458594.1821961	120.0
1367.60693359375	0.0	120	2800859	106	90	190	1	0	1458583.9831054	1458583.983595	80	1458587.2813203	1458587.2818011	40	1458590.7635604	1458590.7640781	100	del	1458593.6693894	4.0	1458595.4847652	1458594.1817375	1458594.1821961	120.0
1370.95068359375	0.0	80	2807707	107	83	190	1	1	1458597.525471	1458597.5259756	80	1458600.5599338	1458600.5603603	40	1458603.5832407	1458603.5837805	100	imm	1458604.556597	4.0	1458605.9166434	1458605.0693582	1458605.0698348	120.0
1373.98486328125	0.0	40	2813921	107	83	190	1	1	1458597.525471	1458597.5259756	80	1458600.5599338	1458600.5603603	40	1458603.5832407	1458603.5837805	100	imm	1458604.556597	4.0	1458605.9166434	1458605.0693582	1458605.0698348	120.0
1377.00830078125	0.0	100	2820113	107	83	190	1	1	1458597.525471	1458597.5259756	80	1458600.5599338	1458600.5603603	40	1458603.5832407	1458603.5837805	100	imm	1458604.556597	4.0	1458605.9166434	1458605.0693582	1458605.0698348	120.0
1378.494140625	0.0	120	2823156	107	83	190	1	1	1458597.525471	1458597.5259756	80	1458600.5599338	1458600.5603603	40	1458603.5832407	1458603.5837805	100	imm	1458604.556597	4.0	1458605.9166434	1458605.0693582	1458605.0698348	120.0
1381.6982421875	0.0	80	2829718	108	63	1070	0	0	1458608.2734907	1458608.2739987	80	1458611.5804344	1458611.580912	40	1458614.6503034	1458614.6509467	100	imm	1458615.3025306	nan	nan	nan	nan	nan
1385.00537109375	0.0	40	2836491	108	63	1070	0	0	1458608.2734907	1458608.2739987	80	1458611.5804344	1458611.580912	40	1458614.6503034	1458614.6509467	100	imm	1458615.3025306	nan	nan	nan	nan	nan
1388.0751953125	0.0	100	2842778	108	63	1070	0	0	1458608.2734907	1458608.2739987	80	1458611.5804344	1458611.580912	40	1458614.6503034	1458614.6509467	100	imm	1458615.3025306	nan	nan	nan	nan	nan
1391.64306640625	0.0	80	2850085	109	70	60	0	0	1458618.2186059	1458618.2191446	80	1458621.535142	1458621.5356487	40	1458624.5831496	1458624.5836618	100	imm	1458625.6366721	nan	nan	nan	nan	nan
1394.95947265625	0.0	40	2856877	109	70	60	0	0	1458618.2186059	1458618.2191446	80	1458621.535142	1458621.5356487	40	1458624.5831496	1458624.5836618	100	imm	1458625.6366721	nan	nan	nan	nan	nan
1398.00732421875	0.0	100	2863119	109	70	60	0	0	1458618.2186059	1458618.2191446	80	1458621.535142	1458621.5356487	40	1458624.5831496	1458624.5836618	100	imm	1458625.6366721	nan	nan	nan	nan	nan
1401.61376953125	0.0	80	2870505	110	90	120	1	0	1458628.1894795	1458628.1899383	80	1458631.2650139	1458631.2655711	40	1458634.6738397	1458634.6743693	100	del	1458635.8211269	4.0	1458637.708664	1458636.3345065	1458636.3350198	120.0
1404.689453125	0.0	40	2876804	110	90	120	1	0	1458628.1894795	1458628.1899383	80	1458631.2650139	1458631.2655711	40	1458634.6738397	1458634.6743693	100	del	1458635.8211269	4.0	1458637.708664	1458636.3345065	1458636.3350198	120.0
1408.09814453125	0.0	100	2883785	110	90	120	1	0	1458628.1894795	1458628.1899383	80	1458631.2650139	1458631.2655711	40	1458634.6738397	1458634.6743693	100	del	1458635.8211269	4.0	1458637.708664	1458636.3345065	1458636.3350198	120.0
1409.7587890625	0.0	120	2887186	110	90	120	1	0	1458628.1894795	1458628.1899383	80	1458631.2650139	1458631.2655711	40	1458634.6738397	1458634.6743693	100	del	1458635.8211269	4.0	1458637.708664	1458636.3345065	1458636.3350198	120.0
1413.19482421875	0.0	80	2894223	111	50	160	0	0	1458639.7707178	1458639.7711748	80	1458642.8975266	1458642.8980511	40	1458646.0322742	1458646.0327515	100	imm	1458647.3412326	nan	nan	nan	nan	nan
1416.3212890625	0.0	40	2900626	111	50	160	0	0	1458639.7707178	1458639.7711748	80	1458642.8975266	1458642.8980511	40	1458646.0322742	1458646.0327515	100	imm	1458647.3412326	nan	nan	nan	nan	nan
1419.4560546875	0.0	100	2907046	111	50	160	0	0	1458639.7707178	1458639.7711748	80	1458642.8975266	1458642.8980511	40	1458646.0322742	1458646.0327515	100	imm	1458647.3412326	nan	nan	nan	nan	nan
1423.333984375	0.0	80	2914988	112	73	60	0	1	1458649.910342	1458649.91082	80	1458653.3479068	1458653.3484781	40	1458656.7100483	1458656.7105499	100	imm	1458659.188949	nan	nan	nan	nan	nan
1426.771484375	0.0	40	2922028	112	73	60	0	1	1458649.910342	1458649.91082	80	1458653.3479068	1458653.3484781	40	1458656.7100483	1458656.7105499	100	imm	1458659.188949	nan	nan	nan	nan	nan
1430.13330078125	0.0	100	2928913	112	73	60	0	1	1458649.910342	1458649.91082	80	1458653.3479068	1458653.3484781	40	1458656.7100483	1458656.7105499	100	imm	1458659.188949	nan	nan	nan	nan	nan
1435.4970703125	0.0	80	2939898	113	53	460	0	1	1458662.0737456	1458662.0742026	80	1458665.4065826	1458665.4070377	40	1458668.6778682	1458668.6784175	100	del	1458669.3973318	nan	nan	nan	nan	nan
1438.82958984375	0.0	40	2946723	113	53	460	0	1	1458662.0737456	1458662.0742026	80	1458665.4065826	1458665.4070377	40	1458668.6778682	1458668.6784175	100	del	1458669.3973318	nan	nan	nan	nan	nan
1442.10107421875	0.0	100	2953423	113	53	460	0	1	1458662.0737456	1458662.0742026	80	1458665.4065826	1458665.4070377	40	1458668.6778682	1458668.6784175	100	del	1458669.3973318	nan	nan	nan	nan	nan
1445.50048828125	0.0	80	2960385	114	63	700	1	0	1458672.0772925	1458672.077894	80	1458675.4157516	1458675.4162307	40	1458678.4889642	1458678.4894368	100	imm	1458680.1248963	4.0	1458682.0455506	1458680.6367226	1458680.637179	120.0
1448.8388671875	0.0	40	2967222	114	63	700	1	0	1458672.0772925	1458672.077894	80	1458675.4157516	1458675.4162307	40	1458678.4889642	1458678.4894368	100	imm	1458680.1248963	4.0	1458682.0455506	1458680.6367226	1458680.637179	120.0
1451.91162109375	0.0	100	2973515	114	63	700	1	0	1458672.0772925	1458672.077894	80	1458675.4157516	1458675.4162307	40	1458678.4889642	1458678.4894368	100	imm	1458680.1248963	4.0	1458682.0455506	1458680.6367226	1458680.637179	120.0
1454.0595703125	0.0	120	2977914	114	63	700	1	0	1458672.0772925	1458672.077894	80	1458675.4157516	1458675.4162307	40	1458678.4889642	1458678.4894368	100	imm	1458680.1248963	4.0	1458682.0455506	1458680.6367226	1458680.637179	120.0
1457.55712890625	0.0	80	2985077	115	63	460	0	0	1458684.1346673	1458684.1355072	80	1458687.1525418	1458687.152991	40	1458690.6477478	1458690.6482827	100	imm	1458691.5970089	nan	nan	nan	nan	nan
1460.5751953125	0.0	40	2991258	115	63	460	0	0	1458684.1346673	1458684.1355072	80	1458687.1525418	1458687.152991	40	1458690.6477478	1458690.6482827	100	imm	1458691.5970089	nan	nan	nan	nan	nan
1464.0703125	0.0	100	2998416	115	63	460	0	0	1458684.1346673	1458684.1355072	80	1458687.1525418	1458687.152991	40	1458690.6477478	1458690.6482827	100	imm	1458691.5970089	nan	nan	nan	nan	nan
1468.021484375	0.0	80	3006508	116	90	300	1	0	1458694.5991606	1458694.5995948	80	1458697.6684581	1458697.6690481	40	1458700.9157147	1458700.9162368	100	del	1458703.2294289	4.0	1458704.988997	1458703.7383255	1458703.7386641	120.0
1471.0908203125	0.0	40	3012794	116	90	300	1	0	1458694.5991606	1458694.5995948	80	1458697.6684581	1458697.6690481	40	1458700.9157147	1458700.9162368	100	del	1458703.2294289	4.0	1458704.988997	1458703.7383255	1458703.7386641	120.0
1474.337890625	0.0	100	3019444	116	90	300	1	0	1458694.5991606	1458694.5995948	80	1458697.6684581	1458697.6690481	40	1458700.9157147	1458700.9162368	100	del	1458703.2294289	4.0	1458704.988997	1458703.7383255	1458703.7386641	120.0
1477.16015625	0.0	120	3025224	116	90	300	1	0	1458694.5991606	1458694.5995948	80	1458697.6684581	1458697.6690481	40	1458700.9157147	1458700.9162368	100	del	1458703.2294289	4.0	1458704.988997	1458703.7383255	1458703.7386641	120.0
1480.75537109375	0.0	80	3032587	117	97	240	0	0	1458707.3335091	1458707.3340027	80	1458710.4862856	1458710.4867781	40	1458713.877134	1458713.8776521	100	imm	1458715.8130493	nan	nan	nan	nan	nan
1483.908203125	0.0	40	3039044	117	97	240	0	0	1458707.3335091	1458707.3340027	80	1458710.4862856	1458710.4867781	40	1458713.877134	1458713.8776521	100	imm	1458715.8130493	nan	nan	nan	nan	nan
1487.298828125	0.0	100	3045988	117	97	240	0	0	1458707.3335091	1458707.3340027	80	1458710.4862856	1458710.4867781	40	1458713.877134	1458713.8776521	100	imm	1458715.8130493	nan	nan	nan	nan	nan
1492.03125	0.0	80	3055680	118	63	300	1	1	1458718.609681	1458718.6101482	80	1458721.8312084	1458721.8317464	40	1458724.978394	1458724.9789361	100	imm	1458726.2129865	1.0	1458727.7008149	1458726.725719	1458726.7262061	120.0
1495.2529296875	0.0	40	3062278	118	63	300	1	1	1458718.609681	1458718.6101482	80	1458721.8312084	1458721.8317464	40	1458724.978394	1458724.9789361	100	imm	1458726.2129865	1.0	1458727.7008149	1458726.725719	1458726.7262061	120.0
1498.39990234375	0.0	100	3068723	118	63	300	1	1	1458718.609681	1458718.6101482	80	1458721.8312084	1458721.8317464	40	1458724.978394	1458724.9789361	100	imm	1458726.2129865	1.0	1458727.7008149	1458726.725719	1458726.7262061	120.0
1500.1474609375	0.0	120	3072302	118	63	300	1	1	1458718.609681	1458718.6101482	80	1458721.8312084	1458721.8317464	40	1458724.978394	1458724.9789361	100	imm	1458726.2129865	1.0	1458727.7008149	1458726.725719	1458726.7262061	120.0
1503.515625	0.0	80	3079200	119	93	700	1	1	1458730.0943093	1458730.0947278	80	1458733.5509302	1458733.5514105	40	1458736.9289892	1458736.9295342	100	imm	1458737.5262261	2.0	1458740.294631	1458738.039508	1458738.040038	120.0
1506.97216796875	0.0	40	3086279	119	93	700	1	1	1458730.0943093	1458730.0947278	80	1458733.5509302	1458733.5514105	40	1458736.9289892	1458736.9295342	100	imm	1458737.5262261	2.0	1458740.294631	1458738.039508	1458738.040038	120.0
1510.35009765625	0.0	100	3093197	119	93	700	1	1	1458730.0943093	1458730.0947278	80	1458733.5509302	1458733.5514105	40	1458736.9289892	1458736.9295342	100	imm	1458737.5262261	2.0	1458740.294631	1458738.039508	1458738.040038	120.0
1511.4609375	0.0	120	3095472	119	93	700	1	1	1458730.0943093	1458730.0947278	80	1458733.5509302	1458733.5514105	40	1458736.9289892	1458736.9295342	100	imm	1458737.5262261	2.0	1458740.294631	1458738.039508	1458738.040038	120.0
1515.9404296875	0.0	80	3104646	120	100	1070	0	0	1458742.5195244	1458742.5199718	80	1458745.9961708	1458745.9966221	40	1458749.1381952	1458749.1387146	100	imm	1458751.7014107	nan	nan	nan	nan	nan
1519.4169921875	0.0	40	3111766	120	100	1070	0	0	1458742.5195244	1458742.5199718	80	1458745.9961708	1458745.9966221	40	1458749.1381952	1458749.1387146	100	imm	1458751.7014107	nan	nan	nan	nan	nan
1522.55908203125	0.0	100	3118201	120	100	1070	0	0	1458742.5195244	1458742.5199718	80	1458745.9961708	1458745.9966221	40	1458749.1381952	1458749.1387146	100	imm	1458751.7014107	nan	nan	nan	nan	nan
1531.13671875	0.0	80	3135768	121	80	120	1	1	1458757.7161891	1458757.71666	80	1458761.2015076	1458761.202032	40	1458764.3482897	1458764.3488153	100	del	1458765.6691931	4.0	1458767.6615942	1458766.1824578	1458766.1829228	120.0
1534.6220703125	0.0	40	3142906	121	80	120	1	1	1458757.7161891	1458757.71666	80	1458761.2015076	1458761.202032	40	1458764.3482897	1458764.3488153	100	del	1458765.6691931	4.0	1458767.6615942	1458766.1824578	1458766.1829228	120.0
1537.7685546875	0.0	100	3149350	121	80	120	1	1	1458757.7161891	1458757.71666	80	1458761.2015076	1458761.202032	40	1458764.3482897	1458764.3488153	100	del	1458765.6691931	4.0	1458767.6615942	1458766.1824578	1458766.1829228	120.0
1539.60302734375	0.0	120	3153107	121	80	120	1	1	1458757.7161891	1458757.71666	80	1458761.2015076	1458761.202032	40	1458764.3482897	1458764.3488153	100	del	1458765.6691931	4.0	1458767.6615942	1458766.1824578	1458766.1829228	120.0
1543.22314453125	0.0	80	3160521	122	60	700	1	1	1458769.8026917	1458769.8030929	80	1458773.2741744	1458773.2746756	40	1458776.3221579	1458776.3225956	100	imm	1458776.8134359	4.0	1458778.2130694	1458777.3265145	1458777.327017	120.0
1546.6943359375	0.0	40	3167630	122	60	700	1	1	1458769.8026917	1458769.8030929	80	1458773.2741744	1458773.2746756	40	1458776.3221579	1458776.3225956	100	imm	1458776.8134359	4.0	1458778.2130694	1458777.3265145	1458777.327017	120.0
1549.7421875	0.0	100	3173872	122	60	700	1	1	1458769.8026917	1458769.8030929	80	1458773.2741744	1458773.2746756	40	1458776.3221579	1458776.3225956	100	imm	1458776.8134359	4.0	1458778.2130694	1458777.3265145	1458777.327017	120.0
1550.74658203125	0.0	120	3175929	122	60	700	1	1	1458769.8026917	1458769.8030929	80	1458773.2741744	1458773.2746756	40	1458776.3221579	1458776.3225956	100	imm	1458776.8134359	4.0	1458778.2130694	1458777.3265145	1458777.327017	120.0
1553.79833984375	0.0	80	3182179	123	53	160	0	0	1458780.3782713	1458780.3788236	80	1458783.6817524	1458783.6824898	40	1458786.7963978	1458786.7969503	100	imm	1458787.9335363	nan	nan	nan	nan	nan
1557.1015625	0.0	40	3188944	123	53	160	0	0	1458780.3782713	1458780.3788236	80	1458783.6817524	1458783.6824898	40	1458786.7963978	1458786.7969503	100	imm	1458787.9335363	nan	nan	nan	nan	nan
1560.21630859375	0.0	100	3195323	123	53	160	0	0	1458780.3782713	1458780.3788236	80	1458783.6817524	1458783.6824898	40	1458786.7963978	1458786.7969503	100	imm	1458787.9335363	nan	nan	nan	nan	nan
1564.18798828125	0.0	80	3203457	124	57	60	0	0	1458790.7684788	1458790.7689315	80	1458794.1751654	1458794.1756483	40	1458797.4395194	1458797.4400258	100	imm	1458798.1329832	nan	nan	nan	nan	nan
1567.5947265625	0.0	40	3210434	124	57	60	0	0	1458790.7684788	1458790.7689315	80	1458794.1751654	1458794.1756483	40	1458797.4395194	1458797.4400258	100	imm	1458798.1329832	nan	nan	nan	nan	nan
1570.85888671875	0.0	100	3217119	124	57	60	0	0	1458790.7684788	1458790.7689315	80	1458794.1751654	1458794.1756483	40	1458797.4395194	1458797.4400258	100	imm	1458798.1329832	nan	nan	nan	nan	nan
1574.392578125	0.0	80	3224356	125	50	240	0	1	1458800.9726167	1458800.972774	80	1458804.3778598	1458804.3783797	40	1458807.5076616	1458807.5081763	100	imm	1458808.3409003	nan	nan	nan	nan	nan
1577.79736328125	0.0	40	3231329	125	50	240	0	1	1458800.9726167	1458800.972774	80	1458804.3778598	1458804.3783797	40	1458807.5076616	1458807.5081763	100	imm	1458808.3409003	nan	nan	nan	nan	nan
1580.9267578125	0.0	100	3237738	125	50	240	0	1	1458800.9726167	1458800.972774	80	1458804.3778598	1458804.3783797	40	1458807.5076616	1458807.5081763	100	imm	1458808.3409003	nan	nan	nan	nan	nan
1584.578125	0.0	80	3245216	126	57	300	1	0	1458811.1591448	1458811.1596353	80	1458814.2233232	1458814.2237846	40	1458817.494536	1458817.4950742	100	imm	1458818.4222808	3.0	1458819.7176692	1458818.9357405	1458818.9362503	120.0
1587.642578125	0.0	40	3251492	126	57	300	1	0	1458811.1591448	1458811.1596353	80	1458814.2233232	1458814.2237846	40	1458817.494536	1458817.4950742	100	imm	1458818.4222808	3.0	1458819.7176692	1458818.9357405	1458818.9362503	120.0
1590.91357421875	0.0	100	3258191	126	57	300	1	0	1458811.1591448	1458811.1596353	80	1458814.2233232	1458814.2237846	40	1458817.494536	1458817.4950742	100	imm	1458818.4222808	3.0	1458819.7176692	1458818.9357405	1458818.9362503	120.0
1592.3544921875	0.0	120	3261142	126	57	300	1	0	1458811.1591448	1458811.1596353	80	1458814.2233232	1458814.2237846	40	1458817.494536	1458817.4950742	100	imm	1458818.4222808	3.0	1458819.7176692	1458818.9357405	1458818.9362503	120.0
1595.5712890625	0.0	80	3267730	127	77	1070	0	1	1458822.1526326	1458822.1530761	80	1458825.6205075	1458825.6210223	40	1458828.8829633	1458828.8834583	100	imm	1458830.9090945	nan	nan	nan	nan	nan
1599.0390625	0.0	40	3274832	127	77	1070	0	1	1458822.1526326	1458822.1530761	80	1458825.6205075	1458825.6210223	40	1458828.8829633	1458828.8834583	100	imm	1458830.9090945	nan	nan	nan	nan	nan
1602.3017578125	0.0	100	3281514	127	77	1070	0	1	1458822.1526326	1458822.1530761	80	1458825.6205075	1458825.6210223	40	1458828.8829633	1458828.8834583	100	imm	1458830.9090945	nan	nan	nan	nan	nan
1606.98388671875	0.0	80	3291103	128	60	60	0	0	1458833.5653002	1458833.5658812	80	1458836.8991579	1458836.899643	40	1458840.370542	1458840.371041	100	imm	1458841.0454383	nan	nan	nan	nan	nan
1610.3173828125	0.0	40	3297930	128	60	60	0	0	1458833.5653002	1458833.5658812	80	1458836.8991579	1458836.899643	40	1458840.370542	1458840.371041	100	imm	1458841.0454383	nan	nan	nan	nan	nan
1613.7890625	0.0	100	3305040	128	60	60	0	0	1458833.5653002	1458833.5658812	80	1458836.8991579	1458836.899643	40	1458840.370542	1458840.371041	100	imm	1458841.0454383	nan	nan	nan	nan	nan
1617.23291015625	0.0	80	3312093	129	50	460	0	0	1458843.8149016	1458843.8152755	80	1458847.3102007	1458847.3106934	40	1458850.4215727	1458850.4220793	100	imm	1458851.1575888	nan	nan	nan	nan	nan
1620.728515625	0.0	40	3319252	129	50	460	0	0	1458843.8149016	1458843.8152755	80	1458847.3102007	1458847.3106934	40	1458850.4215727	1458850.4220793	100	imm	1458851.1575888	nan	nan	nan	nan	nan
1623.83984375	0.0	100	3325624	129	50	460	0	0	1458843.8149016	1458843.8152755	80	1458847.3102007	1458847.3106934	40	1458850.4215727	1458850.4220793	100	imm	1458851.1575888	nan	nan	nan	nan	nan
1627.14892578125	0.0	80	3332401	130	67	700	1	0	1458853.7307566	1458853.7312222	80	1458856.8868951	1458856.8873856	40	1458860.0991644	1458860.0996277	100	imm	1458860.7171697	3.0	1458861.9489905	1458861.2306621	1458861.2311066	120.0
1630.3046875	0.0	40	3338864	130	67	700	1	0	1458853.7307566	1458853.7312222	80	1458856.8868951	1458856.8873856	40	1458860.0991644	1458860.0996277	100	imm	1458860.7171697	3.0	1458861.9489905	1458861.2306621	1458861.2311066	120.0
1633.51708984375	0.0	100	3345443	130	67	700	1	0	1458853.7307566	1458853.7312222	80	1458856.8868951	1458856.8873856	40	1458860.0991644	1458860.0996277	100	imm	1458860.7171697	3.0	1458861.9489905	1458861.2306621	1458861.2311066	120.0
1634.6484375	0.0	120	3347760	130	67	700	1	0	1458853.7307566	1458853.7312222	80	1458856.8868951	1458856.8873856	40	1458860.0991644	1458860.0996277	100	imm	1458860.7171697	3.0	1458861.9489905	1458861.2306621	1458861.2311066	120.0
1637.59375	0.0	80	3353792	131	67	1070	0	0	1458864.176257	1458864.1767499	80	1458867.3402501	1458867.3407472	40	1458870.7002147	1458870.7007308	100	imm	1458871.6688481	nan	nan	nan	nan	nan
1640.7578125	0.0	40	3360272	131	67	1070	0	0	1458864.176257	1458864.1767499	80	1458867.3402501	1458867.3407472	40	1458870.7002147	1458870.7007308	100	imm	1458871.6688481	nan	nan	nan	nan	nan
1644.11767578125	0.0	100	3367153	131	67	1070	0	0	1458864.176257	1458864.1767499	80	1458867.3402501	1458867.3407472	40	1458870.7002147	1458870.7007308	100	imm	1458871.6688481	nan	nan	nan	nan	nan
1647.65087890625	0.0	80	3374389	132	67	300	1	0	1458874.2336369	1458874.2341265	80	1458877.4425438	1458877.4430502	40	1458880.6031221	1458880.6035939	100	imm	1458881.7098152	1.0	1458882.8930943	1458882.2231459	1458882.2236287	120.0
1650.85986328125	0.0	40	3380961	132	67	300	1	0	1458874.2336369	1458874.2341265	80	1458877.4425438	1458877.4430502	40	1458880.6031221	1458880.6035939	100	imm	1458881.7098152	1.0	1458882.8930943	1458882.2231459	1458882.2236287	120.0
1654.0205078125	0.0	100	3387434	132	67	300	1	0	1458874.2336369	1458874.2341265	80	1458877.4425438	1458877.4430502	40	1458880.6031221	1458880.6035939	100	imm	1458881.7098152	1.0	1458882.8930943	1458882.2231459	1458882.2236287	120.0
1655.64013671875	0.0	120	3390751	132	67	300	1	0	1458874.2336369	1458874.2341265	80	1458877.4425438	1458877.4430502	40	1458880.6031221	1458880.6035939	100	imm	1458881.7098152	1.0	1458882.8930943	1458882.2231459	1458882.2236287	120.0
1658.47900390625	0.0	80	3396565	133	77	700	1	0	1458885.0617375	1458885.0621989	80	1458888.122173	1458888.1226695	40	1458891.4319049	1458891.4324039	100	imm	1458893.1571727	4.0	1458894.2544526	1458893.6665308	1458893.6668854	120.0
1661.5390625	0.0	40	3402832	133	77	700	1	0	1458885.0617375	1458885.0621989	80	1458888.122173	1458888.1226695	40	1458891.4319049	1458891.4324039	100	imm	1458893.1571727	4.0	1458894.2544526	1458893.6665308	1458893.6668854	120.0
1664.8486328125	0.0	100	3409610	133	77	700	1	0	1458885.0617375	1458885.0621989	80	1458888.122173	1458888.1226695	40	1458891.4319049	1458891.4324039	100	imm	1458893.1571727	4.0	1458894.2544526	1458893.6665308	1458893.6668854	120.0
1667.08349609375	0.0	120	3414187	133	77	700	1	0	1458885.0617375	1458885.0621989	80	1458888.122173	1458888.1226695	40	1458891.4319049	1458891.4324039	100	imm	1458893.1571727	4.0	1458894.2544526	1458893.6665308	1458893.6668854	120.0
1669.826171875	0.0	80	3419804	134	73	460	0	0	1458896.409282	1458896.4096551	80	1458899.4939895	1458899.4944776	40	1458902.5080229	1458902.5085116	100	imm	1458902.9653417	nan	nan	nan	nan	nan
