onset	duration	value	sample	trial_idx	val	del	is_cued	rev_opts	del_pres_displaytime	del_pres_triggertime	del_pres_triggercode	val_pres_displaytime	val_pres_triggertime	val_pres_triggercode	choice_displaytime	choice_triggertime	choice_triggercode	choice	choice_time	viv_displaytime	viv_triggertime	viv_triggercode	viv	viv_time
38.23974609375	0.0	80	78315	1	97	600	1	0	63268.2809181	63268.282236	80	63271.4827785	63271.483716	40	63274.612456	63274.613406	100	imm	63275.8297685	63276.345816	63276.3464088	120.0	2.0	63278.0224303
41.44140625	0.0	40	84872	1	97	600	1	0	63268.2809181	63268.282236	80	63271.4827785	63271.483716	40	63274.612456	63274.613406	100	imm	63275.8297685	63276.345816	63276.3464088	120.0	2.0	63278.0224303
44.5712890625	0.0	100	91282	1	97	600	1	0	63268.2809181	63268.282236	80	63271.4827785	63271.483716	40	63274.612456	63274.613406	100	imm	63275.8297685	63276.345816	63276.3464088	120.0	2.0	63278.0224303
46.3046875	0.0	120	94832	1	97	600	1	0	63268.2809181	63268.282236	80	63271.4827785	63271.483716	40	63274.612456	63274.613406	100	imm	63275.8297685	63276.345816	63276.3464088	120.0	2.0	63278.0224303
50.2421875	0.0	80	102896	2	83	430	0	1	63280.2835589	63280.2842269	80	63283.4622893	63283.4629987	40	63286.9495931	63286.9501386	100	imm	63289.1594238	nan	nan	nan	nan	nan
53.4208984375	0.0	40	109406	2	83	430	0	1	63280.2835589	63280.2842269	80	63283.4622893	63283.4629987	40	63286.9495931	63286.9501386	100	imm	63289.1594238	nan	nan	nan	nan	nan
56.908203125	0.0	100	116548	2	83	430	0	1	63280.2835589	63280.2842269	80	63283.4622893	63283.4629987	40	63286.9495931	63286.9501386	100	imm	63289.1594238	nan	nan	nan	nan	nan
62.099609375	0.0	80	127180	3	53	230	0	0	63292.1414185	63292.1422088	80	63295.1767186	63295.1774764	40	63298.5603114	63298.5610393	100	imm	63300.9342552	nan	nan	nan	nan	nan
65.134765625	0.0	40	133396	3	53	230	0	0	63292.1414185	63292.1422088	80	63295.1767186	63295.1774764	40	63298.5603114	63298.5610393	100	imm	63300.9342552	nan	nan	nan	nan	nan
68.5185546875	0.0	100	140326	3	53	230	0	0	63292.1414185	63292.1422088	80	63295.1767186	63295.1774764	40	63298.5603114	63298.5610393	100	imm	63300.9342552	nan	nan	nan	nan	nan
73.54638671875	0.0	80	150623	4	63	300	1	1	63303.5880919	63303.5888128	80	63306.8081631	63306.8088506	40	63310.0969183	63310.0976602	100	na	63316.7274089	63317.2394841	63317.2402838	120.0	3.0	63321.1273875
76.76611328125	0.0	40	157217	4	63	300	1	1	63303.5880919	63303.5888128	80	63306.8081631	63306.8088506	40	63310.0969183	63310.0976602	100	na	63316.7274089	63317.2394841	63317.2402838	120.0	3.0	63321.1273875
80.05419921875	0.0	100	163951	4	63	300	1	1	63303.5880919	63303.5888128	80	63306.8081631	63306.8088506	40	63310.0969183	63310.0976602	100	na	63316.7274089	63317.2394841	63317.2402838	120.0	3.0	63321.1273875
87.19677734375	0.0	120	178579	4	63	300	1	1	63303.5880919	63303.5888128	80	63306.8081631	63306.8088506	40	63310.0969183	63310.0976602	100	na	63316.7274089	63317.2394841	63317.2402838	120.0	3.0	63321.1273875
93.57568359375	0.0	80	191643	5	83	170	1	1	63323.6182708	63323.6202515	80	63326.8411169	63326.8435396	40	63330.3545279	63330.3570218	100	del	63332.373657	63332.8855049	63332.8860066	120.0	2.0	63333.6858008
96.79833984375	0.0	40	198243	5	83	170	1	1	63323.6182708	63323.6202515	80	63326.8411169	63326.8435396	40	63330.3545279	63330.3570218	100	del	63332.373657	63332.8855049	63332.8860066	120.0	2.0	63333.6858008
100.31201171875	0.0	100	205439	5	83	170	1	1	63323.6182708	63323.6202515	80	63326.8411169	63326.8435396	40	63330.3545279	63330.3570218	100	del	63332.373657	63332.8855049	63332.8860066	120.0	2.0	63333.6858008
102.8427734375	0.0	120	210622	5	83	170	1	1	63323.6182708	63323.6202515	80	63326.8411169	63326.8435396	40	63330.3545279	63330.3570218	100	del	63332.373657	63332.8855049	63332.8860066	120.0	2.0	63333.6858008
105.8125	0.0	80	216704	6	100	300	1	1	63335.85531	63335.8559153	80	63339.2145499	63339.2152649	40	63342.5611449	63342.561591	100	del	63343.550415	63344.0606535	63344.0611419	120.0	2.0	63346.333898
109.171875	0.0	40	223584	6	100	300	1	1	63335.85531	63335.8559153	80	63339.2145499	63339.2152649	40	63342.5611449	63342.561591	100	del	63343.550415	63344.0606535	63344.0611419	120.0	2.0	63346.333898
112.51806640625	0.0	100	230437	6	100	300	1	1	63335.85531	63335.8559153	80	63339.2145499	63339.2152649	40	63342.5611449	63342.561591	100	del	63343.550415	63344.0606535	63344.0611419	120.0	2.0	63346.333898
114.017578125	0.0	120	233508	6	100	300	1	1	63335.85531	63335.8559153	80	63339.2145499	63339.2152649	40	63342.5611449	63342.561591	100	del	63343.550415	63344.0606535	63344.0611419	120.0	2.0	63346.333898
118.57763671875	0.0	80	242847	7	97	300	1	0	63348.6209514	63348.6214223	80	63351.9780468	63351.9786329	40	63355.3270487	63355.32843	100	imm	63357.4219248	63357.9327316	63357.9342255	120.0	2.0	63361.8699831
121.9345703125	0.0	40	249722	7	97	300	1	0	63348.6209514	63348.6214223	80	63351.9780468	63351.9786329	40	63355.3270487	63355.32843	100	imm	63357.4219248	63357.9327316	63357.9342255	120.0	2.0	63361.8699831
125.28271484375	0.0	100	256579	7	97	300	1	0	63348.6209514	63348.6214223	80	63351.9780468	63351.9786329	40	63355.3270487	63355.32843	100	imm	63357.4219248	63357.9327316	63357.9342255	120.0	2.0	63361.8699831
127.88916015625	0.0	120	261917	7	97	300	1	0	63348.6209514	63348.6214223	80	63351.9780468	63351.9786329	40	63355.3270487	63355.32843	100	imm	63357.4219248	63357.9327316	63357.9342255	120.0	2.0	63361.8699831
133.92822265625	0.0	80	274285	8	83	600	1	1	63363.9719443	63363.9722776	80	63367.0436793	63367.0443106	40	63370.5586166	63370.5591101	100	imm	63372.0699775	63372.5808018	63372.5811525	120.0	2.0	63376.191355
137.0	0.0	40	280576	8	83	600	1	1	63363.9719443	63363.9722776	80	63367.0436793	63367.0443106	40	63370.5586166	63370.5591101	100	imm	63372.0699775	63372.5808018	63372.5811525	120.0	2.0	63376.191355
140.5146484375	0.0	100	287774	8	83	600	1	1	63363.9719443	63363.9722776	80	63367.0436793	63367.0443106	40	63370.5586166	63370.5591101	100	imm	63372.0699775	63372.5808018	63372.5811525	120.0	2.0	63376.191355
142.53662109375	0.0	120	291915	8	83	600	1	1	63363.9719443	63363.9722776	80	63367.0436793	63367.0443106	40	63370.5586166	63370.5591101	100	imm	63372.0699775	63372.5808018	63372.5811525	120.0	2.0	63376.191355
148.24462890625	0.0	80	303605	9	100	430	0	0	63378.2889008	63378.289212	80	63381.3131561	63381.3136701	40	63384.6065919	63384.6070931	100	na	63386.6780936	nan	nan	nan	nan	nan
151.26904296875	0.0	40	309799	9	100	430	0	0	63378.2889008	63378.289212	80	63381.3131561	63381.3136701	40	63384.6065919	63384.6070931	100	na	63386.6780936	nan	nan	nan	nan	nan
154.5625	0.0	100	316544	9	100	430	0	0	63378.2889008	63378.289212	80	63381.3131561	63381.3136701	40	63384.6065919	63384.6070931	100	na	63386.6780936	nan	nan	nan	nan	nan
159.5908203125	0.0	80	326842	10	70	40	0	1	63389.6351284	63389.6354994	80	63392.9764763	63392.9768924	40	63396.08438	63396.0848932	100	del	63397.0617129	nan	nan	nan	nan	nan
162.93212890625	0.0	40	333685	10	70	40	0	1	63389.6351284	63389.6354994	80	63392.9764763	63392.9768924	40	63396.08438	63396.0848932	100	del	63397.0617129	nan	nan	nan	nan	nan
166.0400390625	0.0	100	340050	10	70	40	0	1	63389.6351284	63389.6354994	80	63392.9764763	63392.9768924	40	63396.08438	63396.0848932	100	del	63397.0617129	nan	nan	nan	nan	nan
169.71875	0.0	80	347584	11	73	600	1	1	63399.7634935	63399.7640196	80	63403.0013655	63403.0018418	40	63406.5031471	63406.5035334	100	imm	63408.1657959	63408.6737194	63408.6739723	120.0	2.0	63410.2149061
172.95654296875	0.0	40	354215	11	73	600	1	1	63399.7634935	63399.7640196	80	63403.0013655	63403.0018418	40	63406.5031471	63406.5035334	100	imm	63408.1657959	63408.6737194	63408.6739723	120.0	2.0	63410.2149061
176.45849609375	0.0	100	361387	11	73	600	1	1	63399.7634935	63399.7640196	80	63403.0013655	63403.0018418	40	63406.5031471	63406.5035334	100	imm	63408.1657959	63408.6737194	63408.6739723	120.0	2.0	63410.2149061
178.62890625	0.0	120	365832	11	73	600	1	1	63399.7634935	63399.7640196	80	63403.0013655	63403.0018418	40	63406.5031471	63406.5035334	100	imm	63408.1657959	63408.6737194	63408.6739723	120.0	2.0	63410.2149061
182.25830078125	0.0	80	373265	12	50	170	1	1	63412.3027396	63412.3029426	80	63415.7383072	63415.7388806	40	63419.0745683	63419.0750818	100	imm	63424.8708109	63425.3801274	63425.3804829	120.0	2.0	63429.1512455
185.693359375	0.0	40	380300	12	50	170	1	1	63412.3027396	63412.3029426	80	63415.7383072	63415.7388806	40	63419.0745683	63419.0750818	100	imm	63424.8708109	63425.3801274	63425.3804829	120.0	2.0	63429.1512455
189.029296875	0.0	100	387132	12	50	170	1	1	63412.3027396	63412.3029426	80	63415.7383072	63415.7388806	40	63419.0745683	63419.0750818	100	imm	63424.8708109	63425.3801274	63425.3804829	120.0	2.0	63429.1512455
195.3349609375	0.0	120	400046	12	50	170	1	1	63412.3027396	63412.3029426	80	63415.7383072	63415.7388806	40	63419.0745683	63419.0750818	100	imm	63424.8708109	63425.3801274	63425.3804829	120.0	2.0	63429.1512455
201.30908203125	0.0	80	412281	13	50	840	0	1	63431.3543598	63431.3548649	80	63434.4578748	63434.4583774	40	63437.6852461	63437.6857648	100	imm	63439.4060509	nan	nan	nan	nan	nan
204.41259765625	0.0	40	418637	13	50	840	0	1	63431.3543598	63431.3548649	80	63434.4578748	63434.4583774	40	63437.6852461	63437.6857648	100	imm	63439.4060509	nan	nan	nan	nan	nan
207.6396484375	0.0	100	425246	13	50	840	0	1	63431.3543598	63431.3548649	80	63434.4578748	63434.4583774	40	63437.6852461	63437.6857648	100	imm	63439.4060509	nan	nan	nan	nan	nan
212.1171875	0.0	80	434416	14	90	170	1	1	63442.162811	63442.1633225	80	63445.2306651	63445.2311562	40	63448.5402214	63448.5407108	100	imm	63451.8551767	63452.3664746	63452.3669122	120.0	2.0	63455.6224118
215.18505859375	0.0	40	440699	14	90	170	1	1	63442.162811	63442.1633225	80	63445.2306651	63445.2311562	40	63448.5402214	63448.5407108	100	imm	63451.8551767	63452.3664746	63452.3669122	120.0	2.0	63455.6224118
218.494140625	0.0	100	447476	14	90	170	1	1	63442.162811	63442.1633225	80	63445.2306651	63445.2311562	40	63448.5402214	63448.5407108	100	imm	63451.8551767	63452.3664746	63452.3669122	120.0	2.0	63455.6224118
222.3203125	0.0	120	455312	14	90	170	1	1	63442.162811	63442.1633225	80	63445.2306651	63445.2311562	40	63448.5402214	63448.5407108	100	imm	63451.8551767	63452.3664746	63452.3669122	120.0	2.0	63455.6224118
227.70361328125	0.0	80	466337	15	100	840	0	1	63457.7494126	63457.7500895	80	63460.9494066	63460.9499184	40	63464.2545513	63464.2550441	100	imm	63465.4150847	nan	nan	nan	nan	nan
230.9033203125	0.0	40	472890	15	100	840	0	1	63457.7494126	63457.7500895	80	63460.9494066	63460.9499184	40	63464.2545513	63464.2550441	100	imm	63465.4150847	nan	nan	nan	nan	nan
234.20849609375	0.0	100	479659	15	100	840	0	1	63457.7494126	63457.7500895	80	63460.9494066	63460.9499184	40	63464.2545513	63464.2550441	100	imm	63465.4150847	nan	nan	nan	nan	nan
238.01171875	0.0	80	487448	16	100	170	1	1	63468.0581108	63468.0585639	80	63471.2109112	63471.2114399	40	63474.533413	63474.5339282	100	del	63475.4620662	63475.9743018	63475.9746886	120.0	2.0	63477.581775
241.16455078125	0.0	40	493905	16	100	170	1	1	63468.0581108	63468.0585639	80	63471.2109112	63471.2114399	40	63474.533413	63474.5339282	100	del	63475.4620662	63475.9743018	63475.9746886	120.0	2.0	63477.581775
244.48681640625	0.0	100	500709	16	100	170	1	1	63468.0581108	63468.0585639	80	63471.2109112	63471.2114399	40	63474.533413	63474.5339282	100	del	63475.4620662	63475.9743018	63475.9746886	120.0	2.0	63477.581775
245.927734375	0.0	120	503660	16	100	170	1	1	63468.0581108	63468.0585639	80	63471.2109112	63471.2114399	40	63474.533413	63474.5339282	100	del	63475.4620662	63475.9743018	63475.9746886	120.0	2.0	63477.581775
249.6796875	0.0	80	511344	17	80	110	0	1	63479.7262142	63479.726514	80	63483.1439427	63483.1442782	40	63486.6443615	63486.6449058	100	del	63488.805996	nan	nan	nan	nan	nan
253.09716796875	0.0	40	518343	17	80	110	0	1	63479.7262142	63479.726514	80	63483.1439427	63483.1442782	40	63486.6443615	63486.6449058	100	del	63488.805996	nan	nan	nan	nan	nan
256.59765625	0.0	100	525512	17	80	110	0	1	63479.7262142	63479.726514	80	63483.1439427	63483.1442782	40	63486.6443615	63486.6449058	100	del	63488.805996	nan	nan	nan	nan	nan
261.6396484375	0.0	80	535838	18	93	110	0	1	63491.6867713	63491.6871048	80	63494.8668473	63494.8673264	40	63498.1720501	63498.172527	100	del	63500.845388	nan	nan	nan	nan	nan
264.81982421875	0.0	40	542351	18	93	110	0	1	63491.6867713	63491.6871048	80	63494.8668473	63494.8673264	40	63498.1720501	63498.172527	100	del	63500.845388	nan	nan	nan	nan	nan
268.125	0.0	100	549120	18	93	110	0	1	63491.6867713	63491.6871048	80	63494.8668473	63494.8673264	40	63498.1720501	63498.172527	100	del	63500.845388	nan	nan	nan	nan	nan
273.37060546875	0.0	80	559863	19	73	840	0	1	63503.41806	63503.4184502	80	63506.879447	63506.8799595	40	63510.3329997	63510.3336453	100	imm	63513.5663065	nan	nan	nan	nan	nan
276.83203125	0.0	40	566952	19	73	840	0	1	63503.41806	63503.4184502	80	63506.879447	63506.8799595	40	63510.3329997	63510.3336453	100	imm	63513.5663065	nan	nan	nan	nan	nan
280.28564453125	0.0	100	574025	19	73	840	0	1	63503.41806	63503.4184502	80	63506.879447	63506.8799595	40	63510.3329997	63510.3336453	100	imm	63513.5663065	nan	nan	nan	nan	nan
286.44189453125	0.0	80	586633	20	97	170	1	0	63516.4893419	63516.4897033	80	63519.6279872	63519.6284499	40	63522.9348348	63522.93522	100	na	63523.9902014	63524.5009084	63524.5012285	120.0	2.0	63527.1113195
289.580078125	0.0	40	593060	20	97	170	1	0	63516.4893419	63516.4897033	80	63519.6279872	63519.6284499	40	63522.9348348	63522.93522	100	na	63523.9902014	63524.5009084	63524.5012285	120.0	2.0	63527.1113195
292.88720703125	0.0	100	599833	20	97	170	1	0	63516.4893419	63516.4897033	80	63519.6279872	63519.6284499	40	63522.9348348	63522.93522	100	na	63523.9902014	63524.5009084	63524.5012285	120.0	2.0	63527.1113195
294.453125	0.0	120	603040	20	97	170	1	0	63516.4893419	63516.4897033	80	63519.6279872	63519.6284499	40	63522.9348348	63522.93522	100	na	63523.9902014	63524.5009084	63524.5012285	120.0	2.0	63527.1113195
313.28564453125	0.0	80	641609	21	57	840	0	1	63543.3341249	63543.3346071	80	63546.5543189	63546.5548171	40	63549.7249023	63549.7253771	100	imm	63551.7178219	nan	nan	nan	nan	nan
316.505859375	0.0	40	648204	21	57	840	0	1	63543.3341249	63543.3346071	80	63546.5543189	63546.5548171	40	63549.7249023	63549.7253771	100	imm	63551.7178219	nan	nan	nan	nan	nan
319.67626953125	0.0	100	654697	21	57	840	0	1	63543.3341249	63543.3346071	80	63546.5543189	63546.5548171	40	63549.7249023	63549.7253771	100	imm	63551.7178219	nan	nan	nan	nan	nan
324.2666015625	0.0	80	664098	22	100	600	1	1	63554.3151864	63554.3156606	80	63557.4120378	63557.412473	40	63560.6365815	63560.6370407	100	del	63561.5823644	63562.0956265	63562.0961242	120.0	2.0	63567.4782807
327.36328125	0.0	40	670440	22	100	600	1	1	63554.3151864	63554.3156606	80	63557.4120378	63557.412473	40	63560.6365815	63560.6370407	100	del	63561.5823644	63562.0956265	63562.0961242	120.0	2.0	63567.4782807
330.587890625	0.0	100	677044	22	100	600	1	1	63554.3151864	63554.3156606	80	63557.4120378	63557.412473	40	63560.6365815	63560.6370407	100	del	63561.5823644	63562.0956265	63562.0961242	120.0	2.0	63567.4782807
332.046875	0.0	120	680032	22	100	600	1	1	63554.3151864	63554.3156606	80	63557.4120378	63557.412473	40	63560.6365815	63560.6370407	100	del	63561.5823644	63562.0956265	63562.0961242	120.0	2.0	63567.4782807
339.4912109375	0.0	80	695278	23	87	430	0	1	63569.5403878	63569.5409163	80	63572.8472439	63572.8481191	40	63576.0958505	63576.0963829	100	imm	63577.3511744	nan	nan	nan	nan	nan
342.7978515625	0.0	40	702050	23	87	430	0	1	63569.5403878	63569.5409163	80	63572.8472439	63572.8481191	40	63576.0958505	63576.0963829	100	imm	63577.3511744	nan	nan	nan	nan	nan
346.046875	0.0	100	708704	23	87	430	0	1	63569.5403878	63569.5409163	80	63572.8472439	63572.8481191	40	63576.0958505	63576.0963829	100	imm	63577.3511744	nan	nan	nan	nan	nan
350.1640625	0.0	80	717136	24	63	110	0	1	63580.213483	63580.2139962	80	63583.5714553	63583.572812	40	63586.9046655	63586.9051529	100	imm	63593.997792	nan	nan	nan	nan	nan
353.52197265625	0.0	40	724013	24	63	110	0	1	63580.213483	63580.2139962	80	63583.5714553	63583.572812	40	63586.9046655	63586.9051529	100	imm	63593.997792	nan	nan	nan	nan	nan
356.85498046875	0.0	100	730839	24	63	110	0	1	63580.213483	63580.2139962	80	63583.5714553	63583.572812	40	63586.9046655	63586.9051529	100	imm	63593.997792	nan	nan	nan	nan	nan
366.47998046875	0.0	80	750551	25	77	600	1	0	63596.529915	63596.5303327	80	63599.5718957	63599.5723669	40	63602.744885	63602.7453874	100	imm	63604.5269257	63605.0375153	63605.037895	120.0	1.0	63607.4551724
369.52197265625	0.0	40	756781	25	77	600	1	0	63596.529915	63596.5303327	80	63599.5718957	63599.5723669	40	63602.744885	63602.7453874	100	imm	63604.5269257	63605.0375153	63605.037895	120.0	1.0	63607.4551724
372.69482421875	0.0	100	763279	25	77	600	1	0	63596.529915	63596.5303327	80	63599.5718957	63599.5723669	40	63602.744885	63602.7453874	100	imm	63604.5269257	63605.0375153	63605.037895	120.0	1.0	63607.4551724
374.9873046875	0.0	120	767974	25	77	600	1	0	63596.529915	63596.5303327	80	63599.5718957	63599.5723669	40	63602.744885	63602.7453874	100	imm	63604.5269257	63605.0375153	63605.037895	120.0	1.0	63607.4551724
379.6865234375	0.0	80	777598	26	80	300	1	1	63609.7364767	63609.7369293	80	63613.0710328	63613.0715082	40	63616.2874066	63616.2878744	100	imm	63623.9341106	63624.4448609	63624.4453049	120.0	2.0	63626.630053
383.02099609375	0.0	40	784427	26	80	300	1	1	63609.7364767	63609.7369293	80	63613.0710328	63613.0715082	40	63616.2874066	63616.2878744	100	imm	63623.9341106	63624.4448609	63624.4453049	120.0	2.0	63626.630053
386.2373046875	0.0	100	791014	26	80	300	1	1	63609.7364767	63609.7369293	80	63613.0710328	63613.0715082	40	63616.2874066	63616.2878744	100	imm	63623.9341106	63624.4448609	63624.4453049	120.0	2.0	63626.630053
394.39453125	0.0	120	807720	26	80	300	1	1	63609.7364767	63609.7369293	80	63613.0710328	63613.0715082	40	63616.2874066	63616.2878744	100	imm	63623.9341106	63624.4448609	63624.4453049	120.0	2.0	63626.630053
399.0029296875	0.0	80	817158	27	63	40	0	0	63629.053462	63629.0539025	80	63632.4193748	63632.4197351	40	63635.9169588	63635.9174606	100	del	63637.0871373	nan	nan	nan	nan	nan
402.36865234375	0.0	40	824051	27	63	40	0	0	63629.053462	63629.0539025	80	63632.4193748	63632.4197351	40	63635.9169588	63635.9174606	100	del	63637.0871373	nan	nan	nan	nan	nan
405.8662109375	0.0	100	831214	27	63	40	0	0	63629.053462	63629.0539025	80	63632.4193748	63632.4197351	40	63635.9169588	63635.9174606	100	del	63637.0871373	nan	nan	nan	nan	nan
409.818359375	0.0	80	839308	28	73	110	0	0	63639.8690891	63639.8694124	80	63643.039296	63643.0397818	40	63646.1053962	63646.1059167	100	del	63649.2630922	nan	nan	nan	nan	nan
412.98828125	0.0	40	845800	28	73	110	0	0	63639.8690891	63639.8694124	80	63643.039296	63643.0397818	40	63646.1053962	63646.1059167	100	del	63649.2630922	nan	nan	nan	nan	nan
416.05419921875	0.0	100	852079	28	73	110	0	0	63639.8690891	63639.8694124	80	63643.039296	63643.0397818	40	63646.1053962	63646.1059167	100	del	63649.2630922	nan	nan	nan	nan	nan
422.03271484375	0.0	80	864323	29	60	40	0	0	63652.0841195	63652.0844993	80	63655.4816407	63655.4821083	40	63658.7061497	63658.7066283	100	del	63663.9334478	nan	nan	nan	nan	nan
425.43017578125	0.0	40	871281	29	60	40	0	0	63652.0841195	63652.0844993	80	63655.4816407	63655.4821083	40	63658.7061497	63658.7066283	100	del	63663.9334478	nan	nan	nan	nan	nan
428.65478515625	0.0	100	877885	29	60	40	0	0	63652.0841195	63652.0844993	80	63655.4816407	63655.4821083	40	63658.7061497	63658.7066283	100	del	63663.9334478	nan	nan	nan	nan	nan
436.4443359375	0.0	80	893838	30	60	110	0	1	63666.4956966	63666.4962204	80	63669.6364125	63669.6368762	40	63672.7271208	63672.7276513	100	del	63676.5588521	nan	nan	nan	nan	nan
439.5849609375	0.0	40	900270	30	60	110	0	1	63666.4956966	63666.4962204	80	63669.6364125	63669.6368762	40	63672.7271208	63672.7276513	100	del	63676.5588521	nan	nan	nan	nan	nan
442.67529296875	0.0	100	906599	30	60	110	0	1	63666.4956966	63666.4962204	80	63669.6364125	63669.6368762	40	63672.7271208	63672.7276513	100	del	63676.5588521	nan	nan	nan	nan	nan
449.1630859375	0.0	80	919886	31	60	430	0	1	63679.2148922	63679.2153671	80	63682.4425833	63682.4430683	40	63685.717288	63685.7176737	100	imm	63687.029557	nan	nan	nan	nan	nan
452.390625	0.0	40	926496	31	60	430	0	1	63679.2148922	63679.2153671	80	63682.4425833	63682.4430683	40	63685.717288	63685.7176737	100	imm	63687.029557	nan	nan	nan	nan	nan
455.6650390625	0.0	100	933202	31	60	430	0	1	63679.2148922	63679.2153671	80	63682.4425833	63682.4430683	40	63685.717288	63685.7176737	100	imm	63687.029557	nan	nan	nan	nan	nan
459.72265625	0.0	80	941512	32	53	60	1	1	63689.7749642	63689.7755099	80	63693.2191868	63693.2195648	40	63696.4919236	63696.4923967	100	na	63699.8538883	63700.3652163	63700.3657164	120.0	2.0	63702.5498159
463.1669921875	0.0	40	948566	32	53	60	1	1	63689.7749642	63689.7755099	80	63693.2191868	63693.2195648	40	63696.4919236	63696.4923967	100	na	63699.8538883	63700.3652163	63700.3657164	120.0	2.0	63702.5498159
466.439453125	0.0	100	955268	32	53	60	1	1	63689.7749642	63689.7755099	80	63693.2191868	63693.2195648	40	63696.4919236	63696.4923967	100	na	63699.8538883	63700.3652163	63700.3657164	120.0	2.0	63702.5498159
470.31298828125	0.0	120	963201	32	53	60	1	1	63689.7749642	63689.7755099	80	63693.2191868	63693.2195648	40	63696.4919236	63696.4923967	100	na	63699.8538883	63700.3652163	63700.3657164	120.0	2.0	63702.5498159
474.98095703125	0.0	80	972761	33	93	60	1	0	63705.0334745	63705.0338208	80	63708.3598037	63708.3602998	40	63711.8528913	63711.8535342	100	imm	63712.8217498	63713.3321764	63713.3325106	120.0	2.0	63714.4215079
478.30712890625	0.0	40	979573	33	93	60	1	0	63705.0334745	63705.0338208	80	63708.3598037	63708.3602998	40	63711.8528913	63711.8535342	100	imm	63712.8217498	63713.3321764	63713.3325106	120.0	2.0	63714.4215079
481.80029296875	0.0	100	986727	33	93	60	1	0	63705.0334745	63705.0338208	80	63708.3598037	63708.3602998	40	63711.8528913	63711.8535342	100	imm	63712.8217498	63713.3321764	63713.3325106	120.0	2.0	63714.4215079
483.279296875	0.0	120	989756	33	93	60	1	0	63705.0334745	63705.0338208	80	63708.3598037	63708.3602998	40	63711.8528913	63711.8535342	100	imm	63712.8217498	63713.3321764	63713.3325106	120.0	2.0	63714.4215079
486.5029296875	0.0	80	996358	34	63	60	1	0	63716.5556782	63716.5560393	80	63719.9011974	63719.90165	40	63723.0600825	63723.0605867	100	del	63726.1577061	63726.6673283	63726.6676405	120.0	2.0	63727.7815454
489.84814453125	0.0	40	1003209	34	63	60	1	0	63716.5556782	63716.5560393	80	63719.9011974	63719.90165	40	63723.0600825	63723.0605867	100	del	63726.1577061	63726.6673283	63726.6676405	120.0	2.0	63727.7815454
493.0068359375	0.0	100	1009678	34	63	60	1	0	63716.5556782	63716.5560393	80	63719.9011974	63719.90165	40	63723.0600825	63723.0605867	100	del	63726.1577061	63726.6673283	63726.6676405	120.0	2.0	63727.7815454
496.6142578125	0.0	120	1017066	34	63	60	1	0	63716.5556782	63716.5560393	80	63719.9011974	63719.90165	40	63723.0600825	63723.0605867	100	del	63726.1577061	63726.6673283	63726.6676405	120.0	2.0	63727.7815454
500.07958984375	0.0	80	1024163	35	67	60	1	0	63730.1326708	63730.1331714	80	63733.4890204	63733.4895009	40	63736.5363627	63736.5368829	100	del	63738.0857233	63738.5973746	63738.5977871	120.0	2.0	63739.5494676
503.435546875	0.0	40	1031036	35	67	60	1	0	63730.1326708	63730.1331714	80	63733.4890204	63733.4895009	40	63736.5363627	63736.5368829	100	del	63738.0857233	63738.5973746	63738.5977871	120.0	2.0	63739.5494676
506.48291015625	0.0	100	1037277	35	67	60	1	0	63730.1326708	63730.1331714	80	63733.4890204	63733.4895009	40	63736.5363627	63736.5368829	100	del	63738.0857233	63738.5973746	63738.5977871	120.0	2.0	63739.5494676
508.5439453125	0.0	120	1041498	35	67	60	1	0	63730.1326708	63730.1331714	80	63733.4890204	63733.4895009	40	63736.5363627	63736.5368829	100	del	63738.0857233	63738.5973746	63738.5977871	120.0	2.0	63739.5494676
511.63671875	0.0	80	1047832	36	57	110	0	1	63741.6903957	63741.6907637	80	63744.8085871	63744.8089542	40	63748.1529166	63748.1533265	100	imm	63754.6780246	nan	nan	nan	nan	nan
514.7548828125	0.0	40	1054218	36	57	110	0	1	63741.6903957	63741.6907637	80	63744.8085871	63744.8089542	40	63748.1529166	63748.1533265	100	imm	63754.6780246	nan	nan	nan	nan	nan
518.09912109375	0.0	100	1061067	36	57	110	0	1	63741.6903957	63741.6907637	80	63744.8085871	63744.8089542	40	63748.1529166	63748.1533265	100	imm	63754.6780246	nan	nan	nan	nan	nan
527.560546875	0.0	80	1080444	37	70	230	0	0	63757.6143961	63757.6148485	80	63760.7941655	63760.7945821	40	63764.1977904	63764.1982812	100	na	63769.16715	nan	nan	nan	nan	nan
530.740234375	0.0	40	1086956	37	70	230	0	0	63757.6143961	63757.6148485	80	63760.7941655	63760.7945821	40	63764.1977904	63764.1982812	100	na	63769.16715	nan	nan	nan	nan	nan
534.1435546875	0.0	100	1093926	37	70	230	0	0	63757.6143961	63757.6148485	80	63760.7941655	63760.7945821	40	63764.1977904	63764.1982812	100	na	63769.16715	nan	nan	nan	nan	nan
541.96875	0.0	80	1109952	38	63	170	1	1	63772.0230188	63772.0234803	80	63775.0343648	63775.0348585	40	63778.3488232	63778.3493217	100	imm	63779.5658711	63780.0779486	63780.078667	120.0	1.0	63781.0697098
544.97998046875	0.0	40	1116119	38	63	170	1	1	63772.0230188	63772.0234803	80	63775.0343648	63775.0348585	40	63778.3488232	63778.3493217	100	imm	63779.5658711	63780.0779486	63780.078667	120.0	1.0	63781.0697098
548.29443359375	0.0	100	1122907	38	63	170	1	1	63772.0230188	63772.0234803	80	63775.0343648	63775.0348585	40	63778.3488232	63778.3493217	100	imm	63779.5658711	63780.0779486	63780.078667	120.0	1.0	63781.0697098
550.0234375	0.0	120	1126448	38	63	170	1	1	63772.0230188	63772.0234803	80	63775.0343648	63775.0348585	40	63778.3488232	63778.3493217	100	imm	63779.5658711	63780.0779486	63780.078667	120.0	1.0	63781.0697098
553.22119140625	0.0	80	1132997	39	80	430	0	0	63783.2756935	63783.2760267	80	63786.7411517	63786.7416368	40	63789.7550189	63789.7555029	100	imm	63791.0309231	nan	nan	nan	nan	nan
556.6865234375	0.0	40	1140094	39	80	430	0	0	63783.2756935	63783.2760267	80	63786.7411517	63786.7416368	40	63789.7550189	63789.7555029	100	imm	63791.0309231	nan	nan	nan	nan	nan
559.7001953125	0.0	100	1146266	39	80	430	0	0	63783.2756935	63783.2760267	80	63786.7411517	63786.7416368	40	63789.7550189	63789.7555029	100	imm	63791.0309231	nan	nan	nan	nan	nan
563.72314453125	0.0	80	1154505	40	83	60	1	1	63793.7778594	63793.7784888	80	63796.9979026	63796.9983738	40	63800.2393362	63800.239701	100	del	63801.8056475	63802.3157413	63802.3160709	120.0	2.0	63803.3332523
566.94287109375	0.0	40	1161099	40	83	60	1	1	63793.7778594	63793.7784888	80	63796.9979026	63796.9983738	40	63800.2393362	63800.239701	100	del	63801.8056475	63802.3157413	63802.3160709	120.0	2.0	63803.3332523
570.18408203125	0.0	100	1167737	40	83	60	1	1	63793.7778594	63793.7784888	80	63796.9979026	63796.9983738	40	63800.2393362	63800.239701	100	del	63801.8056475	63802.3157413	63802.3160709	120.0	2.0	63803.3332523
572.2607421875	0.0	120	1171990	40	83	60	1	1	63793.7778594	63793.7784888	80	63796.9979026	63796.9983738	40	63800.2393362	63800.239701	100	del	63801.8056475	63802.3157413	63802.3160709	120.0	2.0	63803.3332523
598.0703125	0.0	80	1224848	41	90	230	0	0	63828.1262166	63828.1266956	80	63831.2953286	63831.2958044	40	63834.7006991	63834.701184	100	del	63836.4540178	nan	nan	nan	nan	nan
601.23974609375	0.0	40	1231339	41	90	230	0	0	63828.1262166	63828.1266956	80	63831.2953286	63831.2958044	40	63834.7006991	63834.701184	100	del	63836.4540178	nan	nan	nan	nan	nan
604.64501953125	0.0	100	1238313	41	90	230	0	0	63828.1262166	63828.1266956	80	63831.2953286	63831.2958044	40	63834.7006991	63834.701184	100	del	63836.4540178	nan	nan	nan	nan	nan
609.15234375	0.0	80	1247544	42	87	110	0	1	63839.2082401	63839.2087493	80	63842.2337938	63842.2342672	40	63845.3345116	63845.3349378	100	del	63848.2139239	nan	nan	nan	nan	nan
612.177734375	0.0	40	1253740	42	87	110	0	1	63839.2082401	63839.2087493	80	63842.2337938	63842.2342672	40	63845.3345116	63845.3349378	100	del	63848.2139239	nan	nan	nan	nan	nan
615.2783203125	0.0	100	1260090	42	87	110	0	1	63839.2082401	63839.2087493	80	63842.2337938	63842.2342672	40	63845.3345116	63845.3349378	100	del	63848.2139239	nan	nan	nan	nan	nan
621.0341796875	0.0	80	1271878	43	50	230	0	0	63851.0903628	63851.0907877	80	63854.3339077	63854.3343427	40	63857.4233387	63857.423825	100	imm	63862.8534437	nan	nan	nan	nan	nan
624.27734375	0.0	40	1278520	43	50	230	0	0	63851.0903628	63851.0907877	80	63854.3339077	63854.3343427	40	63857.4233387	63857.423825	100	imm	63862.8534437	nan	nan	nan	nan	nan
627.36669921875	0.0	100	1284847	43	50	230	0	0	63851.0903628	63851.0907877	80	63854.3339077	63854.3343427	40	63857.4233387	63857.423825	100	imm	63862.8534437	nan	nan	nan	nan	nan
635.482421875	0.0	80	1301468	44	93	600	1	1	63865.5391358	63865.5395086	80	63868.8490895	63868.8494744	40	63871.9559271	63871.9563046	100	na	63872.703615	63873.2135033	63873.2138368	120.0	2.0	63874.4710501
638.7919921875	0.0	40	1308246	44	93	600	1	1	63865.5391358	63865.5395086	80	63868.8490895	63868.8494744	40	63871.9559271	63871.9563046	100	na	63872.703615	63873.2135033	63873.2138368	120.0	2.0	63874.4710501
641.89892578125	0.0	100	1314609	44	93	600	1	1	63865.5391358	63865.5395086	80	63868.8490895	63868.8494744	40	63871.9559271	63871.9563046	100	na	63872.703615	63873.2135033	63873.2138368	120.0	2.0	63874.4710501
643.15673828125	0.0	120	1317185	44	93	600	1	1	63865.5391358	63865.5395086	80	63868.8490895	63868.8494744	40	63871.9559271	63871.9563046	100	na	63872.703615	63873.2135033	63873.2138368	120.0	2.0	63874.4710501
646.7978515625	0.0	80	1324642	45	57	40	0	1	63876.8547878	63876.8552906	80	63879.9842443	63879.9859937	40	63883.4577748	63883.4582647	100	imm	63884.5177221	nan	nan	nan	nan	nan
649.9267578125	0.0	40	1331050	45	57	40	0	1	63876.8547878	63876.8552906	80	63879.9842443	63879.9859937	40	63883.4577748	63883.4582647	100	imm	63884.5177221	nan	nan	nan	nan	nan
653.400390625	0.0	100	1338164	45	57	40	0	1	63876.8547878	63876.8552906	80	63879.9842443	63879.9859937	40	63883.4577748	63883.4582647	100	imm	63884.5177221	nan	nan	nan	nan	nan
657.10888671875	0.0	80	1345759	46	97	60	1	1	63887.1662171	63887.1665632	80	63890.556344	63890.5568163	40	63893.6635621	63893.6640483	100	del	63895.0696891	63895.5788899	63895.579197	120.0	2.0	63896.7177822
660.4990234375	0.0	40	1352702	46	97	60	1	1	63887.1662171	63887.1665632	80	63890.556344	63890.5568163	40	63893.6635621	63893.6640483	100	del	63895.0696891	63895.5788899	63895.579197	120.0	2.0	63896.7177822
663.60595703125	0.0	100	1359065	46	97	60	1	1	63887.1662171	63887.1665632	80	63890.556344	63890.5568163	40	63893.6635621	63893.6640483	100	del	63895.0696891	63895.5788899	63895.579197	120.0	2.0	63896.7177822
665.521484375	0.0	120	1362988	46	97	60	1	1	63887.1662171	63887.1665632	80	63890.556344	63890.5568163	40	63893.6635621	63893.6640483	100	del	63895.0696891	63895.5788899	63895.579197	120.0	2.0	63896.7177822
668.81640625	0.0	80	1369736	47	53	110	0	0	63898.8741022	63898.8745737	80	63901.9272704	63901.9278781	40	63905.2287924	63905.229302	100	na	63908.6454729	nan	nan	nan	nan	nan
671.86962890625	0.0	40	1375989	47	53	110	0	0	63898.8741022	63898.8745737	80	63901.9272704	63901.9278781	40	63905.2287924	63905.229302	100	na	63908.6454729	nan	nan	nan	nan	nan
675.1708984375	0.0	100	1382750	47	53	110	0	0	63898.8741022	63898.8745737	80	63901.9272704	63901.9278781	40	63905.2287924	63905.229302	100	na	63908.6454729	nan	nan	nan	nan	nan
681.443359375	0.0	80	1395596	48	80	40	0	0	63911.5011929	63911.5014958	80	63914.7821932	63914.7826945	40	63918.0109438	63918.011396	100	del	63919.4692899	nan	nan	nan	nan	nan
684.72412109375	0.0	40	1402315	48	80	40	0	0	63911.5011929	63911.5014958	80	63914.7821932	63914.7826945	40	63918.0109438	63918.011396	100	del	63919.4692899	nan	nan	nan	nan	nan
687.95263671875	0.0	100	1408927	48	80	40	0	0	63911.5011929	63911.5014958	80	63914.7821932	63914.7826945	40	63918.0109438	63918.011396	100	del	63919.4692899	nan	nan	nan	nan	nan
692.25048828125	0.0	80	1417729	49	70	60	1	0	63922.3085768	63922.3090038	80	63925.6399262	63925.6404064	40	63928.9923982	63928.992942	100	del	63930.2133363	63930.7242345	63930.724605	120.0	2.0	63936.0295946
695.58154296875	0.0	40	1424551	49	70	60	1	0	63922.3085768	63922.3090038	80	63925.6399262	63925.6404064	40	63928.9923982	63928.992942	100	del	63930.2133363	63930.7242345	63930.724605	120.0	2.0	63936.0295946
698.93408203125	0.0	100	1431417	49	70	60	1	0	63922.3085768	63922.3090038	80	63925.6399262	63925.6404064	40	63928.9923982	63928.992942	100	del	63930.2133363	63930.7242345	63930.724605	120.0	2.0	63936.0295946
700.66552734375	0.0	120	1434963	49	70	60	1	0	63922.3085768	63922.3090038	80	63925.6399262	63925.6404064	40	63928.9923982	63928.992942	100	del	63930.2133363	63930.7242345	63930.724605	120.0	2.0	63936.0295946
708.30078125	0.0	80	1450600	50	97	110	0	1	63938.3594698	63938.3597432	80	63941.8395795	63941.8401316	40	63944.9575011	63944.9579964	100	del	63946.5019309	nan	nan	nan	nan	nan
711.78076171875	0.0	40	1457727	50	97	110	0	1	63938.3594698	63938.3597432	80	63941.8395795	63941.8401316	40	63944.9575011	63944.9579964	100	del	63946.5019309	nan	nan	nan	nan	nan
714.89892578125	0.0	100	1464113	50	97	110	0	1	63938.3594698	63938.3597432	80	63941.8395795	63941.8401316	40	63944.9575011	63944.9579964	100	del	63946.5019309	nan	nan	nan	nan	nan
719.3125	0.0	80	1473152	51	57	430	0	0	63949.3716246	63949.3719427	80	63952.497376	63952.4978512	40	63955.5712175	63955.5716858	100	imm	63957.6616464	nan	nan	nan	nan	nan
722.4384765625	0.0	40	1479554	51	57	430	0	0	63949.3716246	63949.3719427	80	63952.497376	63952.4978512	40	63955.5712175	63955.5716858	100	imm	63957.6616464	nan	nan	nan	nan	nan
725.51220703125	0.0	100	1485849	51	57	430	0	0	63949.3716246	63949.3719427	80	63952.497376	63952.4978512	40	63955.5712175	63955.5716858	100	imm	63957.6616464	nan	nan	nan	nan	nan
730.423828125	0.0	80	1495908	52	93	170	1	1	63960.4829185	63960.483385	80	63963.7157714	63963.7162573	40	63966.9598221	63966.9603513	100	imm	63969.0053448	63969.5153155	63969.5156398	120.0	1.0	63972.5334751
733.65625	0.0	40	1502528	52	93	170	1	1	63960.4829185	63960.483385	80	63963.7157714	63963.7162573	40	63966.9598221	63966.9603513	100	imm	63969.0053448	63969.5153155	63969.5156398	120.0	1.0	63972.5334751
736.900390625	0.0	100	1509172	52	93	170	1	1	63960.4829185	63960.483385	80	63963.7157714	63963.7162573	40	63966.9598221	63966.9603513	100	imm	63969.0053448	63969.5153155	63969.5156398	120.0	1.0	63972.5334751
739.45556640625	0.0	120	1514405	52	93	170	1	1	63960.4829185	63960.483385	80	63963.7157714	63963.7162573	40	63966.9598221	63966.9603513	100	imm	63969.0053448	63969.5153155	63969.5156398	120.0	1.0	63972.5334751
744.8173828125	0.0	80	1525386	53	97	18	1	1	63974.8769226	63974.8772407	80	63978.269383	63978.2697828	40	63981.4579721	63981.4584561	100	del	63982.2292908	63982.738439	63982.7387281	120.0	3.0	63984.174471
748.20947265625	0.0	40	1532333	53	97	18	1	1	63974.8769226	63974.8772407	80	63978.269383	63978.2697828	40	63981.4579721	63981.4584561	100	del	63982.2292908	63982.738439	63982.7387281	120.0	3.0	63984.174471
751.3984375	0.0	100	1538864	53	97	18	1	1	63974.8769226	63974.8772407	80	63978.269383	63978.2697828	40	63981.4579721	63981.4584561	100	del	63982.2292908	63982.738439	63982.7387281	120.0	3.0	63984.174471
752.6787109375	0.0	120	1541486	53	97	18	1	1	63974.8769226	63974.8772407	80	63978.269383	63978.2697828	40	63981.4579721	63981.4584561	100	del	63982.2292908	63982.738439	63982.7387281	120.0	3.0	63984.174471
756.4599609375	0.0	80	1549230	54	80	170	1	1	63986.5197694	63986.5202711	80	63989.7368959	63989.7375051	40	63993.1713917	63993.1720152	100	na	63995.1733649	63995.683959	63995.6844589	120.0	1.0	63996.5259548
759.67724609375	0.0	40	1555819	54	80	170	1	1	63986.5197694	63986.5202711	80	63989.7368959	63989.7375051	40	63993.1713917	63993.1720152	100	na	63995.1733649	63995.683959	63995.6844589	120.0	1.0	63996.5259548
763.111328125	0.0	100	1562852	54	80	170	1	1	63986.5197694	63986.5202711	80	63989.7368959	63989.7375051	40	63993.1713917	63993.1720152	100	na	63995.1733649	63995.683959	63995.6844589	120.0	1.0	63996.5259548
765.6240234375	0.0	120	1567998	54	80	170	1	1	63986.5197694	63986.5202711	80	63989.7368959	63989.7375051	40	63993.1713917	63993.1720152	100	na	63995.1733649	63995.683959	63995.6844589	120.0	1.0	63996.5259548
768.89599609375	0.0	80	1574699	55	67	18	1	0	63998.9560879	63998.9566209	80	64002.0920763	64002.0925568	40	64005.4127706	64005.4133197	100	del	64008.1174884	64008.6272486	64008.6275726	120.0	2.0	64010.1254876
772.03173828125	0.0	40	1581121	55	67	18	1	0	63998.9560879	63998.9566209	80	64002.0920763	64002.0925568	40	64005.4127706	64005.4133197	100	del	64008.1174884	64008.6272486	64008.6275726	120.0	2.0	64010.1254876
775.3525390625	0.0	100	1587922	55	67	18	1	0	63998.9560879	63998.9566209	80	64002.0920763	64002.0925568	40	64005.4127706	64005.4133197	100	del	64008.1174884	64008.6272486	64008.6275726	120.0	2.0	64010.1254876
778.56689453125	0.0	120	1594505	55	67	18	1	0	63998.9560879	63998.9566209	80	64002.0920763	64002.0925568	40	64005.4127706	64005.4133197	100	del	64008.1174884	64008.6272486	64008.6275726	120.0	2.0	64010.1254876
782.37060546875	0.0	80	1602295	56	90	40	0	1	64012.4312452	64012.4316995	80	64015.7089406	64015.7093842	40	64019.1566063	64019.1570973	100	del	64020.797381	nan	nan	nan	nan	nan
785.6484375	0.0	40	1609008	56	90	40	0	1	64012.4312452	64012.4316995	80	64015.7089406	64015.7093842	40	64019.1566063	64019.1570973	100	del	64020.797381	nan	nan	nan	nan	nan
789.095703125	0.0	100	1616068	56	90	40	0	1	64012.4312452	64012.4316995	80	64015.7089406	64015.7093842	40	64019.1566063	64019.1570973	100	del	64020.797381	nan	nan	nan	nan	nan
793.38525390625	0.0	80	1624853	57	77	840	0	1	64023.4461538	64023.4466649	80	64026.612851	64026.6133237	40	64029.6860047	64029.6864278	100	imm	64031.4215102	nan	nan	nan	nan	nan
796.5517578125	0.0	40	1631338	57	77	840	0	1	64023.4461538	64023.4466649	80	64026.612851	64026.6133237	40	64029.6860047	64029.6864278	100	imm	64031.4215102	nan	nan	nan	nan	nan
799.625	0.0	100	1637632	57	77	840	0	1	64023.4461538	64023.4466649	80	64026.612851	64026.6133237	40	64029.6860047	64029.6864278	100	imm	64031.4215102	nan	nan	nan	nan	nan
804.34765625	0.0	80	1647304	58	77	230	0	1	64034.4089804	64034.4094449	80	64037.7392826	64037.7397434	40	64040.9926533	64040.9930792	100	imm	64043.2534162	nan	nan	nan	nan	nan
807.67822265625	0.0	40	1654125	58	77	230	0	1	64034.4089804	64034.4094449	80	64037.7392826	64037.7397434	40	64040.9926533	64040.9930792	100	imm	64043.2534162	nan	nan	nan	nan	nan
810.93115234375	0.0	100	1660787	58	77	230	0	1	64034.4089804	64034.4094449	80	64037.7392826	64037.7397434	40	64040.9926533	64040.9930792	100	imm	64043.2534162	nan	nan	nan	nan	nan
816.029296875	0.0	80	1671228	59	83	840	0	1	64046.0906616	64046.0911288	80	64049.3705724	64049.3710633	40	64052.7070695	64052.7075781	100	imm	64059.262879	nan	nan	nan	nan	nan
819.30908203125	0.0	40	1677945	59	83	840	0	1	64046.0906616	64046.0911288	80	64049.3705724	64049.3710633	40	64052.7070695	64052.7075781	100	imm	64059.262879	nan	nan	nan	nan	nan
822.6455078125	0.0	100	1684778	59	83	840	0	1	64046.0906616	64046.0911288	80	64049.3705724	64049.3710633	40	64052.7070695	64052.7075781	100	imm	64059.262879	nan	nan	nan	nan	nan
831.98681640625	0.0	80	1703909	60	83	110	0	1	64062.0486584	64062.0489827	80	64065.4170958	64065.4175944	40	64068.6913021	64068.6918172	100	del	64072.4051012	nan	nan	nan	nan	nan
835.35498046875	0.0	40	1710807	60	83	110	0	1	64062.0486584	64062.0489827	80	64065.4170958	64065.4175944	40	64068.6913021	64068.6918172	100	del	64072.4051012	nan	nan	nan	nan	nan
838.62939453125	0.0	100	1717513	60	83	110	0	1	64062.0486584	64062.0489827	80	64065.4170958	64065.4175944	40	64068.6913021	64068.6918172	100	del	64072.4051012	nan	nan	nan	nan	nan
884.6669921875	0.0	80	1811798	61	87	840	0	0	64114.7301127	64114.7304301	80	64117.8457655	64117.8461361	40	64120.911984	64120.9124846	100	imm	64124.0531311	nan	nan	nan	nan	nan
887.7822265625	0.0	40	1818178	61	87	840	0	0	64114.7301127	64114.7304301	80	64117.8457655	64117.8461361	40	64120.911984	64120.9124846	100	imm	64124.0531311	nan	nan	nan	nan	nan
890.8486328125	0.0	100	1824458	61	87	840	0	0	64114.7301127	64114.7304301	80	64117.8457655	64117.8461361	40	64120.911984	64120.9124846	100	imm	64124.0531311	nan	nan	nan	nan	nan
896.560546875	0.0	80	1836156	62	100	60	1	0	64126.6239607	64126.624278	80	64129.6631344	64129.6635702	40	64132.8787268	64132.8792009	100	del	64133.7015974	64134.210714	64134.2110311	120.0	2.0	64135.5090981
899.599609375	0.0	40	1842380	62	100	60	1	0	64126.6239607	64126.624278	80	64129.6631344	64129.6635702	40	64132.8787268	64132.8792009	100	del	64133.7015974	64134.210714	64134.2110311	120.0	2.0	64135.5090981
902.81494140625	0.0	100	1848965	62	100	60	1	0	64126.6239607	64126.624278	80	64129.6631344	64129.6635702	40	64132.8787268	64132.8792009	100	del	64133.7015974	64134.210714	64134.2110311	120.0	2.0	64135.5090981
904.14697265625	0.0	120	1851693	62	100	60	1	0	64126.6239607	64126.624278	80	64129.6631344	64129.6635702	40	64132.8787268	64132.8792009	100	del	64133.7015974	64134.210714	64134.2110311	120.0	2.0	64135.5090981
907.68359375	0.0	80	1858936	63	73	60	1	0	64137.7474077	64137.7479269	80	64140.9393873	64140.9398891	40	64144.3340534	64144.3345309	100	del	64147.3735548	64147.8837449	64147.884108	120.0	2.0	64153.3508707
910.87548828125	0.0	40	1865473	63	73	60	1	0	64137.7474077	64137.7479269	80	64140.9393873	64140.9398891	40	64144.3340534	64144.3345309	100	del	64147.3735548	64147.8837449	64147.884108	120.0	2.0	64153.3508707
914.27001953125	0.0	100	1872425	63	73	60	1	0	64137.7474077	64137.7479269	80	64140.9393873	64140.9398891	40	64144.3340534	64144.3345309	100	del	64147.3735548	64147.8837449	64147.884108	120.0	2.0	64153.3508707
917.81982421875	0.0	120	1879695	63	73	60	1	0	64137.7474077	64137.7479269	80	64140.9393873	64140.9398891	40	64144.3340534	64144.3345309	100	del	64147.3735548	64147.8837449	64147.884108	120.0	2.0	64153.3508707
925.61572265625	0.0	80	1895661	64	93	840	0	1	64155.6798167	64155.6803208	80	64159.0733993	64159.0739543	40	64162.5536262	64162.5541589	100	imm	64167.8209014	nan	nan	nan	nan	nan
929.00927734375	0.0	40	1902611	64	93	840	0	1	64155.6798167	64155.6803208	80	64159.0733993	64159.0739543	40	64162.5536262	64162.5541589	100	imm	64167.8209014	nan	nan	nan	nan	nan
932.4892578125	0.0	100	1909738	64	93	840	0	1	64155.6798167	64155.6803208	80	64159.0733993	64159.0739543	40	64162.5536262	64162.5541589	100	imm	64167.8209014	nan	nan	nan	nan	nan
940.76171875	0.0	80	1926680	65	70	600	1	1	64170.8262892	64170.8267966	80	64173.9298326	64173.9302918	40	64177.0136737	64177.0142014	100	imm	64178.3252594	64178.8385362	64178.8390949	120.0	1.0	64181.0931442
943.865234375	0.0	40	1933036	65	70	600	1	1	64170.8262892	64170.8267966	80	64173.9298326	64173.9302918	40	64177.0136737	64177.0142014	100	imm	64178.3252594	64178.8385362	64178.8390949	120.0	1.0	64181.0931442
946.94873046875	0.0	100	1939351	65	70	600	1	1	64170.8262892	64170.8267966	80	64173.9298326	64173.9302918	40	64177.0136737	64177.0142014	100	imm	64178.3252594	64178.8385362	64178.8390949	120.0	1.0	64181.0931442
948.77392578125	0.0	120	1943089	65	70	600	1	1	64170.8262892	64170.8267966	80	64173.9298326	64173.9302918	40	64177.0136737	64177.0142014	100	imm	64178.3252594	64178.8385362	64178.8390949	120.0	1.0	64181.0931442
953.38916015625	0.0	80	1952541	66	67	110	0	1	64183.4542634	64183.4547708	80	64186.5087076	64186.5091565	40	64189.7846956	64189.7851932	100	na	64192.0938608	nan	nan	nan	nan	nan
956.44384765625	0.0	40	1958797	66	67	110	0	1	64183.4542634	64183.4547708	80	64186.5087076	64186.5091565	40	64189.7846956	64189.7851932	100	na	64192.0938608	nan	nan	nan	nan	nan
959.7197265625	0.0	100	1965506	66	67	110	0	1	64183.4542634	64183.4547708	80	64186.5087076	64186.5091565	40	64189.7846956	64189.7851932	100	na	64192.0938608	nan	nan	nan	nan	nan
964.80908203125	0.0	80	1975929	67	77	40	0	1	64194.8744952	64194.8748971	80	64198.3115642	64198.3119399	40	64201.565515	64201.5659133	100	del	64203.677288	nan	nan	nan	nan	nan
968.24609375	0.0	40	1982968	67	77	40	0	1	64194.8744952	64194.8748971	80	64198.3115642	64198.3119399	40	64201.565515	64201.5659133	100	del	64203.677288	nan	nan	nan	nan	nan
971.5	0.0	100	1989632	67	77	40	0	1	64194.8744952	64194.8748971	80	64198.3115642	64198.3119399	40	64201.565515	64201.5659133	100	del	64203.677288	nan	nan	nan	nan	nan
976.32421875	0.0	80	1999512	68	80	60	1	0	64206.3899436	64206.3903159	80	64209.7321743	64209.7326383	40	64213.1161968	64213.1166669	100	na	64218.5011867	64219.0142752	64219.014797	120.0	2.0	64224.5013038
979.66650390625	0.0	40	2006357	68	80	60	1	0	64206.3899436	64206.3903159	80	64209.7321743	64209.7326383	40	64213.1161968	64213.1166669	100	na	64218.5011867	64219.0142752	64219.014797	120.0	2.0	64224.5013038
983.05029296875	0.0	100	2013287	68	80	60	1	0	64206.3899436	64206.3903159	80	64209.7321743	64209.7326383	40	64213.1161968	64213.1166669	100	na	64218.5011867	64219.0142752	64219.014797	120.0	2.0	64224.5013038
988.9482421875	0.0	120	2025366	68	80	60	1	0	64206.3899436	64206.3903159	80	64209.7321743	64209.7326383	40	64213.1161968	64213.1166669	100	na	64218.5011867	64219.0142752	64219.014797	120.0	2.0	64224.5013038
996.70849609375	0.0	80	2041259	69	80	18	1	1	64226.7747336	64226.7752021	80	64229.9570072	64229.9574779	40	64233.0458469	64233.046311	100	del	64234.6705794	64235.183338	64235.183851	120.0	2.0	64237.4215234
999.890625	0.0	40	2047776	69	80	18	1	1	64226.7747336	64226.7752021	80	64229.9570072	64229.9574779	40	64233.0458469	64233.046311	100	del	64234.6705794	64235.183338	64235.183851	120.0	2.0	64237.4215234
1002.9794921875	0.0	100	2054102	69	80	18	1	1	64226.7747336	64226.7752021	80	64229.9570072	64229.9574779	40	64233.0458469	64233.046311	100	del	64234.6705794	64235.183338	64235.183851	120.0	2.0	64237.4215234
1005.1171875	0.0	120	2058480	69	80	18	1	1	64226.7747336	64226.7752021	80	64229.9570072	64229.9574779	40	64233.0458469	64233.046311	100	del	64234.6705794	64235.183338	64235.183851	120.0	2.0	64237.4215234
1009.66455078125	0.0	80	2067793	70	53	40	0	0	64239.7309314	64239.731397	80	64242.8695828	64242.8699987	40	64245.9048066	64245.9052609	100	del	64257.4858382	nan	nan	nan	nan	nan
1012.80322265625	0.0	40	2074221	70	53	40	0	0	64239.7309314	64239.731397	80	64242.8695828	64242.8699987	40	64245.9048066	64245.9052609	100	del	64257.4858382	nan	nan	nan	nan	nan
1015.83837890625	0.0	100	2080437	70	53	40	0	0	64239.7309314	64239.731397	80	64242.8695828	64242.8699987	40	64245.9048066	64245.9052609	100	del	64257.4858382	nan	nan	nan	nan	nan
1030.31298828125	0.0	80	2110081	71	67	840	0	1	64260.3798617	64260.3803247	80	64263.5090898	64263.5095484	40	64266.7438679	64266.7443695	100	na	64271.9815504	nan	nan	nan	nan	nan
1033.44189453125	0.0	40	2116489	71	67	840	0	1	64260.3798617	64260.3803247	80	64263.5090898	64263.5095484	40	64266.7438679	64266.7443695	100	na	64271.9815504	nan	nan	nan	nan	nan
1036.6767578125	0.0	100	2123114	71	67	840	0	1	64260.3798617	64260.3803247	80	64263.5090898	64263.5095484	40	64266.7438679	64266.7443695	100	na	64271.9815504	nan	nan	nan	nan	nan
1044.77587890625	0.0	80	2139701	72	63	230	0	0	64274.8432923	64274.8439316	80	64278.030443	64278.0308939	40	64281.4122621	64281.41278	100	imm	64285.6065756	nan	nan	nan	nan	nan
1047.962890625	0.0	40	2146228	72	63	230	0	0	64274.8432923	64274.8439316	80	64278.030443	64278.0308939	40	64281.4122621	64281.41278	100	imm	64285.6065756	nan	nan	nan	nan	nan
1051.3447265625	0.0	100	2153154	72	63	230	0	0	64274.8432923	64274.8439316	80	64278.030443	64278.0308939	40	64281.4122621	64281.41278	100	imm	64285.6065756	nan	nan	nan	nan	nan
1058.25048828125	0.0	80	2167297	73	57	60	1	0	64288.3182234	64288.318689	80	64291.6677599	64291.6682423	40	64295.0341445	64295.0346437	100	na	64305.6455237	64306.1573769	64306.1578753	120.0	1.0	64309.7345185
1061.60009765625	0.0	40	2174157	73	57	60	1	0	64288.3182234	64288.318689	80	64291.6677599	64291.6682423	40	64295.0341445	64295.0346437	100	na	64305.6455237	64306.1573769	64306.1578753	120.0	1.0	64309.7345185
1064.96630859375	0.0	100	2181051	73	57	60	1	0	64288.3182234	64288.318689	80	64291.6677599	64291.6682423	40	64295.0341445	64295.0346437	100	na	64305.6455237	64306.1573769	64306.1578753	120.0	1.0	64309.7345185
1076.08935546875	0.0	120	2203831	73	57	60	1	0	64288.3182234	64288.318689	80	64291.6677599	64291.6682423	40	64295.0341445	64295.0346437	100	na	64305.6455237	64306.1573769	64306.1578753	120.0	1.0	64309.7345185
1081.90087890625	0.0	80	2215733	74	93	430	0	1	64311.9694705	64311.9698842	80	64314.987427	64314.987879	40	64318.1653275	64318.1659559	100	imm	64320.3896299	nan	nan	nan	nan	nan
1084.9189453125	0.0	40	2221914	74	93	430	0	1	64311.9694705	64311.9698842	80	64314.987427	64314.987879	40	64318.1653275	64318.1659559	100	imm	64320.3896299	nan	nan	nan	nan	nan
1088.0966796875	0.0	100	2228422	74	93	430	0	1	64311.9694705	64311.9698842	80	64314.987427	64314.987879	40	64318.1653275	64318.1659559	100	imm	64320.3896299	nan	nan	nan	nan	nan
1093.05078125	0.0	80	2238568	75	67	430	0	0	64323.1193152	64323.11982	80	64326.2620263	64326.2624395	40	64329.3741075	64329.3746268	100	imm	64333.5656832	nan	nan	nan	nan	nan
1096.193359375	0.0	40	2245004	75	67	430	0	0	64323.1193152	64323.11982	80	64326.2620263	64326.2624395	40	64329.3741075	64329.3746268	100	imm	64333.5656832	nan	nan	nan	nan	nan
1099.30517578125	0.0	100	2251377	75	67	430	0	0	64323.1193152	64323.11982	80	64326.2620263	64326.2624395	40	64329.3741075	64329.3746268	100	imm	64333.5656832	nan	nan	nan	nan	nan
1106.4248046875	0.0	80	2265958	76	77	18	1	1	64336.4938716	64336.4943315	80	64339.7150647	64339.7154001	40	64343.1682372	64343.1686201	100	del	64348.8047752	64349.3160448	64349.3164021	120.0	2.0	64350.685394
1109.64599609375	0.0	40	2272555	76	77	18	1	1	64336.4938716	64336.4943315	80	64339.7150647	64339.7154001	40	64343.1682372	64343.1686201	100	del	64348.8047752	64349.3160448	64349.3164021	120.0	2.0	64350.685394
1113.09912109375	0.0	100	2279627	76	77	18	1	1	64336.4938716	64336.4943315	80	64339.7150647	64339.7154001	40	64343.1682372	64343.1686201	100	del	64348.8047752	64349.3160448	64349.3164021	120.0	2.0	64350.685394
1119.24658203125	0.0	120	2292217	76	77	18	1	1	64336.4938716	64336.4943315	80	64339.7150647	64339.7154001	40	64343.1682372	64343.1686201	100	del	64348.8047752	64349.3160448	64349.3164021	120.0	2.0	64350.685394
1122.8251953125	0.0	80	2299546	77	60	170	1	0	64352.8946656	64352.895118	80	64356.2872291	64356.2876837	40	64359.4988356	64359.4993726	100	imm	64372.0786368	64372.5890878	64372.5894121	120.0	2.0	64377.7817188
1126.2177734375	0.0	40	2306494	77	60	170	1	0	64352.8946656	64352.895118	80	64356.2872291	64356.2876837	40	64359.4988356	64359.4993726	100	imm	64372.0786368	64372.5890878	64372.5894121	120.0	2.0	64377.7817188
1129.42919921875	0.0	100	2313071	77	60	170	1	0	64352.8946656	64352.895118	80	64356.2872291	64356.2876837	40	64359.4988356	64359.4993726	100	imm	64372.0786368	64372.5890878	64372.5894121	120.0	2.0	64377.7817188
1142.51904296875	0.0	120	2339879	77	60	170	1	0	64352.8946656	64352.895118	80	64356.2872291	64356.2876837	40	64359.4988356	64359.4993726	100	imm	64372.0786368	64372.5890878	64372.5894121	120.0	2.0	64377.7817188
1150.13037109375	0.0	80	2355467	78	73	170	1	0	64380.2005049	64380.2008931	80	64383.5846001	64383.5850871	40	64386.7869702	64386.7874666	100	imm	64389.100882	64389.6115657	64389.611947	120.0	1.0	64390.5816771
1153.51416015625	0.0	40	2362397	78	73	170	1	0	64380.2005049	64380.2008931	80	64383.5846001	64383.5850871	40	64386.7869702	64386.7874666	100	imm	64389.100882	64389.6115657	64389.611947	120.0	1.0	64390.5816771
1156.716796875	0.0	100	2368956	78	73	170	1	0	64380.2005049	64380.2008931	80	64383.5846001	64383.5850871	40	64386.7869702	64386.7874666	100	imm	64389.100882	64389.6115657	64389.611947	120.0	1.0	64390.5816771
1159.541015625	0.0	120	2374740	78	73	170	1	0	64380.2005049	64380.2008931	80	64383.5846001	64383.5850871	40	64386.7869702	64386.7874666	100	imm	64389.100882	64389.6115657	64389.611947	120.0	1.0	64390.5816771
1162.6318359375	0.0	80	2381070	79	87	300	1	1	64392.702274	64392.7026025	80	64396.1048587	64396.1053478	40	64399.5930221	64399.5935149	100	imm	64401.3494013	64401.8626137	64401.8630437	120.0	2.0	64404.1969414
1166.0341796875	0.0	40	2388038	79	87	300	1	1	64392.702274	64392.7026025	80	64396.1048587	64396.1053478	40	64399.5930221	64399.5935149	100	imm	64401.3494013	64401.8626137	64401.8630437	120.0	2.0	64404.1969414
1169.5224609375	0.0	100	2395182	79	87	300	1	1	64392.702274	64392.7026025	80	64396.1048587	64396.1053478	40	64399.5930221	64399.5935149	100	imm	64401.3494013	64401.8626137	64401.8630437	120.0	2.0	64404.1969414
1171.7919921875	0.0	120	2399830	79	87	300	1	1	64392.702274	64392.7026025	80	64396.1048587	64396.1053478	40	64399.5930221	64399.5935149	100	imm	64401.3494013	64401.8626137	64401.8630437	120.0	2.0	64404.1969414
1176.3046875	0.0	80	2409072	80	50	300	1	1	64406.3753128	64406.375722	80	64409.7184435	64409.7188641	40	64412.9499444	64412.9503689	100	imm	64414.8055887	64415.3142655	64415.3145446	120.0	2.0	64416.3016181
1179.6474609375	0.0	40	2415918	80	50	300	1	1	64406.3753128	64406.375722	80	64409.7184435	64409.7188641	40	64412.9499444	64412.9503689	100	imm	64414.8055887	64415.3142655	64415.3145446	120.0	2.0	64416.3016181
1182.87890625	0.0	100	2422536	80	50	300	1	1	64406.3753128	64406.375722	80	64409.7184435	64409.7188641	40	64412.9499444	64412.9503689	100	imm	64414.8055887	64415.3142655	64415.3145446	120.0	2.0	64416.3016181
1185.2431640625	0.0	120	2427378	80	50	300	1	1	64406.3753128	64406.375722	80	64409.7184435	64409.7188641	40	64412.9499444	64412.9503689	100	imm	64414.8055887	64415.3142655	64415.3145446	120.0	2.0	64416.3016181
1247.61962890625	0.0	80	2555125	81	67	300	1	1	64477.6921912	64477.6927114	80	64481.0838424	64481.084288	40	64484.1792661	64484.1797067	100	imm	64485.309302	64485.8193651	64485.8197175	120.0	2.0	64488.7172968
1251.01123046875	0.0	40	2562071	81	67	300	1	1	64477.6921912	64477.6927114	80	64481.0838424	64481.084288	40	64484.1792661	64484.1797067	100	imm	64485.309302	64485.8193651	64485.8197175	120.0	2.0	64488.7172968
1254.1064453125	0.0	100	2568410	81	67	300	1	1	64477.6921912	64477.6927114	80	64481.0838424	64481.084288	40	64484.1792661	64484.1797067	100	imm	64485.309302	64485.8193651	64485.8197175	120.0	2.0	64488.7172968
1255.74658203125	0.0	120	2571769	81	67	300	1	1	64477.6921912	64477.6927114	80	64481.0838424	64481.084288	40	64484.1792661	64484.1797067	100	imm	64485.309302	64485.8193651	64485.8197175	120.0	2.0	64488.7172968
1261.087890625	0.0	80	2582708	82	93	300	1	0	64491.1610376	64491.1613815	80	64494.6649483	64494.6654403	40	64497.9358817	64497.9363668	100	del	64505.4128757	64505.9256273	64505.9260621	120.0	2.0	64509.5573983
1264.591796875	0.0	40	2589884	82	93	300	1	0	64491.1610376	64491.1613815	80	64494.6649483	64494.6654403	40	64497.9358817	64497.9363668	100	del	64505.4128757	64505.9256273	64505.9260621	120.0	2.0	64509.5573983
1267.86279296875	0.0	100	2596583	82	93	300	1	0	64491.1610376	64491.1613815	80	64494.6649483	64494.6654403	40	64497.9358817	64497.9363668	100	del	64505.4128757	64505.9256273	64505.9260621	120.0	2.0	64509.5573983
1275.85205078125	0.0	120	2612945	82	93	300	1	0	64491.1610376	64491.1613815	80	64494.6649483	64494.6654403	40	64497.9358817	64497.9363668	100	del	64505.4128757	64505.9256273	64505.9260621	120.0	2.0	64509.5573983
1281.93994140625	0.0	80	2625413	83	100	110	0	1	64512.0133475	64512.0138559	80	64515.3159233	64515.3164761	40	64518.4061136	64518.4067	100	del	64520.2531963	nan	nan	nan	nan	nan
1285.2421875	0.0	40	2632176	83	100	110	0	1	64512.0133475	64512.0138559	80	64515.3159233	64515.3164761	40	64518.4061136	64518.4067	100	del	64520.2531963	nan	nan	nan	nan	nan
1288.33251953125	0.0	100	2638505	83	100	110	0	1	64512.0133475	64512.0138559	80	64515.3159233	64515.3164761	40	64518.4061136	64518.4067	100	del	64520.2531963	nan	nan	nan	nan	nan
1292.79736328125	0.0	80	2647649	84	83	18	1	0	64522.8714306	64522.8719139	80	64526.0825433	64526.083021	40	64529.4699438	64529.4704577	100	del	64531.5971176	64532.1078551	64532.1083688	120.0	1.0	64548.9568784
1296.0087890625	0.0	40	2654226	84	83	18	1	0	64522.8714306	64522.8719139	80	64526.0825433	64526.083021	40	64529.4699438	64529.4704577	100	del	64531.5971176	64532.1078551	64532.1083688	120.0	1.0	64548.9568784
1299.39599609375	0.0	100	2661163	84	83	18	1	0	64522.8714306	64522.8719139	80	64526.0825433	64526.083021	40	64529.4699438	64529.4704577	100	del	64531.5971176	64532.1078551	64532.1083688	120.0	1.0	64548.9568784
1302.03369140625	0.0	120	2666565	84	83	18	1	0	64522.8714306	64522.8719139	80	64526.0825433	64526.083021	40	64529.4699438	64529.4704577	100	del	64531.5971176	64532.1078551	64532.1083688	120.0	1.0	64548.9568784
1321.31005859375	0.0	80	2706043	85	83	40	0	1	64551.3846538	64551.3850661	80	64554.7864261	64554.786827	40	64557.9597599	64557.9602386	100	na	64563.7885797	nan	nan	nan	nan	nan
1324.7119140625	0.0	40	2713010	85	83	40	0	1	64551.3846538	64551.3850661	80	64554.7864261	64554.786827	40	64557.9597599	64557.9602386	100	na	64563.7885797	nan	nan	nan	nan	nan
1327.884765625	0.0	100	2719508	85	83	40	0	1	64551.3846538	64551.3850661	80	64554.7864261	64554.786827	40	64557.9597599	64557.9602386	100	na	64563.7885797	nan	nan	nan	nan	nan
1336.494140625	0.0	80	2737140	86	60	840	0	1	64566.5693646	64566.5697045	80	64569.620489	64569.6209045	40	64572.6896154	64572.6901169	100	imm	64573.9008043	nan	nan	nan	nan	nan
1339.54541015625	0.0	40	2743389	86	60	840	0	1	64566.5693646	64566.5697045	80	64569.620489	64569.6209045	40	64572.6896154	64572.6901169	100	imm	64573.9008043	nan	nan	nan	nan	nan
1342.6142578125	0.0	100	2749674	86	60	840	0	1	64566.5693646	64566.5697045	80	64569.620489	64569.6209045	40	64572.6896154	64572.6901169	100	imm	64573.9008043	nan	nan	nan	nan	nan
1346.40966796875	0.0	80	2757447	87	70	170	1	0	64576.4847509	64576.4851353	80	64579.8308477	64579.8312566	40	64583.0938476	64583.0943367	100	del	64584.9646263	64585.4792345	64585.479716	120.0	1.0	64588.7728567
1349.75537109375	0.0	40	2764299	87	70	170	1	0	64576.4847509	64576.4851353	80	64579.8308477	64579.8312566	40	64583.0938476	64583.0943367	100	del	64584.9646263	64585.4792345	64585.479716	120.0	1.0	64588.7728567
1353.0185546875	0.0	100	2770982	87	70	170	1	0	64576.4847509	64576.4851353	80	64579.8308477	64579.8312566	40	64583.0938476	64583.0943367	100	del	64584.9646263	64585.4792345	64585.479716	120.0	1.0	64588.7728567
1355.40380859375	0.0	120	2775867	87	70	170	1	0	64576.4847509	64576.4851353	80	64579.8308477	64579.8312566	40	64583.0938476	64583.0943367	100	del	64584.9646263	64585.4792345	64585.479716	120.0	1.0	64588.7728567
1360.80322265625	0.0	80	2786925	88	50	600	1	1	64590.8789943	64590.8792426	80	64594.1340448	64594.1344489	40	64597.2209873	64597.2214336	100	na	64598.1253149	64598.6356613	64598.6360194	120.0	2.0	64606.5735952
1364.05810546875	0.0	40	2793591	88	50	600	1	1	64590.8789943	64590.8792426	80	64594.1340448	64594.1344489	40	64597.2209873	64597.2214336	100	na	64598.1253149	64598.6356613	64598.6360194	120.0	2.0	64606.5735952
1367.14501953125	0.0	100	2799913	88	50	600	1	1	64590.8789943	64590.8792426	80	64594.1340448	64594.1344489	40	64597.2209873	64597.2214336	100	na	64598.1253149	64598.6356613	64598.6360194	120.0	2.0	64606.5735952
1368.5595703125	0.0	120	2802810	88	50	600	1	1	64590.8789943	64590.8792426	80	64594.1340448	64594.1344489	40	64597.2209873	64597.2214336	100	na	64598.1253149	64598.6356613	64598.6360194	120.0	2.0	64606.5735952
1378.53955078125	0.0	80	2823249	89	87	600	1	0	64608.6154581	64608.6160402	80	64612.0485088	64612.0491189	40	64615.3448818	64615.3456256	100	na	64629.2774853	64629.7873917	64629.7876983	120.0	2.0	64633.3570911
1381.97216796875	0.0	40	2830279	89	87	600	1	0	64608.6154581	64608.6160402	80	64612.0485088	64612.0491189	40	64615.3448818	64615.3456256	100	na	64629.2774853	64629.7873917	64629.7876983	120.0	2.0	64633.3570911
1385.2685546875	0.0	100	2837030	89	87	600	1	0	64608.6154581	64608.6160402	80	64612.0485088	64612.0491189	40	64615.3448818	64615.3456256	100	na	64629.2774853	64629.7873917	64629.7876983	120.0	2.0	64633.3570911
1399.71044921875	0.0	120	2866607	89	87	600	1	0	64608.6154581	64608.6160402	80	64612.0485088	64612.0491189	40	64615.3448818	64615.3456256	100	na	64629.2774853	64629.7873917	64629.7876983	120.0	2.0	64633.3570911
1405.75927734375	0.0	80	2878995	90	93	40	0	0	64635.8361425	64635.8366612	80	64639.1925267	64639.1930334	40	64642.4978301	64642.4983219	100	del	64645.3098476	nan	nan	nan	nan	nan
1409.11572265625	0.0	40	2885869	90	93	40	0	0	64635.8361425	64635.8366612	80	64639.1925267	64639.1930334	40	64642.4978301	64642.4983219	100	del	64645.3098476	nan	nan	nan	nan	nan
1412.4208984375	0.0	100	2892638	90	93	40	0	0	64635.8361425	64635.8366612	80	64639.1925267	64639.1930334	40	64642.4978301	64642.4983219	100	del	64645.3098476	nan	nan	nan	nan	nan
1418.15673828125	0.0	80	2904385	91	67	230	0	1	64648.2338102	64648.234195	80	64651.681154	64651.6816559	40	64655.1896813	64655.1901038	100	imm	64658.5413714	nan	nan	nan	nan	nan
1421.60400390625	0.0	40	2911445	91	67	230	0	1	64648.2338102	64648.234195	80	64651.681154	64651.6816559	40	64655.1896813	64655.1901038	100	imm	64658.5413714	nan	nan	nan	nan	nan
1425.1123046875	0.0	100	2918630	91	67	230	0	1	64648.2338102	64648.234195	80	64651.681154	64651.6816559	40	64655.1896813	64655.1901038	100	imm	64658.5413714	nan	nan	nan	nan	nan
1430.97998046875	0.0	80	2930647	92	57	18	1	0	64661.0575791	64661.0580751	80	64664.4962085	64664.4965344	40	64667.8120091	64667.8123605	100	na	64669.7248333	64670.2362775	64670.2367271	120.0	1.0	64671.6850854
1434.41845703125	0.0	40	2937689	92	57	18	1	0	64661.0575791	64661.0580751	80	64664.4962085	64664.4965344	40	64667.8120091	64667.8123605	100	na	64669.7248333	64670.2362775	64670.2367271	120.0	1.0	64671.6850854
1437.734375	0.0	100	2944480	92	57	18	1	0	64661.0575791	64661.0580751	80	64664.4962085	64664.4965344	40	64667.8120091	64667.8123605	100	na	64669.7248333	64670.2362775	64670.2367271	120.0	1.0	64671.6850854
1440.15869140625	0.0	120	2949445	92	57	18	1	0	64661.0575791	64661.0580751	80	64664.4962085	64664.4965344	40	64667.8120091	64667.8123605	100	na	64669.7248333	64670.2362775	64670.2367271	120.0	1.0	64671.6850854
1444.115234375	0.0	80	2957548	93	100	40	0	0	64674.1931033	64674.1935034	80	64677.4643953	64677.464859	40	64680.7179632	64680.7184891	100	na	64684.029437	nan	nan	nan	nan	nan
1447.38671875	0.0	40	2964248	93	100	40	0	0	64674.1931033	64674.1935034	80	64677.4643953	64677.464859	40	64680.7179632	64680.7184891	100	na	64684.029437	nan	nan	nan	nan	nan
1450.64013671875	0.0	100	2970911	93	100	40	0	0	64674.1931033	64674.1935034	80	64677.4643953	64677.464859	40	64680.7179632	64680.7184891	100	na	64684.029437	nan	nan	nan	nan	nan
1456.8681640625	0.0	80	2983666	94	77	430	0	0	64686.9460254	64686.9465291	80	64690.0675022	64690.067962	40	64693.3301895	64693.3307008	100	imm	64697.9969037	nan	nan	nan	nan	nan
1459.9892578125	0.0	40	2990058	94	77	430	0	0	64686.9460254	64686.9465291	80	64690.0675022	64690.067962	40	64693.3301895	64693.3307008	100	imm	64697.9969037	nan	nan	nan	nan	nan
1463.251953125	0.0	100	2996740	94	77	430	0	0	64686.9460254	64686.9465291	80	64690.0675022	64690.067962	40	64693.3301895	64693.3307008	100	imm	64697.9969037	nan	nan	nan	nan	nan
1470.88525390625	0.0	80	3012373	95	60	230	0	0	64700.9635287	64700.9640085	80	64704.2573147	64704.2576592	40	64707.6947253	64707.6952681	100	imm	64709.9982888	nan	nan	nan	nan	nan
1474.1787109375	0.0	40	3019118	95	60	230	0	0	64700.9635287	64700.9640085	80	64704.2573147	64704.2576592	40	64707.6947253	64707.6952681	100	imm	64709.9982888	nan	nan	nan	nan	nan
1477.6162109375	0.0	100	3026158	95	60	230	0	0	64700.9635287	64700.9640085	80	64704.2573147	64704.2576592	40	64707.6947253	64707.6952681	100	imm	64709.9982888	nan	nan	nan	nan	nan
1482.8046875	0.0	80	3036784	96	50	110	0	0	64712.8835082	64712.8840035	80	64716.18411	64716.1845137	40	64719.3224427	64719.3229721	100	imm	64720.2767973	nan	nan	nan	nan	nan
1486.10498046875	0.0	40	3043543	96	50	110	0	0	64712.8835082	64712.8840035	80	64716.18411	64716.1845137	40	64719.3224427	64719.3229721	100	imm	64720.2767973	nan	nan	nan	nan	nan
1489.24365234375	0.0	100	3049971	96	50	110	0	0	64712.8835082	64712.8840035	80	64716.18411	64716.1845137	40	64719.3224427	64719.3229721	100	imm	64720.2767973	nan	nan	nan	nan	nan
1493.0498046875	0.0	80	3057766	97	87	60	1	0	64723.1287933	64723.1292967	80	64726.1780636	64726.1784578	40	64729.5039378	64729.5043701	100	del	64730.7567648	64731.2703139	64731.2708325	120.0	1.0	64732.9412689
1496.09912109375	0.0	40	3064011	97	87	60	1	0	64723.1287933	64723.1292967	80	64726.1780636	64726.1784578	40	64729.5039378	64729.5043701	100	del	64730.7567648	64731.2703139	64731.2708325	120.0	1.0	64732.9412689
1499.4248046875	0.0	100	3070822	97	87	60	1	0	64723.1287933	64723.1292967	80	64726.1780636	64726.1784578	40	64729.5039378	64729.5043701	100	del	64730.7567648	64731.2703139	64731.2708325	120.0	1.0	64732.9412689
1501.19091796875	0.0	120	3074439	97	87	60	1	0	64723.1287933	64723.1292967	80	64726.1780636	64726.1784578	40	64729.5039378	64729.5043701	100	del	64730.7567648	64731.2703139	64731.2708325	120.0	1.0	64732.9412689
1505.20703125	0.0	80	3082664	98	90	60	1	0	64735.2862683	64735.2867085	80	64738.6579781	64738.6583728	40	64742.1151405	64742.1156229	100	imm	64748.2061795	64748.7201011	64748.7206162	120.0	1.0	64750.1022434
1508.57861328125	0.0	40	3089569	98	90	60	1	0	64735.2862683	64735.2867085	80	64738.6579781	64738.6583728	40	64742.1151405	64742.1156229	100	imm	64748.2061795	64748.7201011	64748.7206162	120.0	1.0	64750.1022434
1512.03564453125	0.0	100	3096649	98	90	60	1	0	64735.2862683	64735.2867085	80	64738.6579781	64738.6583728	40	64742.1151405	64742.1156229	100	imm	64748.2061795	64748.7201011	64748.7206162	120.0	1.0	64750.1022434
1518.64013671875	0.0	120	3110175	98	90	60	1	0	64735.2862683	64735.2867085	80	64738.6579781	64738.6583728	40	64742.1151405	64742.1156229	100	imm	64748.2061795	64748.7201011	64748.7206162	120.0	1.0	64750.1022434
1522.5263671875	0.0	80	3118134	99	70	430	0	0	64752.606224	64752.6065367	80	64755.9963926	64755.9967122	40	64759.2972251	64759.2975666	100	imm	64761.6382752	nan	nan	nan	nan	nan
1525.91650390625	0.0	40	3125077	99	70	430	0	0	64752.606224	64752.6065367	80	64755.9963926	64755.9967122	40	64759.2972251	64759.2975666	100	imm	64761.6382752	nan	nan	nan	nan	nan
1529.21728515625	0.0	100	3131837	99	70	430	0	0	64752.606224	64752.6065367	80	64755.9963926	64755.9967122	40	64759.2972251	64759.2975666	100	imm	64761.6382752	nan	nan	nan	nan	nan
1534.5390625	0.0	80	3142736	100	73	300	1	1	64764.6193609	64764.619814	80	64767.9175161	64767.9179878	40	64770.9398914	64770.9403952	100	imm	64773.3253203	64773.8366233	64773.8370328	120.0	2.0	64776.8691399
1537.83740234375	0.0	40	3149491	100	73	300	1	1	64764.6193609	64764.619814	80	64767.9175161	64767.9179878	40	64770.9398914	64770.9403952	100	imm	64773.3253203	64773.8366233	64773.8370328	120.0	2.0	64776.8691399
1540.859375	0.0	100	3155680	100	73	300	1	1	64764.6193609	64764.619814	80	64767.9175161	64767.9179878	40	64770.9398914	64770.9403952	100	imm	64773.3253203	64773.8366233	64773.8370328	120.0	2.0	64776.8691399
1543.75634765625	0.0	120	3161613	100	73	300	1	1	64764.6193609	64764.619814	80	64767.9175161	64767.9179878	40	64770.9398914	64770.9403952	100	imm	64773.3253203	64773.8366233	64773.8370328	120.0	2.0	64776.8691399
1654.28759765625	0.0	80	3387981	101	50	60	1	0	64884.3709765	64884.3713562	80	64887.8094782	64887.8099779	40	64891.0646442	64891.0651655	100	imm	64892.0380505	64892.5480278	64892.5483203	120.0	1.0	64894.117366
1657.72607421875	0.0	40	3395023	101	50	60	1	0	64884.3709765	64884.3713562	80	64887.8094782	64887.8099779	40	64891.0646442	64891.0651655	100	imm	64892.0380505	64892.5480278	64892.5483203	120.0	1.0	64894.117366
1660.9814453125	0.0	100	3401690	101	50	60	1	0	64884.3709765	64884.3713562	80	64887.8094782	64887.8099779	40	64891.0646442	64891.0651655	100	imm	64892.0380505	64892.5480278	64892.5483203	120.0	1.0	64894.117366
1662.46435546875	0.0	120	3404727	101	50	60	1	0	64884.3709765	64884.3713562	80	64887.8094782	64887.8099779	40	64891.0646442	64891.0651655	100	imm	64892.0380505	64892.5480278	64892.5483203	120.0	1.0	64894.117366
1666.47216796875	0.0	80	3412935	102	73	230	0	1	64896.5557046	64896.5561779	80	64899.6690543	64899.6695062	40	64902.9546671	64902.9549949	100	imm	64903.7567239	nan	nan	nan	nan	nan
1669.58544921875	0.0	40	3419311	102	73	230	0	1	64896.5557046	64896.5561779	80	64899.6690543	64899.6695062	40	64902.9546671	64902.9549949	100	imm	64903.7567239	nan	nan	nan	nan	nan
1672.87109375	0.0	100	3426040	102	73	230	0	1	64896.5557046	64896.5561779	80	64899.6690543	64899.6695062	40	64902.9546671	64902.9549949	100	imm	64903.7567239	nan	nan	nan	nan	nan
1676.50439453125	0.0	80	3433481	103	67	40	0	1	64906.5882307	64906.5886838	80	64909.6117215	64909.612205	40	64912.9331999	64912.9337414	100	del	64914.6445429	nan	nan	nan	nan	nan
1679.52783203125	0.0	40	3439673	103	67	40	0	1	64906.5882307	64906.5886838	80	64909.6117215	64909.612205	40	64912.9331999	64912.9337414	100	del	64914.6445429	nan	nan	nan	nan	nan
1682.84912109375	0.0	100	3446475	103	67	40	0	1	64906.5882307	64906.5886838	80	64909.6117215	64909.612205	40	64912.9331999	64912.9337414	100	del	64914.6445429	nan	nan	nan	nan	nan
1687.2568359375	0.0	80	3455502	104	90	840	0	1	64917.3411831	64917.3415416	80	64920.373192	64920.3736766	40	64923.631788	64923.6322741	100	na	64930.1645912	nan	nan	nan	nan	nan
1690.2890625	0.0	40	3461712	104	90	840	0	1	64917.3411831	64917.3415416	80	64920.373192	64920.3736766	40	64923.631788	64923.6322741	100	na	64930.1645912	nan	nan	nan	nan	nan
1693.54736328125	0.0	100	3468385	104	90	840	0	1	64917.3411831	64917.3415416	80	64920.373192	64920.3736766	40	64923.631788	64923.6322741	100	na	64930.1645912	nan	nan	nan	nan	nan
1702.69384765625	0.0	80	3487117	105	90	18	1	1	64932.7779421	64932.778621	80	64935.8474053	64935.8478378	40	64938.9637343	64938.9642471	100	del	64939.661052	64940.1705807	64940.1709483	120.0	1.0	64941.0449364
1705.7626953125	0.0	40	3493402	105	90	18	1	1	64932.7779421	64932.778621	80	64935.8474053	64935.8478378	40	64938.9637343	64938.9642471	100	del	64939.661052	64940.1705807	64940.1709483	120.0	1.0	64941.0449364
1708.87890625	0.0	100	3499784	105	90	18	1	1	64932.7779421	64932.778621	80	64935.8474053	64935.8478378	40	64938.9637343	64938.9642471	100	del	64939.661052	64940.1705807	64940.1709483	120.0	1.0	64941.0449364
1710.0859375	0.0	120	3502256	105	90	18	1	1	64932.7779421	64932.778621	80	64935.8474053	64935.8478378	40	64938.9637343	64938.9642471	100	del	64939.661052	64940.1705807	64940.1709483	120.0	1.0	64941.0449364
1713.04833984375	0.0	80	3508323	106	53	18	1	0	64943.1332484	64943.1337229	80	64946.2354888	64946.2359049	40	64949.2663616	64949.26669	100	del	64952.2932875	64952.8040679	64952.804474	120.0	2.0	64957.4931798
1716.150390625	0.0	40	3514676	106	53	18	1	0	64943.1332484	64943.1337229	80	64946.2354888	64946.2359049	40	64949.2663616	64949.26669	100	del	64952.2932875	64952.8040679	64952.804474	120.0	2.0	64957.4931798
1719.18115234375	0.0	100	3520883	106	53	18	1	0	64943.1332484	64943.1337229	80	64946.2354888	64946.2359049	40	64949.2663616	64949.26669	100	del	64952.2932875	64952.8040679	64952.804474	120.0	2.0	64957.4931798
1722.71923828125	0.0	120	3528129	106	53	18	1	0	64943.1332484	64943.1337229	80	64946.2354888	64946.2359049	40	64949.2663616	64949.26669	100	del	64952.2932875	64952.8040679	64952.804474	120.0	2.0	64957.4931798
1729.7373046875	0.0	80	3542502	107	63	840	0	0	64959.8223958	64959.8226853	80	64962.9707017	64962.9711551	40	64966.254094	64966.2545387	100	na	64971.5082997	nan	nan	nan	nan	nan
1732.88525390625	0.0	40	3548949	107	63	840	0	0	64959.8223958	64959.8226853	80	64962.9707017	64962.9711551	40	64966.254094	64966.2545387	100	na	64971.5082997	nan	nan	nan	nan	nan
1736.1689453125	0.0	100	3555674	107	63	840	0	0	64959.8223958	64959.8226853	80	64962.9707017	64962.9711551	40	64966.254094	64966.2545387	100	na	64971.5082997	nan	nan	nan	nan	nan
1744.28759765625	0.0	80	3572301	108	50	18	1	1	64974.3733537	64974.3738406	80	64977.6302367	64977.6306291	40	64980.9113536	64980.91187	100	del	64981.6221105	64982.1324222	64982.1328173	120.0	2.0	64983.5162897
1747.54443359375	0.0	40	3578971	108	50	18	1	1	64974.3733537	64974.3738406	80	64977.6302367	64977.6306291	40	64980.9113536	64980.91187	100	del	64981.6221105	64982.1324222	64982.1328173	120.0	2.0	64983.5162897
1750.82568359375	0.0	100	3585691	108	50	18	1	1	64974.3733537	64974.3738406	80	64977.6302367	64977.6306291	40	64980.9113536	64980.91187	100	del	64981.6221105	64982.1324222	64982.1328173	120.0	2.0	64983.5162897
1752.04638671875	0.0	120	3588191	108	50	18	1	1	64974.3733537	64974.3738406	80	64977.6302367	64977.6306291	40	64980.9113536	64980.91187	100	del	64981.6221105	64982.1324222	64982.1328173	120.0	2.0	64983.5162897
1755.66748046875	0.0	80	3595607	109	100	230	0	1	64985.7533828	64985.7538479	80	64988.8234722	64988.8238838	40	64992.0797365	64992.0801522	100	del	64992.853125	nan	nan	nan	nan	nan
1758.7373046875	0.0	40	3601894	109	100	230	0	1	64985.7533828	64985.7538479	80	64988.8234722	64988.8238838	40	64992.0797365	64992.0801522	100	del	64992.853125	nan	nan	nan	nan	nan
1761.99365234375	0.0	100	3608563	109	100	230	0	1	64985.7533828	64985.7538479	80	64988.8234722	64988.8238838	40	64992.0797365	64992.0801522	100	del	64992.853125	nan	nan	nan	nan	nan
1765.71142578125	0.0	80	3616177	110	90	600	1	0	64995.7974475	64995.7979763	80	64999.2420139	64999.2425021	40	65002.3905469	65002.3910393	100	na	65007.5883695	65008.10053	65008.1010144	120.0	1.0	65010.2619278
1769.15576171875	0.0	40	3623231	110	90	600	1	0	64995.7974475	64995.7979763	80	64999.2420139	64999.2425021	40	65002.3905469	65002.3910393	100	na	65007.5883695	65008.10053	65008.1010144	120.0	1.0	65010.2619278
1772.30419921875	0.0	100	3629679	110	90	600	1	0	64995.7974475	64995.7979763	80	64999.2420139	64999.2425021	40	65002.3905469	65002.3910393	100	na	65007.5883695	65008.10053	65008.1010144	120.0	1.0	65010.2619278
1778.01416015625	0.0	120	3641373	110	90	600	1	0	64995.7974475	64995.7979763	80	64999.2420139	64999.2425021	40	65002.3905469	65002.3910393	100	na	65007.5883695	65008.10053	65008.1010144	120.0	1.0	65010.2619278
1782.29150390625	0.0	80	3650133	111	60	600	1	1	65012.3783676	65012.3787097	80	65015.6683153	65015.6689203	40	65018.9985049	65018.9988884	100	na	65023.2532214	65023.762521	65023.7628748	120.0	1.0	65024.8290856
1785.58154296875	0.0	40	3656871	111	60	600	1	1	65012.3783676	65012.3787097	80	65015.6683153	65015.6689203	40	65018.9985049	65018.9988884	100	na	65023.2532214	65023.762521	65023.7628748	120.0	1.0	65024.8290856
1788.91162109375	0.0	100	3663691	111	60	600	1	1	65012.3783676	65012.3787097	80	65015.6683153	65015.6689203	40	65018.9985049	65018.9988884	100	na	65023.2532214	65023.762521	65023.7628748	120.0	1.0	65024.8290856
1793.67578125	0.0	120	3673448	111	60	600	1	1	65012.3783676	65012.3787097	80	65015.6683153	65015.6689203	40	65018.9985049	65018.9988884	100	na	65023.2532214	65023.762521	65023.7628748	120.0	1.0	65024.8290856
1796.966796875	0.0	80	3680188	112	77	170	1	0	65027.053767	65027.0542775	80	65030.1630256	65030.163374	40	65033.6498821	65033.6504057	100	imm	65037.9248954	65038.435281	65038.4356315	120.0	1.0	65045.1407225
1800.07568359375	0.0	40	3686555	112	77	170	1	0	65027.053767	65027.0542775	80	65030.1630256	65030.163374	40	65033.6498821	65033.6504057	100	imm	65037.9248954	65038.435281	65038.4356315	120.0	1.0	65045.1407225
1803.56298828125	0.0	100	3693697	112	77	170	1	0	65027.053767	65027.0542775	80	65030.1630256	65030.163374	40	65033.6498821	65033.6504057	100	imm	65037.9248954	65038.435281	65038.4356315	120.0	1.0	65045.1407225
1808.34814453125	0.0	120	3703497	112	77	170	1	0	65027.053767	65027.0542775	80	65030.1630256	65030.163374	40	65033.6498821	65033.6504057	100	imm	65037.9248954	65038.435281	65038.4356315	120.0	1.0	65045.1407225
1817.10546875	0.0	80	3721432	113	93	230	0	0	65047.1932014	65047.1935794	80	65050.2539273	65050.254403	40	65053.3341394	65053.3346556	100	del	65057.4931218	nan	nan	nan	nan	nan
1820.16650390625	0.0	40	3727701	113	93	230	0	0	65047.1932014	65047.1935794	80	65050.2539273	65050.254403	40	65053.3341394	65053.3346556	100	del	65057.4931218	nan	nan	nan	nan	nan
1823.24658203125	0.0	100	3734009	113	93	230	0	0	65047.1932014	65047.1935794	80	65050.2539273	65050.254403	40	65053.3341394	65053.3346556	100	del	65057.4931218	nan	nan	nan	nan	nan
1830.00341796875	0.0	80	3747847	114	97	430	0	0	65060.0914595	65060.0918215	80	65063.4082189	65063.408589	40	65066.7080619	65066.7085617	100	imm	65069.5245185	nan	nan	nan	nan	nan
1833.3203125	0.0	40	3754640	114	97	430	0	0	65060.0914595	65060.0918215	80	65063.4082189	65063.408589	40	65066.7080619	65066.7085617	100	imm	65069.5245185	nan	nan	nan	nan	nan
1836.6201171875	0.0	100	3761398	114	97	430	0	0	65060.0914595	65060.0918215	80	65063.4082189	65063.408589	40	65066.7080619	65066.7085617	100	imm	65069.5245185	nan	nan	nan	nan	nan
1841.97998046875	0.0	80	3772375	115	63	18	1	0	65072.0680761	65072.0685669	80	65075.5411307	65075.5415904	40	65078.9188081	65078.9193445	100	del	65084.557078	65085.0693769	65085.0698428	120.0	1.0	65085.7010064
1845.453125	0.0	40	3779488	115	63	18	1	0	65072.0680761	65072.0685669	80	65075.5411307	65075.5415904	40	65078.9188081	65078.9193445	100	del	65084.557078	65085.0693769	65085.0698428	120.0	1.0	65085.7010064
1848.83056640625	0.0	100	3786405	115	63	18	1	0	65072.0680761	65072.0685669	80	65075.5411307	65075.5415904	40	65078.9188081	65078.9193445	100	del	65084.557078	65085.0693769	65085.0698428	120.0	1.0	65085.7010064
1854.98095703125	0.0	120	3799001	115	63	18	1	0	65072.0680761	65072.0685669	80	65075.5411307	65075.5415904	40	65078.9188081	65078.9193445	100	del	65084.557078	65085.0693769	65085.0698428	120.0	1.0	65085.7010064
1857.994140625	0.0	80	3805172	116	60	300	1	1	65088.0828795	65088.0832746	80	65091.1205168	65091.1209671	40	65094.5642059	65094.5646739	100	imm	65096.308868	65096.8195296	65096.8199446	120.0	2.0	65098.2931518
1861.03173828125	0.0	40	3811393	116	60	300	1	1	65088.0828795	65088.0832746	80	65091.1205168	65091.1209671	40	65094.5642059	65094.5646739	100	imm	65096.308868	65096.8195296	65096.8199446	120.0	2.0	65098.2931518
1864.4755859375	0.0	100	3818446	116	60	300	1	1	65088.0828795	65088.0832746	80	65091.1205168	65091.1209671	40	65094.5642059	65094.5646739	100	imm	65096.308868	65096.8195296	65096.8199446	120.0	2.0	65098.2931518
1866.73046875	0.0	120	3823064	116	60	300	1	1	65088.0828795	65088.0832746	80	65091.1205168	65091.1209671	40	65094.5642059	65094.5646739	100	imm	65096.308868	65096.8195296	65096.8199446	120.0	2.0	65098.2931518
1870.6845703125	0.0	80	3831162	117	90	110	0	1	65100.7736542	65100.7741623	80	65104.2748915	65104.2753488	40	65107.7179875	65107.7184369	100	del	65112.8047334	nan	nan	nan	nan	nan
1874.18603515625	0.0	40	3838333	117	90	110	0	1	65100.7736542	65100.7741623	80	65104.2748915	65104.2753488	40	65107.7179875	65107.7184369	100	del	65112.8047334	nan	nan	nan	nan	nan
1877.62890625	0.0	100	3845384	117	90	110	0	1	65100.7736542	65100.7741623	80	65104.2748915	65104.2753488	40	65107.7179875	65107.7184369	100	del	65112.8047334	nan	nan	nan	nan	nan
1885.6240234375	0.0	80	3861758	118	90	430	0	0	65115.713353	65115.7138154	80	65118.9779537	65118.9784463	40	65122.0817305	65122.0821895	100	imm	65124.0364659	nan	nan	nan	nan	nan
1888.888671875	0.0	40	3868444	118	90	430	0	0	65115.713353	65115.7138154	80	65118.9779537	65118.9784463	40	65122.0817305	65122.0821895	100	imm	65124.0364659	nan	nan	nan	nan	nan
1891.9921875	0.0	100	3874800	118	90	430	0	0	65115.713353	65115.7138154	80	65118.9779537	65118.9784463	40	65122.0817305	65122.0821895	100	imm	65124.0364659	nan	nan	nan	nan	nan
1896.6630859375	0.0	80	3884366	119	53	300	1	1	65126.7527716	65126.7532795	80	65129.8275275	65129.8280498	40	65132.855315	65132.8558623	100	imm	65134.3089318	65134.8212656	65134.821765	120.0	3.0	65135.4204091
1899.73779296875	0.0	40	3890663	119	53	300	1	1	65126.7527716	65126.7532795	80	65129.8275275	65129.8280498	40	65132.855315	65132.8558623	100	imm	65134.3089318	65134.8212656	65134.821765	120.0	3.0	65135.4204091
1902.765625	0.0	100	3896864	119	53	300	1	1	65126.7527716	65126.7532795	80	65129.8275275	65129.8280498	40	65132.855315	65132.8558623	100	imm	65134.3089318	65134.8212656	65134.821765	120.0	3.0	65135.4204091
1904.7314453125	0.0	120	3900890	119	53	300	1	1	65126.7527716	65126.7532795	80	65129.8275275	65129.8280498	40	65132.855315	65132.8558623	100	imm	65134.3089318	65134.8212656	65134.821765	120.0	3.0	65135.4204091
1907.814453125	0.0	80	3907204	120	97	230	0	0	65137.9040536	65137.904571	80	65141.0621158	65141.0625821	40	65144.2236345	65144.2241259	100	del	65145.6940429	nan	nan	nan	nan	nan
1910.97216796875	0.0	40	3913671	120	97	230	0	0	65137.9040536	65137.904571	80	65141.0621158	65141.0625821	40	65144.2236345	65144.2241259	100	del	65145.6940429	nan	nan	nan	nan	nan
1914.1337890625	0.0	100	3920146	120	97	230	0	0	65137.9040536	65137.904571	80	65141.0621158	65141.0625821	40	65144.2236345	65144.2241259	100	del	65145.6940429	nan	nan	nan	nan	nan
2026.814453125	0.0	80	4150916	121	57	600	1	1	65256.9072939	65256.9078038	80	65260.1482668	65260.1487701	40	65263.4851205	65263.4856396	100	imm	65265.1327386	65265.6439204	65265.6443197	120.0	2.0	65267.0122331
2030.05517578125	0.0	40	4157553	121	57	600	1	1	65256.9072939	65256.9078038	80	65260.1482668	65260.1487701	40	65263.4851205	65263.4856396	100	imm	65265.1327386	65265.6439204	65265.6443197	120.0	2.0	65267.0122331
2033.39208984375	0.0	100	4164387	121	57	600	1	1	65256.9072939	65256.9078038	80	65260.1482668	65260.1487701	40	65263.4851205	65263.4856396	100	imm	65265.1327386	65265.6439204	65265.6443197	120.0	2.0	65267.0122331
2035.55078125	0.0	120	4168808	121	57	600	1	1	65256.9072939	65256.9078038	80	65260.1482668	65260.1487701	40	65263.4851205	65263.4856396	100	imm	65265.1327386	65265.6439204	65265.6443197	120.0	2.0	65267.0122331
2038.9462890625	0.0	80	4175762	122	57	230	0	1	65269.0393918	65269.0398918	80	65272.4680777	65272.4685529	40	65275.7590419	65275.7595472	100	imm	65278.2285674	nan	nan	nan	nan	nan
2042.37451171875	0.0	40	4182783	122	57	230	0	1	65269.0393918	65269.0398918	80	65272.4680777	65272.4685529	40	65275.7590419	65275.7595472	100	imm	65278.2285674	nan	nan	nan	nan	nan
2045.66552734375	0.0	100	4189523	122	57	230	0	1	65269.0393918	65269.0398918	80	65272.4680777	65272.4685529	40	65275.7590419	65275.7595472	100	imm	65278.2285674	nan	nan	nan	nan	nan
2051.07568359375	0.0	80	4200603	123	50	40	0	0	65281.1691751	65281.1695816	80	65284.3512491	65284.3517421	40	65287.5877208	65287.5885277	100	del	65288.8205917	nan	nan	nan	nan	nan
2054.2578125	0.0	40	4207120	123	50	40	0	0	65281.1691751	65281.1695816	80	65284.3512491	65284.3517421	40	65287.5877208	65287.5885277	100	del	65288.8205917	nan	nan	nan	nan	nan
2057.49365234375	0.0	100	4213747	123	50	40	0	0	65281.1691751	65281.1695816	80	65284.3512491	65284.3517421	40	65287.5877208	65287.5885277	100	del	65288.8205917	nan	nan	nan	nan	nan
2061.271484375	0.0	80	4221484	124	63	430	0	0	65291.3651882	65291.3656637	80	65294.4586813	65294.4588932	40	65297.7993153	65297.799643	100	imm	65298.6847389	nan	nan	nan	nan	nan
2064.365234375	0.0	40	4227820	124	63	430	0	0	65291.3651882	65291.3656637	80	65294.4586813	65294.4588932	40	65297.7993153	65297.799643	100	imm	65298.6847389	nan	nan	nan	nan	nan
2067.705078125	0.0	100	4234660	124	63	430	0	0	65291.3651882	65291.3656637	80	65294.4586813	65294.4588932	40	65297.7993153	65297.799643	100	imm	65298.6847389	nan	nan	nan	nan	nan
2071.271484375	0.0	80	4241964	125	60	18	1	0	65301.3656777	65301.3660144	80	65304.8224746	65304.8228855	40	65307.894909	65307.8954405	100	del	65308.6460044	65309.1561004	65309.1564266	120.0	1.0	65311.7161763
2074.728515625	0.0	40	4249044	125	60	18	1	0	65301.3656777	65301.3660144	80	65304.8224746	65304.8228855	40	65307.894909	65307.8954405	100	del	65308.6460044	65309.1561004	65309.1564266	120.0	1.0	65311.7161763
2077.80078125	0.0	100	4255336	125	60	18	1	0	65301.3656777	65301.3660144	80	65304.8224746	65304.8228855	40	65307.894909	65307.8954405	100	del	65308.6460044	65309.1561004	65309.1564266	120.0	1.0	65311.7161763
2079.0615234375	0.0	120	4257918	125	60	18	1	0	65301.3656777	65301.3660144	80	65304.8224746	65304.8228855	40	65307.894909	65307.8954405	100	del	65308.6460044	65309.1561004	65309.1564266	120.0	1.0	65311.7161763
2084.1328125	0.0	80	4268304	126	73	40	0	1	65314.2270212	65314.2274947	80	65317.5049287	65317.5054203	40	65320.8759589	65320.8763992	100	del	65324.428792	nan	nan	nan	nan	nan
2087.41064453125	0.0	40	4275017	126	73	40	0	1	65314.2270212	65314.2274947	80	65317.5049287	65317.5054203	40	65320.8759589	65320.8763992	100	del	65324.428792	nan	nan	nan	nan	nan
2090.78125	0.0	100	4281920	126	73	40	0	1	65314.2270212	65314.2274947	80	65317.5049287	65317.5054203	40	65320.8759589	65320.8763992	100	del	65324.428792	nan	nan	nan	nan	nan
2097.349609375	0.0	80	4295372	127	50	430	0	0	65327.4443743	65327.4448589	80	65330.5959724	65330.5964672	40	65333.8122698	65333.8125729	100	imm	65335.8202753	nan	nan	nan	nan	nan
2100.5009765625	0.0	40	4301826	127	50	430	0	0	65327.4443743	65327.4448589	80	65330.5959724	65330.5964672	40	65333.8122698	65333.8125729	100	imm	65335.8202753	nan	nan	nan	nan	nan
2103.71728515625	0.0	100	4308413	127	50	430	0	0	65327.4443743	65327.4448589	80	65330.5959724	65330.5964672	40	65333.8122698	65333.8125729	100	imm	65335.8202753	nan	nan	nan	nan	nan
2108.47607421875	0.0	80	4318159	128	70	18	1	0	65338.5710611	65338.5715783	80	65341.9611786	65341.9616567	40	65345.3802257	65345.3806321	100	del	65346.789704	65347.2999271	65347.3003065	120.0	1.0	65351.6603647
2111.8662109375	0.0	40	4325102	128	70	18	1	0	65338.5710611	65338.5715783	80	65341.9611786	65341.9616567	40	65345.3802257	65345.3806321	100	del	65346.789704	65347.2999271	65347.3003065	120.0	1.0	65351.6603647
2115.28515625	0.0	100	4332104	128	70	18	1	0	65338.5710611	65338.5715783	80	65341.9611786	65341.9616567	40	65345.3802257	65345.3806321	100	del	65346.789704	65347.2999271	65347.3003065	120.0	1.0	65351.6603647
2117.20458984375	0.0	120	4336035	128	70	18	1	0	65338.5710611	65338.5715783	80	65341.9611786	65341.9616567	40	65345.3802257	65345.3806321	100	del	65346.789704	65347.2999271	65347.3003065	120.0	1.0	65351.6603647
2123.62744140625	0.0	80	4349189	129	87	40	0	1	65353.7226964	65353.7230729	80	65356.8176794	65356.818047	40	65360.0069067	65360.0073219	100	na	65363.9966765	nan	nan	nan	nan	nan
2126.72216796875	0.0	40	4355527	129	87	40	0	1	65353.7226964	65353.7230729	80	65356.8176794	65356.818047	40	65360.0069067	65360.0073219	100	na	65363.9966765	nan	nan	nan	nan	nan
2129.9111328125	0.0	100	4362058	129	87	40	0	1	65353.7226964	65353.7230729	80	65356.8176794	65356.818047	40	65360.0069067	65360.0073219	100	na	65363.9966765	nan	nan	nan	nan	nan
2136.4453125	0.0	80	4375440	130	87	230	0	0	65366.540887	65366.5412736	80	65369.8088884	65369.8093273	40	65372.9907441	65372.9920019	100	imm	65375.652604	nan	nan	nan	nan	nan
2139.712890625	0.0	40	4382132	130	87	230	0	0	65366.540887	65366.5412736	80	65369.8088884	65369.8093273	40	65372.9907441	65372.9920019	100	imm	65375.652604	nan	nan	nan	nan	nan
2142.89453125	0.0	100	4388648	130	87	230	0	0	65366.540887	65366.5412736	80	65369.8088884	65369.8093273	40	65372.9907441	65372.9920019	100	imm	65375.652604	nan	nan	nan	nan	nan
2148.16015625	0.0	80	4399432	131	67	600	1	1	65378.256323	65378.2567989	80	65381.3683996	65381.3688891	40	65384.8344459	65384.8349053	100	imm	65388.6519482	65389.1656575	65389.1661311	120.0	2.0	65390.2683778
2151.2724609375	0.0	40	4405806	131	67	600	1	1	65378.256323	65378.2567989	80	65381.3683996	65381.3688891	40	65384.8344459	65384.8349053	100	imm	65388.6519482	65389.1656575	65389.1661311	120.0	2.0	65390.2683778
2154.73828125	0.0	100	4412904	131	67	600	1	1	65378.256323	65378.2567989	80	65381.3683996	65381.3688891	40	65384.8344459	65384.8349053	100	imm	65388.6519482	65389.1656575	65389.1661311	120.0	2.0	65390.2683778
2159.0693359375	0.0	120	4421774	131	67	600	1	1	65378.256323	65378.2567989	80	65381.3683996	65381.3688891	40	65384.8344459	65384.8349053	100	imm	65388.6519482	65389.1656575	65389.1661311	120.0	2.0	65390.2683778
2162.52392578125	0.0	80	4428849	132	53	170	1	0	65392.6204303	65392.6208815	80	65395.861597	65395.8620429	40	65399.3307571	65399.3312638	100	na	65402.3240994	65402.8350901	65402.8354872	120.0	1.0	65403.6928044
2165.76513671875	0.0	40	4435487	132	53	170	1	0	65392.6204303	65392.6208815	80	65395.861597	65395.8620429	40	65399.3307571	65399.3312638	100	na	65402.3240994	65402.8350901	65402.8354872	120.0	1.0	65403.6928044
2169.234375	0.0	100	4442592	132	53	170	1	0	65392.6204303	65392.6208815	80	65395.861597	65395.8620429	40	65399.3307571	65399.3312638	100	na	65402.3240994	65402.8350901	65402.8354872	120.0	1.0	65403.6928044
2172.73828125	0.0	120	4449768	132	53	170	1	0	65392.6204303	65392.6208815	80	65395.861597	65395.8620429	40	65399.3307571	65399.3312638	100	na	65402.3240994	65402.8350901	65402.8354872	120.0	1.0	65403.6928044
2175.65966796875	0.0	80	4455751	133	80	840	0	1	65405.7564591	65405.7568992	80	65409.1368643	65409.1373288	40	65412.5182309	65412.5187058	100	na	65423.4767805	nan	nan	nan	nan	nan
2179.0400390625	0.0	40	4462674	133	80	840	0	1	65405.7564591	65405.7568992	80	65409.1368643	65409.1373288	40	65412.5182309	65412.5187058	100	na	65423.4767805	nan	nan	nan	nan	nan
2182.42138671875	0.0	100	4469599	133	80	840	0	1	65405.7564591	65405.7568992	80	65409.1368643	65409.1373288	40	65412.5182309	65412.5187058	100	na	65423.4767805	nan	nan	nan	nan	nan
2196.17626953125	0.0	80	4497769	134	77	300	1	1	65426.2735018	65426.2739412	80	65429.3732325	65429.3737063	40	65432.6795526	65432.6797863	100	imm	65433.9487665	65434.4595735	65434.4599628	120.0	2.0	65435.0297321
2199.27587890625	0.0	40	4504117	134	77	300	1	1	65426.2735018	65426.2739412	80	65429.3732325	65429.3737063	40	65432.6795526	65432.6797863	100	imm	65433.9487665	65434.4595735	65434.4599628	120.0	2.0	65435.0297321
2202.58251953125	0.0	100	4510889	134	77	300	1	1	65426.2735018	65426.2739412	80	65429.3732325	65429.3737063	40	65432.6795526	65432.6797863	100	imm	65433.9487665	65434.4595735	65434.4599628	120.0	2.0	65435.0297321
2204.36181640625	0.0	120	4514533	134	77	300	1	1	65426.2735018	65426.2739412	80	65429.3732325	65429.3737063	40	65432.6795526	65432.6797863	100	imm	65433.9487665	65434.4595735	65434.4599628	120.0	2.0	65435.0297321
2207.09814453125	0.0	80	4520137	135	93	18	1	0	65437.1954962	65437.1959692	80	65440.2711796	65440.2717995	40	65443.3922393	65443.3927531	100	del	65447.5082832	65448.0189782	65448.0194608	120.0	2.0	65453.3399713
2210.17333984375	0.0	40	4526435	135	93	18	1	0	65437.1954962	65437.1959692	80	65440.2711796	65440.2717995	40	65443.3922393	65443.3927531	100	del	65447.5082832	65448.0189782	65448.0194608	120.0	2.0	65453.3399713
2213.29443359375	0.0	100	4532827	135	93	18	1	0	65437.1954962	65437.1959692	80	65440.2711796	65440.2717995	40	65443.3922393	65443.3927531	100	del	65447.5082832	65448.0189782	65448.0194608	120.0	2.0	65453.3399713
2217.9208984375	0.0	120	4542302	135	93	18	1	0	65437.1954962	65437.1959692	80	65440.2711796	65440.2717995	40	65443.3922393	65443.3927531	100	del	65447.5082832	65448.0189782	65448.0194608	120.0	2.0	65453.3399713
2225.70361328125	0.0	80	4558241	136	53	840	0	1	65455.8017619	65455.802355	80	65458.845039	65458.8455033	40	65461.9792401	65461.9797473	100	imm	65463.4999868	nan	nan	nan	nan	nan
2228.7470703125	0.0	40	4564474	136	53	840	0	1	65455.8017619	65455.802355	80	65458.845039	65458.8455033	40	65461.9792401	65461.9797473	100	imm	65463.4999868	nan	nan	nan	nan	nan
2231.880859375	0.0	100	4570892	136	53	840	0	1	65455.8017619	65455.802355	80	65458.845039	65458.8455033	40	65461.9792401	65461.9797473	100	imm	65463.4999868	nan	nan	nan	nan	nan
2235.943359375	0.0	80	4579212	137	87	18	1	0	65466.0415191	65466.0419021	80	65469.2703174	65469.2708553	40	65472.2910138	65472.2914986	100	del	65478.5002433	65479.011382	65479.0117742	120.0	2.0	65480.6127319
2239.171875	0.0	40	4585824	137	87	18	1	0	65466.0415191	65466.0419021	80	65469.2703174	65469.2708553	40	65472.2910138	65472.2914986	100	del	65478.5002433	65479.011382	65479.0117742	120.0	2.0	65480.6127319
2242.1923828125	0.0	100	4592010	137	87	18	1	0	65466.0415191	65466.0419021	80	65469.2703174	65469.2708553	40	65472.2910138	65472.2914986	100	del	65478.5002433	65479.011382	65479.0117742	120.0	2.0	65480.6127319
2248.91259765625	0.0	120	4605773	137	87	18	1	0	65466.0415191	65466.0419021	80	65469.2703174	65469.2708553	40	65472.2910138	65472.2914986	100	del	65478.5002433	65479.011382	65479.0117742	120.0	2.0	65480.6127319
2252.974609375	0.0	80	4614092	138	53	600	1	1	65483.0733388	65483.0736647	80	65486.1783051	65486.1786961	40	65489.2382308	65489.2387251	100	na	65501.0366853	65501.5472359	65501.5476078	120.0	1.0	65502.5241283
2256.07958984375	0.0	40	4620451	138	53	600	1	1	65483.0733388	65483.0736647	80	65486.1783051	65486.1786961	40	65489.2382308	65489.2387251	100	na	65501.0366853	65501.5472359	65501.5476078	120.0	1.0	65502.5241283
2259.13916015625	0.0	100	4626717	138	53	600	1	1	65483.0733388	65483.0736647	80	65486.1783051	65486.1786961	40	65489.2382308	65489.2387251	100	na	65501.0366853	65501.5472359	65501.5476078	120.0	1.0	65502.5241283
2271.44775390625	0.0	120	4651925	138	53	600	1	1	65483.0733388	65483.0736647	80	65486.1783051	65486.1786961	40	65489.2382308	65489.2387251	100	na	65501.0366853	65501.5472359	65501.5476078	120.0	1.0	65502.5241283
2274.59130859375	0.0	80	4658363	139	70	840	0	0	65504.6905755	65504.6909746	80	65507.9262005	65507.9267005	40	65510.9903564	65510.9909363	100	imm	65511.5896746	nan	nan	nan	nan	nan
2277.82666015625	0.0	40	4664989	139	70	840	0	0	65504.6905755	65504.6909746	80	65507.9262005	65507.9267005	40	65510.9903564	65510.9909363	100	imm	65511.5896746	nan	nan	nan	nan	nan
2280.89111328125	0.0	100	4671265	139	70	840	0	0	65504.6905755	65504.6909746	80	65507.9262005	65507.9267005	40	65510.9903564	65510.9909363	100	imm	65511.5896746	nan	nan	nan	nan	nan
2284.50634765625	0.0	80	4678669	140	80	600	1	1	65514.6060727	65514.6065557	80	65517.7798141	65517.7802728	40	65520.9414003	65520.9418832	100	imm	65523.2447016	65523.7561982	65523.7566161	120.0	2.0	65527.292272
2287.68017578125	0.0	40	4685169	140	80	600	1	1	65514.6060727	65514.6065557	80	65517.7798141	65517.7802728	40	65520.9414003	65520.9418832	100	imm	65523.2447016	65523.7561982	65523.7566161	120.0	2.0	65527.292272
2290.841796875	0.0	100	4691644	140	80	600	1	1	65514.6060727	65514.6065557	80	65517.7798141	65517.7802728	40	65520.9414003	65520.9418832	100	imm	65523.2447016	65523.7561982	65523.7566161	120.0	2.0	65527.292272
2293.65625	0.0	120	4697408	140	80	600	1	1	65514.6060727	65514.6065557	80	65517.7798141	65517.7802728	40	65520.9414003	65520.9418832	100	imm	65523.2447016	65523.7561982	65523.7566161	120.0	2.0	65527.292272
2367.5244140625	0.0	80	4848690	141	60	60	1	1	65597.6262833	65597.6268003	80	65600.783153	65600.7836281	40	65603.8205013	65603.8209702	100	del	65605.2206907	65605.7309853	65605.7313612	120.0	2.0	65609.0118216
2370.68115234375	0.0	40	4855155	141	60	60	1	1	65597.6262833	65597.6268003	80	65600.783153	65600.7836281	40	65603.8205013	65603.8209702	100	del	65605.2206907	65605.7309853	65605.7313612	120.0	2.0	65609.0118216
2373.71875	0.0	100	4861376	141	60	60	1	1	65597.6262833	65597.6268003	80	65600.783153	65600.7836281	40	65603.8205013	65603.8209702	100	del	65605.2206907	65605.7309853	65605.7313612	120.0	2.0	65609.0118216
2375.62890625	0.0	120	4865288	141	60	60	1	1	65597.6262833	65597.6268003	80	65600.783153	65600.7836281	40	65603.8205013	65603.8209702	100	del	65605.2206907	65605.7309853	65605.7313612	120.0	2.0	65609.0118216
2381.17626953125	0.0	80	4876649	142	73	430	0	1	65611.2783174	65611.2787816	80	65614.6670485	65614.6675905	40	65617.9955148	65617.9960194	100	imm	65618.8765661	nan	nan	nan	nan	nan
2384.56494140625	0.0	40	4883589	142	73	430	0	1	65611.2783174	65611.2787816	80	65614.6670485	65614.6675905	40	65617.9955148	65617.9960194	100	imm	65618.8765661	nan	nan	nan	nan	nan
2387.89306640625	0.0	100	4890405	142	73	430	0	1	65611.2783174	65611.2787816	80	65614.6670485	65614.6675905	40	65617.9955148	65617.9960194	100	imm	65618.8765661	nan	nan	nan	nan	nan
2391.33642578125	0.0	80	4897457	143	100	18	1	1	65621.4385727	65621.4390468	80	65624.4866416	65624.4870814	40	65627.88705	65627.8874544	100	del	65628.6597884	65629.1706819	65629.1710385	120.0	2.0	65630.5007801
2394.38427734375	0.0	40	4903699	143	100	18	1	1	65621.4385727	65621.4390468	80	65624.4866416	65624.4870814	40	65627.88705	65627.8874544	100	del	65628.6597884	65629.1706819	65629.1710385	120.0	2.0	65630.5007801
2397.78466796875	0.0	100	4910663	143	100	18	1	1	65621.4385727	65621.4390468	80	65624.4866416	65624.4870814	40	65627.88705	65627.8874544	100	del	65628.6597884	65629.1706819	65629.1710385	120.0	2.0	65630.5007801
2399.06787109375	0.0	120	4913291	143	100	18	1	1	65621.4385727	65621.4390468	80	65624.4866416	65624.4870814	40	65627.88705	65627.8874544	100	del	65628.6597884	65629.1706819	65629.1710385	120.0	2.0	65630.5007801
2402.86669921875	0.0	80	4921071	144	83	230	0	0	65632.9694454	65632.9699153	80	65636.2450228	65636.2454923	40	65639.3137197	65639.3143918	100	na	65645.3163827	nan	nan	nan	nan	nan
2406.14208984375	0.0	40	4927779	144	83	230	0	0	65632.9694454	65632.9699153	80	65636.2450228	65636.2454923	40	65639.3137197	65639.3143918	100	na	65645.3163827	nan	nan	nan	nan	nan
2409.2109375	0.0	100	4934064	144	83	230	0	0	65632.9694454	65632.9699153	80	65636.2450228	65636.2454923	40	65639.3137197	65639.3143918	100	na	65645.3163827	nan	nan	nan	nan	nan
2418.14208984375	0.0	80	4952355	145	83	300	1	1	65648.2452302	65648.2457649	80	65651.4207681	65651.4211665	40	65654.5811374	65654.5816396	100	del	65657.1566084	65657.6670922	65657.6674662	120.0	2.0	65659.8441978
2421.3173828125	0.0	40	4958858	145	83	300	1	1	65648.2452302	65648.2457649	80	65651.4207681	65651.4211665	40	65654.5811374	65654.5816396	100	del	65657.1566084	65657.6670922	65657.6674662	120.0	2.0	65659.8441978
2424.47802734375	0.0	100	4965331	145	83	300	1	1	65648.2452302	65648.2457649	80	65651.4207681	65651.4211665	40	65654.5811374	65654.5816396	100	del	65657.1566084	65657.6670922	65657.6674662	120.0	2.0	65659.8441978
2427.5634765625	0.0	120	4971650	145	83	300	1	1	65648.2452302	65648.2457649	80	65651.4207681	65651.4211665	40	65654.5811374	65654.5816396	100	del	65657.1566084	65657.6670922	65657.6674662	120.0	2.0	65659.8441978
2432.12890625	0.0	80	4981000	146	57	300	1	0	65662.2321474	65662.232659	80	65665.2458161	65665.2462744	40	65668.2837749	65668.2842713	100	imm	65673.1326073	65673.6432094	65673.644355	120.0	2.0	65674.5964432
2435.14208984375	0.0	40	4987171	146	57	300	1	0	65662.2321474	65662.232659	80	65665.2458161	65665.2462744	40	65668.2837749	65668.2842713	100	imm	65673.1326073	65673.6432094	65673.644355	120.0	2.0	65674.5964432
2438.18017578125	0.0	100	4993393	146	57	300	1	0	65662.2321474	65662.232659	80	65665.2458161	65665.2462744	40	65668.2837749	65668.2842713	100	imm	65673.1326073	65673.6432094	65673.644355	120.0	2.0	65674.5964432
2443.53955078125	0.0	120	5004369	146	57	300	1	0	65662.2321474	65662.232659	80	65665.2458161	65665.2462744	40	65668.2837749	65668.2842713	100	imm	65673.1326073	65673.6432094	65673.644355	120.0	2.0	65674.5964432
2446.84228515625	0.0	80	5011133	147	53	430	0	0	65676.9460354	65676.9465001	80	65680.2552932	65680.2558196	40	65683.5293182	65683.5297254	100	imm	65684.2047075	nan	nan	nan	nan	nan
2450.1513671875	0.0	40	5017910	147	53	430	0	0	65676.9460354	65676.9465001	80	65680.2552932	65680.2558196	40	65683.5293182	65683.5297254	100	imm	65684.2047075	nan	nan	nan	nan	nan
2453.42529296875	0.0	100	5024615	147	53	430	0	0	65676.9460354	65676.9465001	80	65680.2552932	65680.2558196	40	65683.5293182	65683.5297254	100	imm	65684.2047075	nan	nan	nan	nan	nan
