onset	duration	value	sample	trial_idx	val	del	is_cued	rev_opts	del_pres_displaytime	del_pres_triggertime	del_pres_triggercode	val_pres_displaytime	val_pres_triggertime	val_pres_triggercode	choice_displaytime	choice_triggertime	choice_triggercode	choice	choice_time	viv	viv_time	viv_displaytime	viv_triggertime	viv_triggercode
29.32080078125	0.0	80	60049	1	83	1000	0	0	1513111.9497725	1513111.9503265	80	1513115.2399166	1513115.2404285	40	1513118.7478728	1513118.748528	100	imm	1513120.6003435	nan	nan	nan	nan	nan
32.6103515625	0.0	40	66786	1	83	1000	0	0	1513111.9497725	1513111.9503265	80	1513115.2399166	1513115.2404285	40	1513118.7478728	1513118.748528	100	imm	1513120.6003435	nan	nan	nan	nan	nan
36.11865234375	0.0	100	73971	1	83	1000	0	0	1513111.9497725	1513111.9503265	80	1513115.2399166	1513115.2404285	40	1513118.7478728	1513118.748528	100	imm	1513120.6003435	nan	nan	nan	nan	nan
40.9404296875	0.0	80	83846	2	67	30	0	1	1513123.5700614	1513123.5712276	80	1513126.7585584	1513126.7601494	40	1513130.0488065	1513130.0500316	100	del	1513131.6170466	nan	nan	nan	nan	nan
44.12890625	0.0	40	90376	2	67	30	0	1	1513123.5700614	1513123.5712276	80	1513126.7585584	1513126.7601494	40	1513130.0488065	1513130.0500316	100	del	1513131.6170466	nan	nan	nan	nan	nan
47.4189453125	0.0	100	97114	2	67	30	0	1	1513123.5700614	1513123.5712276	80	1513126.7585584	1513126.7601494	40	1513130.0488065	1513130.0500316	100	del	1513131.6170466	nan	nan	nan	nan	nan
51.67431640625	0.0	80	105829	3	77	7	1	0	1513134.3042694	1513134.3046089	80	1513137.6218376	1513137.6222087	40	1513141.0319992	1513141.032407	100	del	1513142.5371535	3.0	1513145.3685089	1513143.0499804	1513143.0503362	120.0
54.99169921875	0.0	40	112623	3	77	7	1	0	1513134.3042694	1513134.3046089	80	1513137.6218376	1513137.6222087	40	1513141.0319992	1513141.032407	100	del	1513142.5371535	3.0	1513145.3685089	1513143.0499804	1513143.0503362	120.0
58.40185546875	0.0	100	119607	3	77	7	1	0	1513134.3042694	1513134.3046089	80	1513137.6218376	1513137.6222087	40	1513141.0319992	1513141.032407	100	del	1513142.5371535	3.0	1513145.3685089	1513143.0499804	1513143.0503362	120.0
60.419921875	0.0	120	123740	3	77	7	1	0	1513134.3042694	1513134.3046089	80	1513137.6218376	1513137.6222087	40	1513141.0319992	1513141.032407	100	del	1513142.5371535	3.0	1513145.3685089	1513143.0499804	1513143.0503362	120.0
65.12890625	0.0	80	133384	4	63	7	1	1	1513147.7587821	1513147.7594199	80	1513150.8293978	1513150.829837	40	1513154.2536634	1513154.2540924	100	del	1513157.4401947	3.0	1513160.3121864	1513157.95384	1513157.95434	120.0
68.19921875	0.0	40	139672	4	63	7	1	1	1513147.7587821	1513147.7594199	80	1513150.8293978	1513150.829837	40	1513154.2536634	1513154.2540924	100	del	1513157.4401947	3.0	1513160.3121864	1513157.95384	1513157.95434	120.0
71.62353515625	0.0	100	146685	4	63	7	1	1	1513147.7587821	1513147.7594199	80	1513150.8293978	1513150.829837	40	1513154.2536634	1513154.2540924	100	del	1513157.4401947	3.0	1513160.3121864	1513157.95384	1513157.95434	120.0
75.3232421875	0.0	120	154262	4	63	7	1	1	1513147.7587821	1513147.7594199	80	1513150.8293978	1513150.829837	40	1513154.2536634	1513154.2540924	100	del	1513157.4401947	3.0	1513160.3121864	1513157.95384	1513157.95434	120.0
79.7109375	0.0	80	163248	5	87	75	1	1	1513162.3412612	1513162.3417607	80	1513165.5562807	1513165.5567492	40	1513168.9349558	1513168.9354213	100	del	1513170.4004267	4.0	1513172.6248836	1513170.9108543	1513170.911253	120.0
82.92578125	0.0	40	169832	5	87	75	1	1	1513162.3412612	1513162.3417607	80	1513165.5562807	1513165.5567492	40	1513168.9349558	1513168.9354213	100	del	1513170.4004267	4.0	1513172.6248836	1513170.9108543	1513170.911253	120.0
86.30419921875	0.0	100	176751	5	87	75	1	1	1513162.3412612	1513162.3417607	80	1513165.5562807	1513165.5567492	40	1513168.9349558	1513168.9354213	100	del	1513170.4004267	4.0	1513172.6248836	1513170.9108543	1513170.911253	120.0
88.2802734375	0.0	120	180798	5	87	75	1	1	1513162.3412612	1513162.3417607	80	1513165.5562807	1513165.5567492	40	1513168.9349558	1513168.9354213	100	del	1513170.4004267	4.0	1513172.6248836	1513170.9108543	1513170.911253	120.0
92.40087890625	0.0	80	189237	6	70	7	1	0	1513175.0315486	1513175.0320109	80	1513178.2231177	1513178.2235379	40	1513181.6089566	1513181.6094244	100	del	1513183.0099848	4.0	1513184.9205893	1513183.5227254	1513183.5231663	120.0
95.59228515625	0.0	40	195773	6	70	7	1	0	1513175.0315486	1513175.0320109	80	1513178.2231177	1513178.2235379	40	1513181.6089566	1513181.6094244	100	del	1513183.0099848	4.0	1513184.9205893	1513183.5227254	1513183.5231663	120.0
98.97802734375	0.0	100	202707	6	70	7	1	0	1513175.0315486	1513175.0320109	80	1513178.2231177	1513178.2235379	40	1513181.6089566	1513181.6094244	100	del	1513183.0099848	4.0	1513184.9205893	1513183.5227254	1513183.5231663	120.0
100.8916015625	0.0	120	206626	6	70	7	1	0	1513175.0315486	1513175.0320109	80	1513178.2231177	1513178.2235379	40	1513181.6089566	1513181.6094244	100	del	1513183.0099848	4.0	1513184.9205893	1513183.5227254	1513183.5231663	120.0
104.7509765625	0.0	80	214530	7	57	300	1	0	1513187.3821832	1513187.3826348	80	1513190.5110426	1513190.5115113	40	1513193.5863209	1513193.5865841	100	imm	1513196.0246475	2.0	1513198.3285752	1513196.5380564	1513196.5385323	120.0
107.8798828125	0.0	40	220938	7	57	300	1	0	1513187.3821832	1513187.3826348	80	1513190.5110426	1513190.5115113	40	1513193.5863209	1513193.5865841	100	imm	1513196.0246475	2.0	1513198.3285752	1513196.5380564	1513196.5385323	120.0
110.955078125	0.0	100	227236	7	57	300	1	0	1513187.3821832	1513187.3826348	80	1513190.5110426	1513190.5115113	40	1513193.5863209	1513193.5865841	100	imm	1513196.0246475	2.0	1513198.3285752	1513196.5380564	1513196.5385323	120.0
113.90673828125	0.0	120	233281	7	57	300	1	0	1513187.3821832	1513187.3826348	80	1513190.5110426	1513190.5115113	40	1513193.5863209	1513193.5865841	100	imm	1513196.0246475	2.0	1513198.3285752	1513196.5380564	1513196.5385323	120.0
117.82470703125	0.0	80	241305	8	60	450	0	0	1513200.4562418	1513200.4567331	80	1513203.6386489	1513203.6391586	40	1513206.7951329	1513206.7955322	100	imm	1513209.6242291	nan	nan	nan	nan	nan
121.00732421875	0.0	40	247823	8	60	450	0	0	1513200.4562418	1513200.4567331	80	1513203.6386489	1513203.6391586	40	1513206.7951329	1513206.7955322	100	imm	1513209.6242291	nan	nan	nan	nan	nan
124.16357421875	0.0	100	254287	8	60	450	0	0	1513200.4562418	1513200.4567331	80	1513203.6386489	1513203.6391586	40	1513206.7951329	1513206.7955322	100	imm	1513209.6242291	nan	nan	nan	nan	nan
129.97216796875	0.0	80	266183	9	53	180	0	0	1513212.6039938	1513212.6044895	80	1513215.6371807	1513215.6376764	40	1513218.9468807	1513218.9474207	100	del	1513220.336276	nan	nan	nan	nan	nan
133.00537109375	0.0	40	272395	9	53	180	0	0	1513212.6039938	1513212.6044895	80	1513215.6371807	1513215.6376764	40	1513218.9468807	1513218.9474207	100	del	1513220.336276	nan	nan	nan	nan	nan
136.31494140625	0.0	100	279173	9	53	180	0	0	1513212.6039938	1513212.6044895	80	1513215.6371807	1513215.6376764	40	1513218.9468807	1513218.9474207	100	del	1513220.336276	nan	nan	nan	nan	nan
140.302734375	0.0	80	287340	10	87	7	1	0	1513222.9349627	1513222.9354826	80	1513226.3618039	1513226.3623148	40	1513229.4596401	1513229.4601753	100	del	1513230.609597	4.0	1513232.8084741	1513231.1234093	1513231.1239208	120.0
143.7294921875	0.0	40	294358	10	87	7	1	0	1513222.9349627	1513222.9354826	80	1513226.3618039	1513226.3623148	40	1513229.4596401	1513229.4601753	100	del	1513230.609597	4.0	1513232.8084741	1513231.1234093	1513231.1239208	120.0
146.82763671875	0.0	100	300703	10	87	7	1	0	1513222.9349627	1513222.9354826	80	1513226.3618039	1513226.3623148	40	1513229.4596401	1513229.4601753	100	del	1513230.609597	4.0	1513232.8084741	1513231.1234093	1513231.1239208	120.0
148.4912109375	0.0	120	304110	10	87	7	1	0	1513222.9349627	1513222.9354826	80	1513226.3618039	1513226.3623148	40	1513229.4596401	1513229.4601753	100	del	1513230.609597	4.0	1513232.8084741	1513231.1234093	1513231.1239208	120.0
152.44287109375	0.0	80	312203	11	87	30	0	1	1513235.0750511	1513235.0755595	80	1513238.5827662	1513238.58326	40	1513241.7734991	1513241.7739604	100	del	1513242.9939062	nan	nan	nan	nan	nan
155.9501953125	0.0	40	319386	11	87	30	0	1	1513235.0750511	1513235.0755595	80	1513238.5827662	1513238.58326	40	1513241.7734991	1513241.7739604	100	del	1513242.9939062	nan	nan	nan	nan	nan
159.14111328125	0.0	100	325921	11	87	30	0	1	1513235.0750511	1513235.0755595	80	1513238.5827662	1513238.58326	40	1513241.7734991	1513241.7739604	100	del	1513242.9939062	nan	nan	nan	nan	nan
162.9013671875	0.0	80	333622	12	73	670	1	1	1513245.5337728	1513245.5342129	80	1513248.6461796	1513248.6463135	40	1513251.8553676	1513251.8557076	100	del	1513256.1284998	3.0	1513258.6882225	1513256.637958	1513256.6382746	120.0
166.013671875	0.0	40	339996	12	73	670	1	1	1513245.5337728	1513245.5342129	80	1513248.6461796	1513248.6463135	40	1513251.8553676	1513251.8557076	100	del	1513256.1284998	3.0	1513258.6882225	1513256.637958	1513256.6382746	120.0
169.22265625	0.0	100	346568	12	73	670	1	1	1513245.5337728	1513245.5342129	80	1513248.6461796	1513248.6463135	40	1513251.8553676	1513251.8557076	100	del	1513256.1284998	3.0	1513258.6882225	1513256.637958	1513256.6382746	120.0
174.0048828125	0.0	120	356362	12	73	670	1	1	1513245.5337728	1513245.5342129	80	1513248.6461796	1513248.6463135	40	1513251.8553676	1513251.8557076	100	del	1513256.1284998	3.0	1513258.6882225	1513256.637958	1513256.6382746	120.0
178.23876953125	0.0	80	365033	13	83	180	0	1	1513260.8717551	1513260.8721981	80	1513263.9949502	1513263.9954802	40	1513267.4773983	1513267.4779073	100	del	1513269.1599688	nan	nan	nan	nan	nan
181.36181640625	0.0	40	371429	13	83	180	0	1	1513260.8717551	1513260.8721981	80	1513263.9949502	1513263.9954802	40	1513267.4773983	1513267.4779073	100	del	1513269.1599688	nan	nan	nan	nan	nan
184.84423828125	0.0	100	378561	13	83	180	0	1	1513260.8717551	1513260.8721981	80	1513263.9949502	1513263.9954802	40	1513267.4773983	1513267.4779073	100	del	1513269.1599688	nan	nan	nan	nan	nan
189.38671875	0.0	80	387864	14	57	7	1	0	1513272.0199773	1513272.0204536	80	1513275.5094668	1513275.5099992	40	1513278.7418135	1513278.7427419	100	imm	1513280.7608409	4.0	1513282.863956	1513281.2707843	1513281.2710742	120.0
192.8759765625	0.0	40	395010	14	57	7	1	0	1513272.0199773	1513272.0204536	80	1513275.5094668	1513275.5099992	40	1513278.7418135	1513278.7427419	100	imm	1513280.7608409	4.0	1513282.863956	1513281.2707843	1513281.2710742	120.0
196.1083984375	0.0	100	401630	14	57	7	1	0	1513272.0199773	1513272.0204536	80	1513275.5094668	1513275.5099992	40	1513278.7418135	1513278.7427419	100	imm	1513280.7608409	4.0	1513282.863956	1513281.2707843	1513281.2710742	120.0
198.63720703125	0.0	120	406809	14	57	7	1	0	1513272.0199773	1513272.0204536	80	1513275.5094668	1513275.5099992	40	1513278.7418135	1513278.7427419	100	imm	1513280.7608409	4.0	1513282.863956	1513281.2707843	1513281.2710742	120.0
202.716796875	0.0	80	415164	15	90	7	1	1	1513285.3505046	1513285.3510072	80	1513288.3613806	1513288.3618623	40	1513291.6802995	1513291.6808059	100	del	1513292.832224	3.0	1513295.5283674	1513293.3459966	1513293.3465103	120.0
205.7275390625	0.0	40	421330	15	90	7	1	1	1513285.3505046	1513285.3510072	80	1513288.3613806	1513288.3618623	40	1513291.6802995	1513291.6808059	100	del	1513292.832224	3.0	1513295.5283674	1513293.3459966	1513293.3465103	120.0
209.04638671875	0.0	100	428127	15	90	7	1	1	1513285.3505046	1513285.3510072	80	1513288.3613806	1513288.3618623	40	1513291.6802995	1513291.6808059	100	del	1513292.832224	3.0	1513295.5283674	1513293.3459966	1513293.3465103	120.0
210.71240234375	0.0	120	431539	15	90	7	1	1	1513285.3505046	1513285.3510072	80	1513288.3613806	1513288.3618623	40	1513291.6802995	1513291.6808059	100	del	1513292.832224	3.0	1513295.5283674	1513293.3459966	1513293.3465103	120.0
215.30908203125	0.0	80	440953	16	60	7	1	0	1513297.9431385	1513297.9435365	80	1513301.0669677	1513301.0674022	40	1513304.5472132	1513304.5476992	100	del	1513305.3920937	4.0	1513306.7767792	1513305.9034795	1513305.9039737	120.0
218.43310546875	0.0	40	447351	16	60	7	1	0	1513297.9431385	1513297.9435365	80	1513301.0669677	1513301.0674022	40	1513304.5472132	1513304.5476992	100	del	1513305.3920937	4.0	1513306.7767792	1513305.9034795	1513305.9039737	120.0
221.9130859375	0.0	100	454478	16	60	7	1	0	1513297.9431385	1513297.9435365	80	1513301.0669677	1513301.0674022	40	1513304.5472132	1513304.5476992	100	del	1513305.3920937	4.0	1513306.7767792	1513305.9034795	1513305.9039737	120.0
223.26953125	0.0	120	457256	16	60	7	1	0	1513297.9431385	1513297.9435365	80	1513301.0669677	1513301.0674022	40	1513304.5472132	1513304.5476992	100	del	1513305.3920937	4.0	1513306.7767792	1513305.9034795	1513305.9039737	120.0
226.53955078125	0.0	80	463953	17	83	300	1	0	1513309.1737239	1513309.1741897	80	1513312.5946505	1513312.5951296	40	1513315.8950016	1513315.8954997	100	del	1513317.2564991	3.0	1513318.416337	1513317.7663816	1513317.7666675	120.0
229.96044921875	0.0	40	470959	17	83	300	1	0	1513309.1737239	1513309.1741897	80	1513312.5946505	1513312.5951296	40	1513315.8950016	1513315.8954997	100	del	1513317.2564991	3.0	1513318.416337	1513317.7663816	1513317.7666675	120.0
233.2607421875	0.0	100	477718	17	83	300	1	0	1513309.1737239	1513309.1741897	80	1513312.5946505	1513312.5951296	40	1513315.8950016	1513315.8954997	100	del	1513317.2564991	3.0	1513318.416337	1513317.7663816	1513317.7666675	120.0
235.1318359375	0.0	120	481550	17	83	300	1	0	1513309.1737239	1513309.1741897	80	1513312.5946505	1513312.5951296	40	1513315.8950016	1513315.8954997	100	del	1513317.2564991	3.0	1513318.416337	1513317.7663816	1513317.7666675	120.0
238.19140625	0.0	80	487816	18	93	670	1	1	1513320.8260855	1513320.8265236	80	1513323.998207	1513323.9986712	40	1513327.1235153	1513327.1240283	100	del	1513329.0485287	3.0	1513331.9280247	1513329.5581498	1513329.5584769	120.0
241.36376953125	0.0	40	494313	18	93	670	1	1	1513320.8260855	1513320.8265236	80	1513323.998207	1513323.9986712	40	1513327.1235153	1513327.1240283	100	del	1513329.0485287	3.0	1513331.9280247	1513329.5581498	1513329.5584769	120.0
244.48876953125	0.0	100	500713	18	93	670	1	1	1513320.8260855	1513320.8265236	80	1513323.998207	1513323.9986712	40	1513327.1235153	1513327.1240283	100	del	1513329.0485287	3.0	1513331.9280247	1513329.5581498	1513329.5584769	120.0
246.92333984375	0.0	120	505699	18	93	670	1	1	1513320.8260855	1513320.8265236	80	1513323.998207	1513323.9986712	40	1513327.1235153	1513327.1240283	100	del	1513329.0485287	3.0	1513331.9280247	1513329.5581498	1513329.5584769	120.0
251.4638671875	0.0	80	514998	19	90	75	1	0	1513334.0986552	1513334.0991679	80	1513337.3994118	1513337.399997	40	1513340.8285002	1513340.8290107	100	del	1513341.6559958	4.0	1513343.8803215	1513342.1699534	1513342.1704542	120.0
254.7646484375	0.0	40	521758	19	90	75	1	0	1513334.0986552	1513334.0991679	80	1513337.3994118	1513337.399997	40	1513340.8285002	1513340.8290107	100	del	1513341.6559958	4.0	1513343.8803215	1513342.1699534	1513342.1704542	120.0
258.193359375	0.0	100	528780	19	90	75	1	0	1513334.0986552	1513334.0991679	80	1513337.3994118	1513337.399997	40	1513340.8285002	1513340.8290107	100	del	1513341.6559958	4.0	1513343.8803215	1513342.1699534	1513342.1704542	120.0
259.53515625	0.0	120	531528	19	90	75	1	0	1513334.0986552	1513334.0991679	80	1513337.3994118	1513337.399997	40	1513340.8285002	1513340.8290107	100	del	1513341.6559958	4.0	1513343.8803215	1513342.1699534	1513342.1704542	120.0
263.40478515625	0.0	80	539453	20	50	100	1	1	1513346.0398591	1513346.0403783	80	1513349.2487412	1513349.2491977	40	1513352.6931838	1513352.6936183	100	imm	1513353.9362121	2.0	1513355.9520963	1513354.4454906	1513354.4459521	120.0
266.61376953125	0.0	40	546025	20	50	100	1	1	1513346.0398591	1513346.0403783	80	1513349.2487412	1513349.2491977	40	1513352.6931838	1513352.6936183	100	imm	1513353.9362121	2.0	1513355.9520963	1513354.4454906	1513354.4459521	120.0
270.05810546875	0.0	100	553079	20	50	100	1	1	1513346.0398591	1513346.0403783	80	1513349.2487412	1513349.2491977	40	1513352.6931838	1513352.6936183	100	imm	1513353.9362121	2.0	1513355.9520963	1513354.4454906	1513354.4459521	120.0
271.81005859375	0.0	120	556667	20	50	100	1	1	1513346.0398591	1513346.0403783	80	1513349.2487412	1513349.2491977	40	1513352.6931838	1513352.6936183	100	imm	1513353.9362121	2.0	1513355.9520963	1513354.4454906	1513354.4459521	120.0
288.92333984375	0.0	80	591715	21	83	75	1	0	1513371.5589732	1513371.5593958	80	1513375.0606821	1513375.0610249	40	1513378.1760394	1513378.176471	100	del	1513378.9285526	4.0	1513380.7203054	1513379.4418441	1513379.4423586	120.0
292.4248046875	0.0	40	598886	21	83	75	1	0	1513371.5589732	1513371.5593958	80	1513375.0606821	1513375.0610249	40	1513378.1760394	1513378.176471	100	del	1513378.9285526	4.0	1513380.7203054	1513379.4418441	1513379.4423586	120.0
295.5400390625	0.0	100	605266	21	83	75	1	0	1513371.5589732	1513371.5593958	80	1513375.0606821	1513375.0610249	40	1513378.1760394	1513378.176471	100	del	1513378.9285526	4.0	1513380.7203054	1513379.4418441	1513379.4423586	120.0
296.80615234375	0.0	120	607859	21	83	75	1	0	1513371.5589732	1513371.5593958	80	1513375.0606821	1513375.0610249	40	1513378.1760394	1513378.176471	100	del	1513378.9285526	4.0	1513380.7203054	1513379.4418441	1513379.4423586	120.0
300.51513671875	0.0	80	615455	22	73	30	0	0	1513383.1511004	1513383.1515969	80	1513386.4969275	1513386.4973602	40	1513389.6349134	1513389.6354309	100	del	1513392.0175449	nan	nan	nan	nan	nan
303.86083984375	0.0	40	622307	22	73	30	0	0	1513383.1511004	1513383.1515969	80	1513386.4969275	1513386.4973602	40	1513389.6349134	1513389.6354309	100	del	1513392.0175449	nan	nan	nan	nan	nan
306.99853515625	0.0	100	628733	22	73	30	0	0	1513383.1511004	1513383.1515969	80	1513386.4969275	1513386.4973602	40	1513389.6349134	1513389.6354309	100	del	1513392.0175449	nan	nan	nan	nan	nan
312.1337890625	0.0	80	639250	23	60	180	0	1	1513394.7698542	1513394.7703225	80	1513397.9769613	1513397.9774724	40	1513401.2897064	1513401.2902055	100	imm	1513402.7678934	nan	nan	nan	nan	nan
315.3408203125	0.0	40	645818	23	60	180	0	1	1513394.7698542	1513394.7703225	80	1513397.9769613	1513397.9774724	40	1513401.2897064	1513401.2902055	100	imm	1513402.7678934	nan	nan	nan	nan	nan
318.6533203125	0.0	100	652602	23	60	180	0	1	1513394.7698542	1513394.7703225	80	1513397.9769613	1513397.9774724	40	1513401.2897064	1513401.2902055	100	imm	1513402.7678934	nan	nan	nan	nan	nan
323.04931640625	0.0	80	661605	24	67	300	1	0	1513405.6858892	1513405.6863366	80	1513408.746543	1513408.7470623	40	1513412.1701958	1513412.1707202	100	imm	1513417.4564971	3.0	1513418.9926122	1513417.9685798	1513417.9690432	120.0
326.10986328125	0.0	40	667873	24	67	300	1	0	1513405.6858892	1513405.6863366	80	1513408.746543	1513408.7470623	40	1513412.1701958	1513412.1707202	100	imm	1513417.4564971	3.0	1513418.9926122	1513417.9685798	1513417.9690432	120.0
329.53369140625	0.0	100	674885	24	67	300	1	0	1513405.6858892	1513405.6863366	80	1513408.746543	1513408.7470623	40	1513412.1701958	1513412.1707202	100	imm	1513417.4564971	3.0	1513418.9926122	1513417.9685798	1513417.9690432	120.0
335.33154296875	0.0	120	686759	24	67	300	1	0	1513405.6858892	1513405.6863366	80	1513408.746543	1513408.7470623	40	1513412.1701958	1513412.1707202	100	imm	1513417.4564971	3.0	1513418.9926122	1513417.9685798	1513417.9690432	120.0
338.79736328125	0.0	80	693857	25	63	450	0	1	1513421.4342951	1513421.4347998	80	1513424.6193309	1513424.6198692	40	1513427.8482451	1513427.8486427	100	imm	1513429.0321206	nan	nan	nan	nan	nan
341.982421875	0.0	40	700380	25	63	450	0	1	1513421.4342951	1513421.4347998	80	1513424.6193309	1513424.6198692	40	1513427.8482451	1513427.8486427	100	imm	1513429.0321206	nan	nan	nan	nan	nan
345.2109375	0.0	100	706992	25	63	450	0	1	1513421.4342951	1513421.4347998	80	1513424.6193309	1513424.6198692	40	1513427.8482451	1513427.8486427	100	imm	1513429.0321206	nan	nan	nan	nan	nan
349.1953125	0.0	80	715152	26	77	100	1	1	1513431.8324252	1513431.832749	80	1513435.1906998	1513435.1912199	40	1513438.5751285	1513438.5757162	100	del	1513439.7052393	3.0	1513440.9611438	1513440.2189466	1513440.2193938	120.0
352.55322265625	0.0	40	722029	26	77	100	1	1	1513431.8324252	1513431.832749	80	1513435.1906998	1513435.1912199	40	1513438.5751285	1513438.5757162	100	del	1513439.7052393	3.0	1513440.9611438	1513440.2189466	1513440.2193938	120.0
355.93798828125	0.0	100	728961	26	77	100	1	1	1513431.8324252	1513431.832749	80	1513435.1906998	1513435.1912199	40	1513438.5751285	1513438.5757162	100	del	1513439.7052393	3.0	1513440.9611438	1513440.2189466	1513440.2193938	120.0
357.58154296875	0.0	120	732327	26	77	100	1	1	1513431.8324252	1513431.832749	80	1513435.1906998	1513435.1912199	40	1513438.5751285	1513438.5757162	100	del	1513439.7052393	3.0	1513440.9611438	1513440.2189466	1513440.2193938	120.0
360.71923828125	0.0	80	738753	27	93	180	0	1	1513443.3565196	1513443.3570654	80	1513446.5591624	1513446.5596582	40	1513449.7885225	1513449.7890716	100	del	1513451.6326053	nan	nan	nan	nan	nan
363.92138671875	0.0	40	745311	27	93	180	0	1	1513443.3565196	1513443.3570654	80	1513446.5591624	1513446.5596582	40	1513449.7885225	1513449.7890716	100	del	1513451.6326053	nan	nan	nan	nan	nan
367.15087890625	0.0	100	751925	27	93	180	0	1	1513443.3565196	1513443.3570654	80	1513446.5591624	1513446.5596582	40	1513449.7885225	1513449.7890716	100	del	1513451.6326053	nan	nan	nan	nan	nan
371.9912109375	0.0	80	761838	28	60	90	0	1	1513454.6288109	1513454.629322	80	1513457.9234172	1513457.9238727	40	1513461.3611859	1513461.3616611	100	imm	1513463.487938	nan	nan	nan	nan	nan
375.28564453125	0.0	40	768585	28	60	90	0	1	1513454.6288109	1513454.629322	80	1513457.9234172	1513457.9238727	40	1513461.3611859	1513461.3616611	100	imm	1513463.487938	nan	nan	nan	nan	nan
378.72314453125	0.0	100	775625	28	60	90	0	1	1513454.6288109	1513454.629322	80	1513457.9234172	1513457.9238727	40	1513461.3611859	1513461.3616611	100	imm	1513463.487938	nan	nan	nan	nan	nan
383.5009765625	0.0	80	785410	29	80	300	1	0	1513466.139074	1513466.1393579	80	1513469.4544091	1513469.4545688	40	1513472.7655129	1513472.7660253	100	del	1513473.863898	3.0	1513475.6559782	1513474.3734733	1513474.3737519	120.0
386.81640625	0.0	40	792200	29	80	300	1	0	1513466.139074	1513466.1393579	80	1513469.4544091	1513469.4545688	40	1513472.7655129	1513472.7660253	100	del	1513473.863898	3.0	1513475.6559782	1513474.3734733	1513474.3737519	120.0
390.12744140625	0.0	100	798981	29	80	300	1	0	1513466.139074	1513466.1393579	80	1513469.4544091	1513469.4545688	40	1513472.7655129	1513472.7660253	100	del	1513473.863898	3.0	1513475.6559782	1513474.3734733	1513474.3737519	120.0
391.7353515625	0.0	120	802274	29	80	300	1	0	1513466.139074	1513466.1393579	80	1513469.4544091	1513469.4545688	40	1513472.7655129	1513472.7660253	100	del	1513473.863898	3.0	1513475.6559782	1513474.3734733	1513474.3737519	120.0
395.5126953125	0.0	80	810010	30	70	90	0	1	1513478.1512096	1513478.1517154	80	1513481.2028727	1513481.2033318	40	1513484.4661508	1513484.4666623	100	del	1513486.255574	nan	nan	nan	nan	nan
398.564453125	0.0	40	816260	30	70	90	0	1	1513478.1512096	1513478.1517154	80	1513481.2028727	1513481.2033318	40	1513484.4661508	1513484.4666623	100	del	1513486.255574	nan	nan	nan	nan	nan
401.82763671875	0.0	100	822943	30	70	90	0	1	1513478.1512096	1513478.1517154	80	1513481.2028727	1513481.2033318	40	1513484.4661508	1513484.4666623	100	del	1513486.255574	nan	nan	nan	nan	nan
406.396484375	0.0	80	832300	31	57	30	0	1	1513489.0352594	1513489.0357313	80	1513492.0880304	1513492.0884582	40	1513495.5536686	1513495.5541929	100	imm	1513497.7373212	nan	nan	nan	nan	nan
409.44921875	0.0	40	838552	31	57	30	0	1	1513489.0352594	1513489.0357313	80	1513492.0880304	1513492.0884582	40	1513495.5536686	1513495.5541929	100	imm	1513497.7373212	nan	nan	nan	nan	nan
412.9150390625	0.0	100	845650	31	57	30	0	1	1513489.0352594	1513489.0357313	80	1513492.0880304	1513492.0884582	40	1513495.5536686	1513495.5541929	100	imm	1513497.7373212	nan	nan	nan	nan	nan
418.05615234375	0.0	80	856179	32	80	450	0	0	1513500.69531	1513500.6956409	80	1513503.92192	1513503.9223738	40	1513507.3259257	1513507.3263613	100	imm	1513508.4877561	nan	nan	nan	nan	nan
421.28271484375	0.0	40	862787	32	80	450	0	0	1513500.69531	1513500.6956409	80	1513503.92192	1513503.9223738	40	1513507.3259257	1513507.3263613	100	imm	1513508.4877561	nan	nan	nan	nan	nan
424.68701171875	0.0	100	869759	32	80	450	0	0	1513500.69531	1513500.6956409	80	1513503.92192	1513503.9223738	40	1513507.3259257	1513507.3263613	100	imm	1513508.4877561	nan	nan	nan	nan	nan
428.4404296875	0.0	80	877446	33	70	100	1	0	1513511.0798175	1513511.0803655	80	1513514.3980592	1513514.3985836	40	1513517.5413346	1513517.5418454	100	del	1513518.9441619	3.0	1513520.3373836	1513519.4571674	1513519.457639	120.0
431.7587890625	0.0	40	884242	33	70	100	1	0	1513511.0798175	1513511.0803655	80	1513514.3980592	1513514.3985836	40	1513517.5413346	1513517.5418454	100	del	1513518.9441619	3.0	1513520.3373836	1513519.4571674	1513519.457639	120.0
434.90185546875	0.0	100	890679	33	70	100	1	0	1513511.0798175	1513511.0803655	80	1513514.3980592	1513514.3985836	40	1513517.5413346	1513517.5418454	100	del	1513518.9441619	3.0	1513520.3373836	1513519.4571674	1513519.457639	120.0
436.81787109375	0.0	120	894603	33	70	100	1	0	1513511.0798175	1513511.0803655	80	1513514.3980592	1513514.3985836	40	1513517.5413346	1513517.5418454	100	del	1513518.9441619	3.0	1513520.3373836	1513519.4571674	1513519.457639	120.0
439.93701171875	0.0	80	900991	34	87	1000	0	0	1513522.5763457	1513522.5769802	80	1513526.0063732	1513526.0069934	40	1513529.1183127	1513529.1188189	100	imm	1513530.784152	nan	nan	nan	nan	nan
443.3671875	0.0	40	908016	34	87	1000	0	0	1513522.5763457	1513522.5769802	80	1513526.0063732	1513526.0069934	40	1513529.1183127	1513529.1188189	100	imm	1513530.784152	nan	nan	nan	nan	nan
446.478515625	0.0	100	914388	34	87	1000	0	0	1513522.5763457	1513522.5769802	80	1513526.0063732	1513526.0069934	40	1513529.1183127	1513529.1188189	100	imm	1513530.784152	nan	nan	nan	nan	nan
450.814453125	0.0	80	923268	35	97	90	0	1	1513533.4540601	1513533.4545707	80	1513536.7031696	1513536.7035777	40	1513539.8847833	1513539.8852732	100	del	1513540.6717733	nan	nan	nan	nan	nan
454.0634765625	0.0	40	929922	35	97	90	0	1	1513533.4540601	1513533.4545707	80	1513536.7031696	1513536.7035777	40	1513539.8847833	1513539.8852732	100	del	1513540.6717733	nan	nan	nan	nan	nan
457.2451171875	0.0	100	936438	35	97	90	0	1	1513533.4540601	1513533.4545707	80	1513536.7031696	1513536.7035777	40	1513539.8847833	1513539.8852732	100	del	1513540.6717733	nan	nan	nan	nan	nan
460.94873046875	0.0	80	944023	36	70	30	0	1	1513543.5887706	1513543.5892769	80	1513547.0905113	1513547.0909614	40	1513550.1842156	1513550.1846457	100	del	1513552.8313781	nan	nan	nan	nan	nan
464.45068359375	0.0	40	951195	36	70	30	0	1	1513543.5887706	1513543.5892769	80	1513547.0905113	1513547.0909614	40	1513550.1842156	1513550.1846457	100	del	1513552.8313781	nan	nan	nan	nan	nan
467.5439453125	0.0	100	957530	36	70	30	0	1	1513543.5887706	1513543.5892769	80	1513547.0905113	1513547.0909614	40	1513550.1842156	1513550.1846457	100	del	1513552.8313781	nan	nan	nan	nan	nan
472.82666015625	0.0	80	968349	37	90	670	1	0	1513555.46689	1513555.4676748	80	1513558.8271807	1513558.8276991	40	1513562.0283828	1513562.0288994	100	imm	1513564.400019	4.0	1513566.6241325	1513564.911269	1513564.9116174	120.0
476.18701171875	0.0	40	975231	37	90	670	1	0	1513555.46689	1513555.4676748	80	1513558.8271807	1513558.8276991	40	1513562.0283828	1513562.0288994	100	imm	1513564.400019	4.0	1513566.6241325	1513564.911269	1513564.9116174	120.0
479.38818359375	0.0	100	981787	37	90	670	1	0	1513555.46689	1513555.4676748	80	1513558.8271807	1513558.8276991	40	1513562.0283828	1513562.0288994	100	imm	1513564.400019	4.0	1513566.6241325	1513564.911269	1513564.9116174	120.0
482.2705078125	0.0	120	987690	37	90	670	1	0	1513555.46689	1513555.4676748	80	1513558.8271807	1513558.8276991	40	1513562.0283828	1513562.0288994	100	imm	1513564.400019	4.0	1513566.6241325	1513564.911269	1513564.9116174	120.0
486.48486328125	0.0	80	996321	38	100	30	0	0	1513569.1252238	1513569.1257539	80	1513572.619027	1513572.6194943	40	1513575.9545607	1513575.9550901	100	del	1513576.7849533	nan	nan	nan	nan	nan
489.978515625	0.0	40	1003476	38	100	30	0	0	1513569.1252238	1513569.1257539	80	1513572.619027	1513572.6194943	40	1513575.9545607	1513575.9550901	100	del	1513576.7849533	nan	nan	nan	nan	nan
493.31396484375	0.0	100	1010307	38	100	30	0	0	1513569.1252238	1513569.1257539	80	1513572.619027	1513572.6194943	40	1513575.9545607	1513575.9550901	100	del	1513576.7849533	nan	nan	nan	nan	nan
497.09130859375	0.0	80	1018043	39	50	75	1	0	1513579.7320997	1513579.7325597	80	1513582.9410564	1513582.9414513	40	1513586.2698452	1513586.2703774	100	del	1513587.2802275	4.0	1513588.6237205	1513587.7940921	1513587.794579	120.0
500.30029296875	0.0	40	1024615	39	50	75	1	0	1513579.7320997	1513579.7325597	80	1513582.9410564	1513582.9414513	40	1513586.2698452	1513586.2703774	100	del	1513587.2802275	4.0	1513588.6237205	1513587.7940921	1513587.794579	120.0
503.62890625	0.0	100	1031432	39	50	75	1	0	1513579.7320997	1513579.7325597	80	1513582.9410564	1513582.9414513	40	1513586.2698452	1513586.2703774	100	del	1513587.2802275	4.0	1513588.6237205	1513587.7940921	1513587.794579	120.0
505.15283203125	0.0	120	1034553	39	50	75	1	0	1513579.7320997	1513579.7325597	80	1513582.9410564	1513582.9414513	40	1513586.2698452	1513586.2703774	100	del	1513587.2802275	4.0	1513588.6237205	1513587.7940921	1513587.794579	120.0
508.49169921875	0.0	80	1041391	40	83	90	0	1	1513591.1328853	1513591.1333557	80	1513594.4201911	1513594.4206438	40	1513597.899809	1513597.900289	100	del	1513601.5197165	nan	nan	nan	nan	nan
511.77880859375	0.0	40	1048123	40	83	90	0	1	1513591.1328853	1513591.1333557	80	1513594.4201911	1513594.4206438	40	1513597.899809	1513597.900289	100	del	1513601.5197165	nan	nan	nan	nan	nan
515.25830078125	0.0	100	1055249	40	83	90	0	1	1513591.1328853	1513591.1333557	80	1513594.4201911	1513594.4206438	40	1513597.899809	1513597.900289	100	del	1513601.5197165	nan	nan	nan	nan	nan
541.37353515625	0.0	80	1108733	41	57	1000	0	0	1513624.0155447	1513624.0160954	80	1513627.266364	1513627.2669266	40	1513630.5994455	1513630.6000444	100	imm	1513631.5123074	nan	nan	nan	nan	nan
544.62451171875	0.0	40	1115391	41	57	1000	0	0	1513624.0155447	1513624.0160954	80	1513627.266364	1513627.2669266	40	1513630.5994455	1513630.6000444	100	imm	1513631.5123074	nan	nan	nan	nan	nan
547.95751953125	0.0	100	1122217	41	57	1000	0	0	1513624.0155447	1513624.0160954	80	1513627.266364	1513627.2669266	40	1513630.5994455	1513630.6000444	100	imm	1513631.5123074	nan	nan	nan	nan	nan
551.83203125	0.0	80	1130152	42	87	450	0	1	1513634.474175	1513634.4745868	80	1513637.5809388	1513637.5815238	40	1513640.792143	1513640.7925957	100	imm	1513642.3762481	nan	nan	nan	nan	nan
554.9384765625	0.0	40	1136514	42	87	450	0	1	1513634.474175	1513634.4745868	80	1513637.5809388	1513637.5815238	40	1513640.792143	1513640.7925957	100	imm	1513642.3762481	nan	nan	nan	nan	nan
558.14990234375	0.0	100	1143091	42	87	450	0	1	1513634.474175	1513634.4745868	80	1513637.5809388	1513637.5815238	40	1513640.792143	1513640.7925957	100	imm	1513642.3762481	nan	nan	nan	nan	nan
562.7421875	0.0	80	1152496	43	70	670	1	1	1513645.3845111	1513645.3847219	80	1513648.5927469	1513648.593273	40	1513651.936088	1513651.9365476	100	imm	1513653.1841229	3.0	1513655.0960525	1513653.6964459	1513653.6969376	120.0
565.9501953125	0.0	40	1159066	43	70	670	1	1	1513645.3845111	1513645.3847219	80	1513648.5927469	1513648.593273	40	1513651.936088	1513651.9365476	100	imm	1513653.1841229	3.0	1513655.0960525	1513653.6964459	1513653.6969376	120.0
569.29345703125	0.0	100	1165913	43	70	670	1	1	1513645.3845111	1513645.3847219	80	1513648.5927469	1513648.593273	40	1513651.936088	1513651.9365476	100	imm	1513653.1841229	3.0	1513655.0960525	1513653.6964459	1513653.6969376	120.0
571.0537109375	0.0	120	1169518	43	70	670	1	1	1513645.3845111	1513645.3847219	80	1513648.5927469	1513648.593273	40	1513651.936088	1513651.9365476	100	imm	1513653.1841229	3.0	1513655.0960525	1513653.6964459	1513653.6969376	120.0
574.92041015625	0.0	80	1177437	44	93	7	1	0	1513657.5632678	1513657.5637339	80	1513661.0687457	1513661.0692341	40	1513664.4085237	1513664.4090447	100	del	1513665.6161067	4.0	1513667.5921136	1513666.1273788	1513666.1284338	120.0
578.42578125	0.0	40	1184616	44	93	7	1	0	1513657.5632678	1513657.5637339	80	1513661.0687457	1513661.0692341	40	1513664.4085237	1513664.4090447	100	del	1513665.6161067	4.0	1513667.5921136	1513666.1273788	1513666.1284338	120.0
581.765625	0.0	100	1191456	44	93	7	1	0	1513657.5632678	1513657.5637339	80	1513661.0687457	1513661.0692341	40	1513664.4085237	1513664.4090447	100	del	1513665.6161067	4.0	1513667.5921136	1513666.1273788	1513666.1284338	120.0
583.484375	0.0	120	1194976	44	93	7	1	0	1513657.5632678	1513657.5637339	80	1513661.0687457	1513661.0692341	40	1513664.4085237	1513664.4090447	100	del	1513665.6161067	4.0	1513667.5921136	1513666.1273788	1513666.1284338	120.0
587.017578125	0.0	80	1202212	45	70	300	1	1	1513669.6604997	1513669.6608112	80	1513672.6861859	1513672.6866714	40	1513676.0082319	1513676.0087783	100	imm	1513677.0794878	3.0	1513679.0314388	1513677.591112	1513677.5915774	120.0
590.04296875	0.0	40	1208408	45	70	300	1	1	1513669.6604997	1513669.6608112	80	1513672.6861859	1513672.6866714	40	1513676.0082319	1513676.0087783	100	imm	1513677.0794878	3.0	1513679.0314388	1513677.591112	1513677.5915774	120.0
593.36474609375	0.0	100	1215211	45	70	300	1	1	1513669.6604997	1513669.6608112	80	1513672.6861859	1513672.6866714	40	1513676.0082319	1513676.0087783	100	imm	1513677.0794878	3.0	1513679.0314388	1513677.591112	1513677.5915774	120.0
594.94775390625	0.0	120	1218453	45	70	300	1	1	1513669.6604997	1513669.6608112	80	1513672.6861859	1513672.6866714	40	1513676.0082319	1513676.0087783	100	imm	1513677.0794878	3.0	1513679.0314388	1513677.591112	1513677.5915774	120.0
598.685546875	0.0	80	1226108	46	53	1000	0	1	1513681.328697	1513681.3291787	80	1513684.8167147	1513684.8172225	40	1513688.2033487	1513688.2038196	100	imm	1513692.6312975	nan	nan	nan	nan	nan
602.17333984375	0.0	40	1233251	46	53	1000	0	1	1513681.328697	1513681.3291787	80	1513684.8167147	1513684.8172225	40	1513688.2033487	1513688.2038196	100	imm	1513692.6312975	nan	nan	nan	nan	nan
605.5595703125	0.0	100	1240186	46	53	1000	0	1	1513681.328697	1513681.3291787	80	1513684.8167147	1513684.8172225	40	1513688.2033487	1513688.2038196	100	imm	1513692.6312975	nan	nan	nan	nan	nan
612.83740234375	0.0	80	1255091	47	60	100	1	0	1513695.4810242	1513695.4814447	80	1513698.7499735	1513698.7503542	40	1513701.8938852	1513701.8942965	100	del	1513703.183329	3.0	1513704.4632314	1513703.6930936	1513703.6934092	120.0
616.10595703125	0.0	40	1261785	47	60	100	1	0	1513695.4810242	1513695.4814447	80	1513698.7499735	1513698.7503542	40	1513701.8938852	1513701.8942965	100	del	1513703.183329	3.0	1513704.4632314	1513703.6930936	1513703.6934092	120.0
619.25	0.0	100	1268224	47	60	100	1	0	1513695.4810242	1513695.4814447	80	1513698.7499735	1513698.7503542	40	1513701.8938852	1513701.8942965	100	del	1513703.183329	3.0	1513704.4632314	1513703.6930936	1513703.6934092	120.0
621.04931640625	0.0	120	1271909	47	60	100	1	0	1513695.4810242	1513695.4814447	80	1513698.7499735	1513698.7503542	40	1513701.8938852	1513701.8942965	100	del	1513703.183329	3.0	1513704.4632314	1513703.6930936	1513703.6934092	120.0
624.3115234375	0.0	80	1278590	48	97	300	1	1	1513706.9558344	1513706.9561593	80	1513710.2341889	1513710.234693	40	1513713.2644322	1513713.2649361	100	del	1513714.8718938	2.0	1513717.6156235	1513715.3851972	1513715.38562	120.0
627.58984375	0.0	40	1285304	48	97	300	1	1	1513706.9558344	1513706.9561593	80	1513710.2341889	1513710.234693	40	1513713.2644322	1513713.2649361	100	del	1513714.8718938	2.0	1513717.6156235	1513715.3851972	1513715.38562	120.0
630.6201171875	0.0	100	1291510	48	97	300	1	1	1513706.9558344	1513706.9561593	80	1513710.2341889	1513710.234693	40	1513713.2644322	1513713.2649361	100	del	1513714.8718938	2.0	1513717.6156235	1513715.3851972	1513715.38562	120.0
632.7412109375	0.0	120	1295854	48	97	300	1	1	1513706.9558344	1513706.9561593	80	1513710.2341889	1513710.234693	40	1513713.2644322	1513713.2649361	100	del	1513714.8718938	2.0	1513717.6156235	1513715.3851972	1513715.38562	120.0
637.33251953125	0.0	80	1305257	49	97	450	0	0	1513719.9766437	1513719.9770565	80	1513723.243866	1513723.2443791	40	1513726.2851372	1513726.285585	100	del	1513732.7192022	nan	nan	nan	nan	nan
640.599609375	0.0	40	1311948	49	97	450	0	0	1513719.9766437	1513719.9770565	80	1513723.243866	1513723.2443791	40	1513726.2851372	1513726.285585	100	del	1513732.7192022	nan	nan	nan	nan	nan
643.640625	0.0	100	1318176	49	97	450	0	0	1513719.9766437	1513719.9770565	80	1513723.243866	1513723.2443791	40	1513726.2851372	1513726.285585	100	del	1513732.7192022	nan	nan	nan	nan	nan
653.0380859375	0.0	80	1337422	50	53	30	0	0	1513735.6830804	1513735.6835888	80	1513738.8571236	1513738.8575704	40	1513741.9847576	1513741.9852738	100	del	1513742.552998	nan	nan	nan	nan	nan
656.21240234375	0.0	40	1343923	50	53	30	0	0	1513735.6830804	1513735.6835888	80	1513738.8571236	1513738.8575704	40	1513741.9847576	1513741.9852738	100	del	1513742.552998	nan	nan	nan	nan	nan
659.33984375	0.0	100	1350328	50	53	30	0	0	1513735.6830804	1513735.6835888	80	1513738.8571236	1513738.8575704	40	1513741.9847576	1513741.9852738	100	del	1513742.552998	nan	nan	nan	nan	nan
662.4833984375	0.0	80	1356766	51	83	450	0	1	1513745.1282193	1513745.1286684	80	1513748.2911831	1513748.2916984	40	1513751.4184578	1513751.4189856	100	del	1513752.8394882	nan	nan	nan	nan	nan
665.64599609375	0.0	40	1363243	51	83	450	0	1	1513745.1282193	1513745.1286684	80	1513748.2911831	1513748.2916984	40	1513751.4184578	1513751.4189856	100	del	1513752.8394882	nan	nan	nan	nan	nan
668.7734375	0.0	100	1369648	51	83	450	0	1	1513745.1282193	1513745.1286684	80	1513748.2911831	1513748.2916984	40	1513751.4184578	1513751.4189856	100	del	1513752.8394882	nan	nan	nan	nan	nan
673.03515625	0.0	80	1378376	52	70	450	0	1	1513755.6805567	1513755.6809618	80	1513758.7217349	1513758.7221439	40	1513761.8731302	1513761.8736458	100	imm	1513763.1597667	nan	nan	nan	nan	nan
676.076171875	0.0	40	1384604	52	70	450	0	1	1513755.6805567	1513755.6809618	80	1513758.7217349	1513758.7221439	40	1513761.8731302	1513761.8736458	100	imm	1513763.1597667	nan	nan	nan	nan	nan
679.2275390625	0.0	100	1391058	52	70	450	0	1	1513755.6805567	1513755.6809618	80	1513758.7217349	1513758.7221439	40	1513761.8731302	1513761.8736458	100	imm	1513763.1597667	nan	nan	nan	nan	nan
683.17041015625	0.0	80	1399133	53	100	450	0	1	1513765.8157685	1513765.8160449	80	1513769.2643596	1513769.2648265	40	1513772.5005122	1513772.5009833	100	del	1513773.5352446	nan	nan	nan	nan	nan
686.61865234375	0.0	40	1406195	53	100	450	0	1	1513765.8157685	1513765.8160449	80	1513769.2643596	1513769.2648265	40	1513772.5005122	1513772.5009833	100	del	1513773.5352446	nan	nan	nan	nan	nan
689.85498046875	0.0	100	1412823	53	100	450	0	1	1513765.8157685	1513765.8160449	80	1513769.2643596	1513769.2648265	40	1513772.5005122	1513772.5009833	100	del	1513773.5352446	nan	nan	nan	nan	nan
693.78466796875	0.0	80	1420871	54	90	1000	0	1	1513776.4306543	1513776.431178	80	1513779.7411951	1513779.7415841	40	1513783.1457591	1513783.1462321	100	imm	1513785.216923	nan	nan	nan	nan	nan
697.09521484375	0.0	40	1427651	54	90	1000	0	1	1513776.4306543	1513776.431178	80	1513779.7411951	1513779.7415841	40	1513783.1457591	1513783.1462321	100	imm	1513785.216923	nan	nan	nan	nan	nan
700.5	0.0	100	1434624	54	90	1000	0	1	1513776.4306543	1513776.431178	80	1513779.7411951	1513779.7415841	40	1513783.1457591	1513783.1462321	100	imm	1513785.216923	nan	nan	nan	nan	nan
705.14599609375	0.0	80	1444139	55	77	75	1	1	1513787.7920539	1513787.7925578	80	1513791.2888928	1513791.2892976	40	1513794.7261193	1513794.7265846	100	del	1513795.7591094	4.0	1513797.2956962	1513796.2694608	1513796.2697497	120.0
708.642578125	0.0	40	1451300	55	77	75	1	1	1513787.7920539	1513787.7925578	80	1513791.2888928	1513791.2892976	40	1513794.7261193	1513794.7265846	100	del	1513795.7591094	4.0	1513797.2956962	1513796.2694608	1513796.2697497	120.0
712.080078125	0.0	100	1458340	55	77	75	1	1	1513787.7920539	1513787.7925578	80	1513791.2888928	1513791.2892976	40	1513794.7261193	1513794.7265846	100	del	1513795.7591094	4.0	1513797.2956962	1513796.2694608	1513796.2697497	120.0
713.623046875	0.0	120	1461500	55	77	75	1	1	1513787.7920539	1513787.7925578	80	1513791.2888928	1513791.2892976	40	1513794.7261193	1513794.7265846	100	del	1513795.7591094	4.0	1513797.2956962	1513796.2694608	1513796.2697497	120.0
716.69140625	0.0	80	1467784	56	100	670	1	1	1513799.3376514	1513799.3381491	80	1513802.5782222	1513802.578673	40	1513805.7510241	1513805.7513574	100	del	1513807.1685049	3.0	1513808.8551214	1513807.6777215	1513807.6781156	120.0
719.931640625	0.0	40	1474420	56	100	670	1	1	1513799.3376514	1513799.3381491	80	1513802.5782222	1513802.578673	40	1513805.7510241	1513805.7513574	100	del	1513807.1685049	3.0	1513808.8551214	1513807.6777215	1513807.6781156	120.0
723.1044921875	0.0	100	1480918	56	100	670	1	1	1513799.3376514	1513799.3381491	80	1513802.5782222	1513802.578673	40	1513805.7510241	1513805.7513574	100	del	1513807.1685049	3.0	1513808.8551214	1513807.6777215	1513807.6781156	120.0
725.03125	0.0	120	1484864	56	100	670	1	1	1513799.3376514	1513799.3381491	80	1513802.5782222	1513802.578673	40	1513805.7510241	1513805.7513574	100	del	1513807.1685049	3.0	1513808.8551214	1513807.6777215	1513807.6781156	120.0
728.53955078125	0.0	80	1492049	57	73	100	1	1	1513811.1863058	1513811.1867779	80	1513814.3089597	1513814.3094643	40	1513817.6128124	1513817.6137135	100	del	1513820.7845238	2.0	1513822.4236757	1513821.2980375	1513821.2985478	120.0
731.662109375	0.0	40	1498444	57	73	100	1	1	1513811.1863058	1513811.1867779	80	1513814.3089597	1513814.3094643	40	1513817.6128124	1513817.6137135	100	del	1513820.7845238	2.0	1513822.4236757	1513821.2980375	1513821.2985478	120.0
734.9658203125	0.0	100	1505210	57	73	100	1	1	1513811.1863058	1513811.1867779	80	1513814.3089597	1513814.3094643	40	1513817.6128124	1513817.6137135	100	del	1513820.7845238	2.0	1513822.4236757	1513821.2980375	1513821.2985478	120.0
738.6513671875	0.0	120	1512758	57	73	100	1	1	1513811.1863058	1513811.1867779	80	1513814.3089597	1513814.3094643	40	1513817.6128124	1513817.6137135	100	del	1513820.7845238	2.0	1513822.4236757	1513821.2980375	1513821.2985478	120.0
742.09375	0.0	80	1519808	58	53	90	0	1	1513824.7406738	1513824.7411638	80	1513828.0487337	1513828.049229	40	1513831.2881304	1513831.288667	100	imm	1513832.1841093	nan	nan	nan	nan	nan
745.40185546875	0.0	40	1526583	58	53	90	0	1	1513824.7406738	1513824.7411638	80	1513828.0487337	1513828.049229	40	1513831.2881304	1513831.288667	100	imm	1513832.1841093	nan	nan	nan	nan	nan
748.64111328125	0.0	100	1533217	58	53	90	0	1	1513824.7406738	1513824.7411638	80	1513828.0487337	1513828.049229	40	1513831.2881304	1513831.288667	100	imm	1513832.1841093	nan	nan	nan	nan	nan
752.0732421875	0.0	80	1540246	59	80	7	1	0	1513834.7206208	1513834.7210923	80	1513837.9854083	1513837.9858353	40	1513841.1989439	1513841.1992582	100	del	1513842.4245247	3.0	1513844.1113638	1513842.933587	1513842.9338786	120.0
755.33837890625	0.0	40	1546933	59	80	7	1	0	1513834.7206208	1513834.7210923	80	1513837.9854083	1513837.9858353	40	1513841.1989439	1513841.1992582	100	del	1513842.4245247	3.0	1513844.1113638	1513842.933587	1513842.9338786	120.0
758.55126953125	0.0	100	1553513	59	80	7	1	0	1513834.7206208	1513834.7210923	80	1513837.9854083	1513837.9858353	40	1513841.1989439	1513841.1992582	100	del	1513842.4245247	3.0	1513844.1113638	1513842.933587	1513842.9338786	120.0
760.2861328125	0.0	120	1557066	59	80	7	1	0	1513834.7206208	1513834.7210923	80	1513837.9854083	1513837.9858353	40	1513841.1989439	1513841.1992582	100	del	1513842.4245247	3.0	1513844.1113638	1513842.933587	1513842.9338786	120.0
763.53173828125	0.0	80	1563713	60	97	75	1	0	1513846.1790811	1513846.1795109	80	1513849.415983	1513849.416456	40	1513852.6547186	1513852.6551918	100	del	1513853.5754303	4.0	1513854.7191855	1513854.0846964	1513854.0849486	120.0
766.7685546875	0.0	40	1570342	60	97	75	1	0	1513846.1790811	1513846.1795109	80	1513849.415983	1513849.416456	40	1513852.6547186	1513852.6551918	100	del	1513853.5754303	4.0	1513854.7191855	1513854.0846964	1513854.0849486	120.0
770.00732421875	0.0	100	1576975	60	97	75	1	0	1513846.1790811	1513846.1795109	80	1513849.415983	1513849.416456	40	1513852.6547186	1513852.6551918	100	del	1513853.5754303	4.0	1513854.7191855	1513854.0846964	1513854.0849486	120.0
771.43701171875	0.0	120	1579903	60	97	75	1	0	1513846.1790811	1513846.1795109	80	1513849.415983	1513849.416456	40	1513852.6547186	1513852.6551918	100	del	1513853.5754303	4.0	1513854.7191855	1513854.0846964	1513854.0849486	120.0
784.13671875	0.0	80	1605912	61	60	1000	0	1	1513866.7848462	1513866.7853825	80	1513870.1955474	1513870.1959988	40	1513873.5618483	1513873.5624397	100	imm	1513875.6245703	nan	nan	nan	nan	nan
787.54736328125	0.0	40	1612897	61	60	1000	0	1	1513866.7848462	1513866.7853825	80	1513870.1955474	1513870.1959988	40	1513873.5618483	1513873.5624397	100	imm	1513875.6245703	nan	nan	nan	nan	nan
790.91357421875	0.0	100	1619791	61	60	1000	0	1	1513866.7848462	1513866.7853825	80	1513870.1955474	1513870.1959988	40	1513873.5618483	1513873.5624397	100	imm	1513875.6245703	nan	nan	nan	nan	nan
795.9296875	0.0	80	1630064	62	77	300	1	0	1513878.5778661	1513878.5783612	80	1513881.6116953	1513881.6121341	40	1513884.7347994	1513884.7352664	100	imm	1513885.726962	3.0	1513888.1750871	1513886.2386745	1513886.2390815	120.0
798.96337890625	0.0	40	1636277	62	77	300	1	0	1513878.5778661	1513878.5783612	80	1513881.6116953	1513881.6121341	40	1513884.7347994	1513884.7352664	100	imm	1513885.726962	3.0	1513888.1750871	1513886.2386745	1513886.2390815	120.0
802.08642578125	0.0	100	1642673	62	77	300	1	0	1513878.5778661	1513878.5783612	80	1513881.6116953	1513881.6121341	40	1513884.7347994	1513884.7352664	100	imm	1513885.726962	3.0	1513888.1750871	1513886.2386745	1513886.2390815	120.0
803.59033203125	0.0	120	1645753	62	77	300	1	0	1513878.5778661	1513878.5783612	80	1513881.6116953	1513881.6121341	40	1513884.7347994	1513884.7352664	100	imm	1513885.726962	3.0	1513888.1750871	1513886.2386745	1513886.2390815	120.0
807.7685546875	0.0	80	1654310	63	70	75	1	1	1513890.4173784	1513890.4177209	80	1513893.9051231	1513893.9056091	40	1513897.3128903	1513897.3133968	100	del	1513898.8468052	4.0	1513900.631444	1513899.3580146	1513899.3584074	120.0
811.25634765625	0.0	40	1661453	63	70	75	1	1	1513890.4173784	1513890.4177209	80	1513893.9051231	1513893.9056091	40	1513897.3128903	1513897.3133968	100	del	1513898.8468052	4.0	1513900.631444	1513899.3580146	1513899.3584074	120.0
814.6640625	0.0	100	1668432	63	70	75	1	1	1513890.4173784	1513890.4177209	80	1513893.9051231	1513893.9056091	40	1513897.3128903	1513897.3133968	100	del	1513898.8468052	4.0	1513900.631444	1513899.3580146	1513899.3584074	120.0
816.708984375	0.0	120	1672620	63	70	75	1	1	1513890.4173784	1513890.4177209	80	1513893.9051231	1513893.9056091	40	1513897.3128903	1513897.3133968	100	del	1513898.8468052	4.0	1513900.631444	1513899.3580146	1513899.3584074	120.0
820.22607421875	0.0	80	1679823	64	73	300	1	0	1513902.875013	1513902.8755351	80	1513906.0494924	1513906.04991	40	1513909.089789	1513909.090126	100	imm	1513911.2313354	3.0	1513913.4553774	1513911.7445858	1513911.7451069	120.0
823.400390625	0.0	40	1686324	64	73	300	1	0	1513902.875013	1513902.8755351	80	1513906.0494924	1513906.04991	40	1513909.089789	1513909.090126	100	imm	1513911.2313354	3.0	1513913.4553774	1513911.7445858	1513911.7451069	120.0
826.44091796875	0.0	100	1692551	64	73	300	1	0	1513902.875013	1513902.8755351	80	1513906.0494924	1513906.04991	40	1513909.089789	1513909.090126	100	imm	1513911.2313354	3.0	1513913.4553774	1513911.7445858	1513911.7451069	120.0
829.095703125	0.0	120	1697988	64	73	300	1	0	1513902.875013	1513902.8755351	80	1513906.0494924	1513906.04991	40	1513909.089789	1513909.090126	100	imm	1513911.2313354	3.0	1513913.4553774	1513911.7445858	1513911.7451069	120.0
833.18896484375	0.0	80	1706371	65	73	450	0	0	1513915.8382109	1513915.8385773	80	1513919.0991387	1513919.0996309	40	1513922.2120946	1513922.2126084	100	na	1513928.0965934	nan	nan	nan	nan	nan
836.44970703125	0.0	40	1713049	65	73	450	0	0	1513915.8382109	1513915.8385773	80	1513919.0991387	1513919.0996309	40	1513922.2120946	1513922.2126084	100	na	1513928.0965934	nan	nan	nan	nan	nan
839.5625	0.0	100	1719424	65	73	450	0	0	1513915.8382109	1513915.8385773	80	1513919.0991387	1513919.0996309	40	1513922.2120946	1513922.2126084	100	na	1513928.0965934	nan	nan	nan	nan	nan
848.17822265625	0.0	80	1737069	66	90	90	0	0	1513930.827763	1513930.8282265	80	1513933.9197833	1513933.9202818	40	1513937.3087631	1513937.3092268	100	del	1513938.134859	nan	nan	nan	nan	nan
851.27001953125	0.0	40	1743401	66	90	90	0	0	1513930.827763	1513930.8282265	80	1513933.9197833	1513933.9202818	40	1513937.3087631	1513937.3092268	100	del	1513938.134859	nan	nan	nan	nan	nan
854.6591796875	0.0	100	1750342	66	90	90	0	0	1513930.827763	1513930.8282265	80	1513933.9197833	1513933.9202818	40	1513937.3087631	1513937.3092268	100	del	1513938.134859	nan	nan	nan	nan	nan
858.18701171875	0.0	80	1757567	67	60	300	1	0	1513940.836773	1513940.8372781	80	1513944.3156891	1513944.3161043	40	1513947.3373413	1513947.3377111	100	imm	1513948.1670745	2.0	1513951.6474758	1513948.6812032	1513948.6817416	120.0
861.66552734375	0.0	40	1764691	67	60	300	1	0	1513940.836773	1513940.8372781	80	1513944.3156891	1513944.3161043	40	1513947.3373413	1513947.3377111	100	imm	1513948.1670745	2.0	1513951.6474758	1513948.6812032	1513948.6817416	120.0
864.6875	0.0	100	1770880	67	60	300	1	0	1513940.836773	1513940.8372781	80	1513944.3156891	1513944.3161043	40	1513947.3373413	1513947.3377111	100	imm	1513948.1670745	2.0	1513951.6474758	1513948.6812032	1513948.6817416	120.0
866.03125	0.0	120	1773632	67	60	300	1	0	1513940.836773	1513940.8372781	80	1513944.3156891	1513944.3161043	40	1513947.3373413	1513947.3377111	100	imm	1513948.1670745	2.0	1513951.6474758	1513948.6812032	1513948.6817416	120.0
871.42626953125	0.0	80	1784681	68	83	670	1	0	1513954.0762523	1513954.0767144	80	1513957.3983464	1513957.3988324	40	1513960.681095	1513960.6816468	100	imm	1513961.5747636	3.0	1513963.0480956	1513962.085587	1513962.0859634	120.0
874.748046875	0.0	40	1791484	68	83	670	1	0	1513954.0762523	1513954.0767144	80	1513957.3983464	1513957.3988324	40	1513960.681095	1513960.6816468	100	imm	1513961.5747636	3.0	1513963.0480956	1513962.085587	1513962.0859634	120.0
878.03076171875	0.0	100	1798207	68	83	670	1	0	1513954.0762523	1513954.0767144	80	1513957.3983464	1513957.3988324	40	1513960.681095	1513960.6816468	100	imm	1513961.5747636	3.0	1513963.0480956	1513962.085587	1513962.0859634	120.0
879.43505859375	0.0	120	1801083	68	83	670	1	0	1513954.0762523	1513954.0767144	80	1513957.3983464	1513957.3988324	40	1513960.681095	1513960.6816468	100	imm	1513961.5747636	3.0	1513963.0480956	1513962.085587	1513962.0859634	120.0
882.73486328125	0.0	80	1807841	69	73	180	0	0	1513965.3854146	1513965.3857172	80	1513968.7562583	1513968.7567511	40	1513971.8177376	1513971.8182529	100	imm	1513973.5193254	nan	nan	nan	nan	nan
886.10595703125	0.0	40	1814745	69	73	180	0	0	1513965.3854146	1513965.3857172	80	1513968.7562583	1513968.7567511	40	1513971.8177376	1513971.8182529	100	imm	1513973.5193254	nan	nan	nan	nan	nan
889.1669921875	0.0	100	1821014	69	73	180	0	0	1513965.3854146	1513965.3857172	80	1513968.7562583	1513968.7567511	40	1513971.8177376	1513971.8182529	100	imm	1513973.5193254	nan	nan	nan	nan	nan
893.82470703125	0.0	80	1830553	70	67	75	1	0	1513976.4753637	1513976.4758316	80	1513979.4900567	1513979.4905524	40	1513982.6521586	1513982.6526694	100	del	1513986.0872072	4.0	1513988.0386882	1513986.5971466	1513986.5975268	120.0
896.83935546875	0.0	40	1836727	70	67	75	1	0	1513976.4753637	1513976.4758316	80	1513979.4900567	1513979.4905524	40	1513982.6521586	1513982.6526694	100	del	1513986.0872072	4.0	1513988.0386882	1513986.5971466	1513986.5975268	120.0
900.00146484375	0.0	100	1843203	70	67	75	1	0	1513976.4753637	1513976.4758316	80	1513979.4900567	1513979.4905524	40	1513982.6521586	1513982.6526694	100	del	1513986.0872072	4.0	1513988.0386882	1513986.5971466	1513986.5975268	120.0
903.9462890625	0.0	120	1851282	70	67	75	1	0	1513976.4753637	1513976.4758316	80	1513979.4900567	1513979.4905524	40	1513982.6521586	1513982.6526694	100	del	1513986.0872072	4.0	1513988.0386882	1513986.5971466	1513986.5975268	120.0
907.49169921875	0.0	80	1858543	71	83	30	0	1	1513990.1425827	1513990.1428152	80	1513993.612962	1513993.6134196	40	1513996.6607301	1513996.6612011	100	na	1514000.9108105	nan	nan	nan	nan	nan
910.9619140625	0.0	40	1865650	71	83	30	0	1	1513990.1425827	1513990.1428152	80	1513993.612962	1513993.6134196	40	1513996.6607301	1513996.6612011	100	na	1514000.9108105	nan	nan	nan	nan	nan
914.00927734375	0.0	100	1871891	71	83	30	0	1	1513990.1425827	1513990.1428152	80	1513993.612962	1513993.6134196	40	1513996.6607301	1513996.6612011	100	na	1514000.9108105	nan	nan	nan	nan	nan
921.0673828125	0.0	80	1886346	72	83	7	1	1	1514003.7190057	1514003.720781	80	1514007.04709	1514007.0475458	40	1514010.3863242	1514010.3867523	100	del	1514011.7351307	4.0	1514014.1513981	1514012.2487091	1514012.2492269	120.0
924.3955078125	0.0	40	1893162	72	83	7	1	1	1514003.7190057	1514003.720781	80	1514007.04709	1514007.0475458	40	1514010.3863242	1514010.3867523	100	del	1514011.7351307	4.0	1514014.1513981	1514012.2487091	1514012.2492269	120.0
927.73486328125	0.0	100	1900001	72	83	7	1	1	1514003.7190057	1514003.720781	80	1514007.04709	1514007.0475458	40	1514010.3863242	1514010.3867523	100	del	1514011.7351307	4.0	1514014.1513981	1514012.2487091	1514012.2492269	120.0
929.59716796875	0.0	120	1903815	72	83	7	1	1	1514003.7190057	1514003.720781	80	1514007.04709	1514007.0475458	40	1514010.3863242	1514010.3867523	100	del	1514011.7351307	4.0	1514014.1513981	1514012.2487091	1514012.2492269	120.0
933.9482421875	0.0	80	1912726	73	100	75	1	1	1514016.6001518	1514016.6006596	80	1514019.6358075	1514019.6363348	40	1514023.0620087	1514023.0624633	100	na	1514029.551214	3.0	1514031.5842975	1514030.0615805	1514030.0619251	120.0
936.98388671875	0.0	40	1918943	73	100	75	1	1	1514016.6001518	1514016.6006596	80	1514019.6358075	1514019.6363348	40	1514023.0620087	1514023.0624633	100	na	1514029.551214	3.0	1514031.5842975	1514030.0615805	1514030.0619251	120.0
940.41015625	0.0	100	1925960	73	100	75	1	1	1514016.6001518	1514016.6006596	80	1514019.6358075	1514019.6363348	40	1514023.0620087	1514023.0624633	100	na	1514029.551214	3.0	1514031.5842975	1514030.0615805	1514030.0619251	120.0
947.40966796875	0.0	120	1940295	73	100	75	1	1	1514016.6001518	1514016.6006596	80	1514019.6358075	1514019.6363348	40	1514023.0620087	1514023.0624633	100	na	1514029.551214	3.0	1514031.5842975	1514030.0615805	1514030.0619251	120.0
951.2109375	0.0	80	1948080	74	73	7	1	0	1514033.8628125	1514033.8639578	80	1514037.21828	1514037.2187498	40	1514040.3382044	1514040.3387256	100	del	1514041.2790553	4.0	1514043.0312696	1514041.7894359	1514041.7898364	120.0
954.56591796875	0.0	40	1954951	74	73	7	1	0	1514033.8628125	1514033.8639578	80	1514037.21828	1514037.2187498	40	1514040.3382044	1514040.3387256	100	del	1514041.2790553	4.0	1514043.0312696	1514041.7894359	1514041.7898364	120.0
957.68603515625	0.0	100	1961341	74	73	7	1	0	1514033.8628125	1514033.8639578	80	1514037.21828	1514037.2187498	40	1514040.3382044	1514040.3387256	100	del	1514041.2790553	4.0	1514043.0312696	1514041.7894359	1514041.7898364	120.0
959.13720703125	0.0	120	1964313	74	73	7	1	0	1514033.8628125	1514033.8639578	80	1514037.21828	1514037.2187498	40	1514040.3382044	1514040.3387256	100	del	1514041.2790553	4.0	1514043.0312696	1514041.7894359	1514041.7898364	120.0
962.6640625	0.0	80	1971536	75	60	670	1	1	1514045.3163813	1514045.3170456	80	1514048.6759014	1514048.6763984	40	1514052.1674214	1514052.1679934	100	imm	1514054.2306127	3.0	1514056.3988842	1514054.7436073	1514054.7440977	120.0
966.0234375	0.0	40	1978416	75	60	670	1	1	1514045.3163813	1514045.3170456	80	1514048.6759014	1514048.6763984	40	1514052.1674214	1514052.1679934	100	imm	1514054.2306127	3.0	1514056.3988842	1514054.7436073	1514054.7440977	120.0
969.5146484375	0.0	100	1985566	75	60	670	1	1	1514045.3163813	1514045.3170456	80	1514048.6759014	1514048.6763984	40	1514052.1674214	1514052.1679934	100	imm	1514054.2306127	3.0	1514056.3988842	1514054.7436073	1514054.7440977	120.0
972.0908203125	0.0	120	1990842	75	60	670	1	1	1514045.3163813	1514045.3170456	80	1514048.6759014	1514048.6763984	40	1514052.1674214	1514052.1679934	100	imm	1514054.2306127	3.0	1514056.3988842	1514054.7436073	1514054.7440977	120.0
975.98193359375	0.0	80	1998811	76	97	100	1	1	1514058.6347265	1514058.635145	80	1514061.6853215	1514061.6857848	40	1514064.7272801	1514064.7277766	100	del	1514066.8483018	3.0	1514069.4387571	1514067.3575561	1514067.3578064	120.0
979.03271484375	0.0	40	2005059	76	97	100	1	1	1514058.6347265	1514058.635145	80	1514061.6853215	1514061.6857848	40	1514064.7272801	1514064.7277766	100	del	1514066.8483018	3.0	1514069.4387571	1514067.3575561	1514067.3578064	120.0
982.07421875	0.0	100	2011288	76	97	100	1	1	1514058.6347265	1514058.635145	80	1514061.6853215	1514061.6857848	40	1514064.7272801	1514064.7277766	100	del	1514066.8483018	3.0	1514069.4387571	1514067.3575561	1514067.3578064	120.0
984.70458984375	0.0	120	2016675	76	97	100	1	1	1514058.6347265	1514058.635145	80	1514061.6853215	1514061.6857848	40	1514064.7272801	1514064.7277766	100	del	1514066.8483018	3.0	1514069.4387571	1514067.3575561	1514067.3578064	120.0
989.11572265625	0.0	80	2025709	77	57	75	1	0	1514071.7686445	1514071.7690331	80	1514075.1737365	1514075.1741843	40	1514078.5331872	1514078.5337244	100	imm	1514079.8390217	4.0	1514081.7509775	1514080.3536925	1514080.3541806	120.0
992.5205078125	0.0	40	2032682	77	57	75	1	0	1514071.7686445	1514071.7690331	80	1514075.1737365	1514075.1741843	40	1514078.5331872	1514078.5337244	100	imm	1514079.8390217	4.0	1514081.7509775	1514080.3536925	1514080.3541806	120.0
995.8798828125	0.0	100	2039562	77	57	75	1	0	1514071.7686445	1514071.7690331	80	1514075.1737365	1514075.1741843	40	1514078.5331872	1514078.5337244	100	imm	1514079.8390217	4.0	1514081.7509775	1514080.3536925	1514080.3541806	120.0
997.7001953125	0.0	120	2043290	77	57	75	1	0	1514071.7686445	1514071.7690331	80	1514075.1737365	1514075.1741843	40	1514078.5331872	1514078.5337244	100	imm	1514079.8390217	4.0	1514081.7509775	1514080.3536925	1514080.3541806	120.0
1001.2861328125	0.0	80	2050634	78	60	30	0	0	1514083.9396697	1514083.9401408	80	1514087.4205371	1514087.4209836	40	1514090.6934057	1514090.6939187	100	del	1514093.8081502	nan	nan	nan	nan	nan
1004.76708984375	0.0	40	2057763	78	60	30	0	0	1514083.9396697	1514083.9401408	80	1514087.4205371	1514087.4209836	40	1514090.6934057	1514090.6939187	100	del	1514093.8081502	nan	nan	nan	nan	nan
1008.0400390625	0.0	100	2064466	78	60	30	0	0	1514083.9396697	1514083.9401408	80	1514087.4205371	1514087.4209836	40	1514090.6934057	1514090.6939187	100	del	1514093.8081502	nan	nan	nan	nan	nan
1014.1474609375	0.0	80	2076974	79	50	180	0	0	1514096.8013372	1514096.8017895	80	1514099.8453357	1514099.8459288	40	1514102.9628774	1514102.9634338	100	imm	1514104.4464469	nan	nan	nan	nan	nan
1017.19189453125	0.0	40	2083209	79	50	180	0	0	1514096.8013372	1514096.8017895	80	1514099.8453357	1514099.8459288	40	1514102.9628774	1514102.9634338	100	imm	1514104.4464469	nan	nan	nan	nan	nan
1020.30908203125	0.0	100	2089593	79	50	180	0	0	1514096.8013372	1514096.8017895	80	1514099.8453357	1514099.8459288	40	1514102.9628774	1514102.9634338	100	imm	1514104.4464469	nan	nan	nan	nan	nan
1024.6982421875	0.0	80	2098582	80	100	7	1	1	1514107.3520584	1514107.352524	80	1514110.8165823	1514110.8170333	40	1514114.2208721	1514114.2213161	100	del	1514116.1668232	3.0	1514117.5984923	1514116.6765445	1514116.6769821	120.0
1028.16259765625	0.0	40	2105677	80	100	7	1	1	1514107.3520584	1514107.352524	80	1514110.8165823	1514110.8170333	40	1514114.2208721	1514114.2213161	100	del	1514116.1668232	3.0	1514117.5984923	1514116.6765445	1514116.6769821	120.0
1031.56689453125	0.0	100	2112649	80	100	7	1	1	1514107.3520584	1514107.352524	80	1514110.8165823	1514110.8170333	40	1514114.2208721	1514114.2213161	100	del	1514116.1668232	3.0	1514117.5984923	1514116.6765445	1514116.6769821	120.0
1034.0224609375	0.0	120	2117678	80	100	7	1	1	1514107.3520584	1514107.352524	80	1514110.8165823	1514110.8170333	40	1514114.2208721	1514114.2213161	100	del	1514116.1668232	3.0	1514117.5984923	1514116.6765445	1514116.6769821	120.0
1077.845703125	0.0	80	2207428	81	87	180	0	1	1514160.5010447	1514160.5015151	80	1514163.5849533	1514163.5854535	40	1514167.0230222	1514167.0235424	100	imm	1514170.4947944	nan	nan	nan	nan	nan
1080.9296875	0.0	40	2213744	81	87	180	0	1	1514160.5010447	1514160.5015151	80	1514163.5849533	1514163.5854535	40	1514167.0230222	1514167.0235424	100	imm	1514170.4947944	nan	nan	nan	nan	nan
1084.36767578125	0.0	100	2220785	81	87	180	0	1	1514160.5010447	1514160.5015151	80	1514163.5849533	1514163.5854535	40	1514167.0230222	1514167.0235424	100	imm	1514170.4947944	nan	nan	nan	nan	nan
1090.74951171875	0.0	80	2233855	82	100	300	1	0	1514173.404993	1514173.4055073	80	1514176.5481159	1514176.5485961	40	1514179.6754728	1514179.6759837	100	del	1514181.1665611	2.0	1514183.190839	1514181.6785121	1514181.6789608	120.0
1093.892578125	0.0	40	2240292	82	100	300	1	0	1514173.404993	1514173.4055073	80	1514176.5481159	1514176.5485961	40	1514179.6754728	1514179.6759837	100	del	1514181.1665611	2.0	1514183.190839	1514181.6785121	1514181.6789608	120.0
1097.01953125	0.0	100	2246696	82	100	300	1	0	1514173.404993	1514173.4055073	80	1514176.5481159	1514176.5485961	40	1514179.6754728	1514179.6759837	100	del	1514181.1665611	2.0	1514183.190839	1514181.6785121	1514181.6789608	120.0
1099.0224609375	0.0	120	2250798	82	100	300	1	0	1514173.404993	1514173.4055073	80	1514176.5481159	1514176.5485961	40	1514179.6754728	1514179.6759837	100	del	1514181.1665611	2.0	1514183.190839	1514181.6785121	1514181.6789608	120.0
1102.71142578125	0.0	80	2258353	83	70	1000	0	1	1514185.3672062	1514185.3678276	80	1514188.7895179	1514188.7899173	40	1514192.2134676	1514192.2139438	100	imm	1514196.8624884	nan	nan	nan	nan	nan
1106.13330078125	0.0	40	2265361	83	70	1000	0	1	1514185.3672062	1514185.3678276	80	1514188.7895179	1514188.7899173	40	1514192.2134676	1514192.2139438	100	imm	1514196.8624884	nan	nan	nan	nan	nan
1109.5576171875	0.0	100	2272374	83	70	1000	0	1	1514185.3672062	1514185.3678276	80	1514188.7895179	1514188.7899173	40	1514192.2134676	1514192.2139438	100	imm	1514196.8624884	nan	nan	nan	nan	nan
1117.005859375	0.0	80	2287628	84	50	90	0	0	1514199.6620685	1514199.6623938	80	1514202.9554265	1514202.9559354	40	1514206.1115589	1514206.1119816	100	imm	1514210.4143925	nan	nan	nan	nan	nan
1120.29931640625	0.0	40	2294373	84	50	90	0	0	1514199.6620685	1514199.6623938	80	1514202.9554265	1514202.9559354	40	1514206.1115589	1514206.1119816	100	imm	1514210.4143925	nan	nan	nan	nan	nan
1123.455078125	0.0	100	2300836	84	50	90	0	0	1514199.6620685	1514199.6623938	80	1514202.9554265	1514202.9559354	40	1514206.1115589	1514206.1119816	100	imm	1514210.4143925	nan	nan	nan	nan	nan
1130.62451171875	0.0	80	2315519	85	63	670	1	1	1514213.2806847	1514213.2813568	80	1514216.6862337	1514216.6867216	40	1514219.9220179	1514219.922525	100	imm	1514226.1103666	3.0	1514228.2143321	1514226.6203265	1514226.6207646	120.0
1134.02978515625	0.0	40	2322493	85	63	670	1	1	1514213.2806847	1514213.2813568	80	1514216.6862337	1514216.6867216	40	1514219.9220179	1514219.922525	100	imm	1514226.1103666	3.0	1514228.2143321	1514226.6203265	1514226.6207646	120.0
1137.26513671875	0.0	100	2329119	85	63	670	1	1	1514213.2806847	1514213.2813568	80	1514216.6862337	1514216.6867216	40	1514219.9220179	1514219.922525	100	imm	1514226.1103666	3.0	1514228.2143321	1514226.6203265	1514226.6207646	120.0
1143.96337890625	0.0	120	2342837	85	63	670	1	1	1514213.2806847	1514213.2813568	80	1514216.6862337	1514216.6867216	40	1514219.9220179	1514219.922525	100	imm	1514226.1103666	3.0	1514228.2143321	1514226.6203265	1514226.6207646	120.0
1147.7958984375	0.0	80	2350686	86	53	7	1	0	1514230.4530758	1514230.4535898	80	1514233.691758	1514233.6920421	40	1514236.8457834	1514236.8470244	100	imm	1514237.4060186	3.0	1514239.3199134	1514237.9183383	1514237.9187313	120.0
1151.03466796875	0.0	40	2357319	86	53	7	1	0	1514230.4530758	1514230.4535898	80	1514233.691758	1514233.6920421	40	1514236.8457834	1514236.8470244	100	imm	1514237.4060186	3.0	1514239.3199134	1514237.9183383	1514237.9187313	120.0
1154.1884765625	0.0	100	2363778	86	53	7	1	0	1514230.4530758	1514230.4535898	80	1514233.691758	1514233.6920421	40	1514236.8457834	1514236.8470244	100	imm	1514237.4060186	3.0	1514239.3199134	1514237.9183383	1514237.9187313	120.0
1155.26123046875	0.0	120	2365975	86	53	7	1	0	1514230.4530758	1514230.4535898	80	1514233.691758	1514233.6920421	40	1514236.8457834	1514236.8470244	100	imm	1514237.4060186	3.0	1514239.3199134	1514237.9183383	1514237.9187313	120.0
1159.01513671875	0.0	80	2373663	87	87	670	1	1	1514241.6723173	1514241.672822	80	1514245.1321342	1514245.1325916	40	1514248.5999637	1514248.6004869	100	del	1514250.3669219	4.0	1514252.3186558	1514250.8798216	1514250.880314	120.0
1162.474609375	0.0	40	2380748	87	87	670	1	1	1514241.6723173	1514241.672822	80	1514245.1321342	1514245.1325916	40	1514248.5999637	1514248.6004869	100	del	1514250.3669219	4.0	1514252.3186558	1514250.8798216	1514250.880314	120.0
1165.9423828125	0.0	100	2387850	87	87	670	1	1	1514241.6723173	1514241.672822	80	1514245.1321342	1514245.1325916	40	1514248.5999637	1514248.6004869	100	del	1514250.3669219	4.0	1514252.3186558	1514250.8798216	1514250.880314	120.0
1168.22216796875	0.0	120	2392519	87	87	670	1	1	1514241.6723173	1514241.672822	80	1514245.1321342	1514245.1325916	40	1514248.5999637	1514248.6004869	100	del	1514250.3669219	4.0	1514252.3186558	1514250.8798216	1514250.880314	120.0
1172.04736328125	0.0	80	2400353	88	50	30	0	0	1514254.7053015	1514254.7056354	80	1514257.8431803	1514257.8436055	40	1514261.2016082	1514261.2020976	100	na	1514266.6706503	nan	nan	nan	nan	nan
1175.185546875	0.0	40	2406780	88	50	30	0	0	1514254.7053015	1514254.7056354	80	1514257.8431803	1514257.8436055	40	1514261.2016082	1514261.2020976	100	na	1514266.6706503	nan	nan	nan	nan	nan
1178.5439453125	0.0	100	2413658	88	50	30	0	0	1514254.7053015	1514254.7056354	80	1514257.8431803	1514257.8436055	40	1514261.2016082	1514261.2020976	100	na	1514266.6706503	nan	nan	nan	nan	nan
1186.595703125	0.0	80	2430148	89	97	1000	0	0	1514269.2537949	1514269.2542766	80	1514272.3230229	1514272.3234302	40	1514275.4329105	1514275.4333735	100	imm	1514278.0709863	nan	nan	nan	nan	nan
1189.6650390625	0.0	40	2436434	89	97	1000	0	0	1514269.2537949	1514269.2542766	80	1514272.3230229	1514272.3234302	40	1514275.4329105	1514275.4333735	100	imm	1514278.0709863	nan	nan	nan	nan	nan
1192.77490234375	0.0	100	2442803	89	97	1000	0	0	1514269.2537949	1514269.2542766	80	1514272.3230229	1514272.3234302	40	1514275.4329105	1514275.4333735	100	imm	1514278.0709863	nan	nan	nan	nan	nan
1198.0009765625	0.0	80	2453506	90	93	90	0	1	1514280.6591445	1514280.6595911	80	1514283.9583063	1514283.9586508	40	1514287.008671	1514287.0091633	100	del	1514290.4156029	nan	nan	nan	nan	nan
1201.2998046875	0.0	40	2460262	90	93	90	0	1	1514280.6591445	1514280.6595911	80	1514283.9583063	1514283.9586508	40	1514287.008671	1514287.0091633	100	del	1514290.4156029	nan	nan	nan	nan	nan
1204.35009765625	0.0	100	2466509	90	93	90	0	1	1514280.6591445	1514280.6595911	80	1514283.9583063	1514283.9586508	40	1514287.008671	1514287.0091633	100	del	1514290.4156029	nan	nan	nan	nan	nan
1210.685546875	0.0	80	2479484	91	53	670	1	1	1514293.3441972	1514293.344656	80	1514296.712722	1514296.713212	40	1514300.1896721	1514300.1901555	100	imm	1514301.0227852	3.0	1514302.7741415	1514301.5319261	1514301.5322346	120.0
1214.05419921875	0.0	40	2486383	91	53	670	1	1	1514293.3441972	1514293.344656	80	1514296.712722	1514296.713212	40	1514300.1896721	1514300.1901555	100	imm	1514301.0227852	3.0	1514302.7741415	1514301.5319261	1514301.5322346	120.0
1217.53076171875	0.0	100	2493503	91	53	670	1	1	1514293.3441972	1514293.344656	80	1514296.712722	1514296.713212	40	1514300.1896721	1514300.1901555	100	imm	1514301.0227852	3.0	1514302.7741415	1514301.5319261	1514301.5322346	120.0
1218.873046875	0.0	120	2496252	91	53	670	1	1	1514293.3441972	1514293.344656	80	1514296.712722	1514296.713212	40	1514300.1896721	1514300.1901555	100	imm	1514301.0227852	3.0	1514302.7741415	1514301.5319261	1514301.5322346	120.0
1222.376953125	0.0	80	2503428	92	63	90	0	1	1514305.0362048	1514305.0369516	80	1514308.3725331	1514308.3730378	40	1514311.8243586	1514311.8246907	100	del	1514312.4943052	nan	nan	nan	nan	nan
1225.71337890625	0.0	40	2510261	92	63	90	0	1	1514305.0362048	1514305.0369516	80	1514308.3725331	1514308.3730378	40	1514311.8243586	1514311.8246907	100	del	1514312.4943052	nan	nan	nan	nan	nan
1229.1650390625	0.0	100	2517330	92	63	90	0	1	1514305.0362048	1514305.0369516	80	1514308.3725331	1514308.3730378	40	1514311.8243586	1514311.8246907	100	del	1514312.4943052	nan	nan	nan	nan	nan
1232.62255859375	0.0	80	2524411	93	50	450	0	0	1514315.2816507	1514315.2821116	80	1514318.4303474	1514318.4308314	40	1514321.9312774	1514321.931821	100	imm	1514322.7579915	nan	nan	nan	nan	nan
1235.77099609375	0.0	40	2530859	93	50	450	0	0	1514315.2816507	1514315.2821116	80	1514318.4303474	1514318.4308314	40	1514321.9312774	1514321.931821	100	imm	1514322.7579915	nan	nan	nan	nan	nan
1239.27197265625	0.0	100	2538029	93	50	450	0	0	1514315.2816507	1514315.2821116	80	1514318.4303474	1514318.4308314	40	1514321.9312774	1514321.931821	100	imm	1514322.7579915	nan	nan	nan	nan	nan
1242.6357421875	0.0	80	2544918	94	53	300	1	1	1514325.2951792	1514325.2956859	80	1514328.4640119	1514328.4643368	40	1514331.9635163	1514331.9640257	100	imm	1514332.8227754	3.0	1514335.30355	1514333.3341962	1514333.3346923	120.0
1245.80419921875	0.0	40	2551407	94	53	300	1	1	1514325.2951792	1514325.2956859	80	1514328.4640119	1514328.4643368	40	1514331.9635163	1514331.9640257	100	imm	1514332.8227754	3.0	1514335.30355	1514333.3341962	1514333.3346923	120.0
1249.30419921875	0.0	100	2558575	94	53	300	1	1	1514325.2951792	1514325.2956859	80	1514328.4640119	1514328.4643368	40	1514331.9635163	1514331.9640257	100	imm	1514332.8227754	3.0	1514335.30355	1514333.3341962	1514333.3346923	120.0
1250.6748046875	0.0	120	2561382	94	53	300	1	1	1514325.2951792	1514325.2956859	80	1514328.4640119	1514328.4643368	40	1514331.9635163	1514331.9640257	100	imm	1514332.8227754	3.0	1514335.30355	1514333.3341962	1514333.3346923	120.0
1254.8427734375	0.0	80	2569918	95	90	30	0	1	1514337.5025424	1514337.5030703	80	1514340.6632462	1514340.6635427	40	1514343.7377683	1514343.7382761	100	del	1514344.6225923	nan	nan	nan	nan	nan
1258.00341796875	0.0	40	2576391	95	90	30	0	1	1514337.5025424	1514337.5030703	80	1514340.6632462	1514340.6635427	40	1514343.7377683	1514343.7382761	100	del	1514344.6225923	nan	nan	nan	nan	nan
1261.078125	0.0	100	2582688	95	90	30	0	1	1514337.5025424	1514337.5030703	80	1514340.6632462	1514340.6635427	40	1514343.7377683	1514343.7382761	100	del	1514344.6225923	nan	nan	nan	nan	nan
1264.9375	0.0	80	2590592	96	77	670	1	1	1514347.5972586	1514347.5977573	80	1514350.6735467	1514350.6740588	40	1514353.8528917	1514353.8533961	100	del	1514354.8944263	3.0	1514356.6221422	1514355.4059448	1514355.4063026	120.0
1268.013671875	0.0	40	2596892	96	77	670	1	1	1514347.5972586	1514347.5977573	80	1514350.6735467	1514350.6740588	40	1514353.8528917	1514353.8533961	100	del	1514354.8944263	3.0	1514356.6221422	1514355.4059448	1514355.4063026	120.0
1271.19287109375	0.0	100	2603403	96	77	670	1	1	1514347.5972586	1514347.5977573	80	1514350.6735467	1514350.6740588	40	1514353.8528917	1514353.8533961	100	del	1514354.8944263	3.0	1514356.6221422	1514355.4059448	1514355.4063026	120.0
1272.74560546875	0.0	120	2606583	96	77	670	1	1	1514347.5972586	1514347.5977573	80	1514350.6735467	1514350.6740588	40	1514353.8528917	1514353.8533961	100	del	1514354.8944263	3.0	1514356.6221422	1514355.4059448	1514355.4063026	120.0
1276.423828125	0.0	80	2614116	97	67	450	0	1	1514359.0840632	1514359.084407	80	1514362.3413824	1514362.3418298	40	1514365.6618344	1514365.6623482	100	na	1514371.0059815	nan	nan	nan	nan	nan
1279.68115234375	0.0	40	2620787	97	67	450	0	1	1514359.0840632	1514359.084407	80	1514362.3413824	1514362.3418298	40	1514365.6618344	1514365.6623482	100	na	1514371.0059815	nan	nan	nan	nan	nan
1283.00146484375	0.0	100	2627587	97	67	450	0	1	1514359.0840632	1514359.084407	80	1514362.3413824	1514362.3418298	40	1514365.6618344	1514365.6623482	100	na	1514371.0059815	nan	nan	nan	nan	nan
1291.15478515625	0.0	80	2644285	98	87	90	0	1	1514373.815359	1514373.8158173	80	1514377.1720268	1514377.172524	40	1514380.2000448	1514380.2005574	100	del	1514384.6622462	nan	nan	nan	nan	nan
1294.51123046875	0.0	40	2651159	98	87	90	0	1	1514373.815359	1514373.8158173	80	1514377.1720268	1514377.172524	40	1514380.2000448	1514380.2005574	100	del	1514384.6622462	nan	nan	nan	nan	nan
1297.5390625	0.0	100	2657360	98	87	90	0	1	1514373.815359	1514373.8158173	80	1514377.1720268	1514377.172524	40	1514380.2000448	1514380.2005574	100	del	1514384.6622462	nan	nan	nan	nan	nan
1304.78076171875	0.0	80	2672191	99	77	450	0	0	1514387.4414955	1514387.4419867	80	1514390.4657453	1514390.466259	40	1514393.9021483	1514393.9026608	100	imm	1514394.5025366	nan	nan	nan	nan	nan
1307.8046875	0.0	40	2678384	99	77	450	0	0	1514387.4414955	1514387.4419867	80	1514390.4657453	1514390.466259	40	1514393.9021483	1514393.9026608	100	imm	1514394.5025366	nan	nan	nan	nan	nan
1311.2412109375	0.0	100	2685422	99	77	450	0	0	1514387.4414955	1514387.4419867	80	1514390.4657453	1514390.466259	40	1514393.9021483	1514393.9026608	100	imm	1514394.5025366	nan	nan	nan	nan	nan
1314.5283203125	0.0	80	2692154	100	67	100	1	1	1514397.1895432	1514397.1900623	80	1514400.6210137	1514400.6214801	40	1514403.7566904	1514403.7571773	100	del	1514405.5501434	3.0	1514407.1025201	1514406.0601178	1514406.0604581	120.0
1317.9599609375	0.0	40	2699182	100	67	100	1	1	1514397.1895432	1514397.1900623	80	1514400.6210137	1514400.6214801	40	1514403.7566904	1514403.7571773	100	del	1514405.5501434	3.0	1514407.1025201	1514406.0601178	1514406.0604581	120.0
1321.09521484375	0.0	100	2705603	100	67	100	1	1	1514397.1895432	1514397.1900623	80	1514400.6210137	1514400.6214801	40	1514403.7566904	1514403.7571773	100	del	1514405.5501434	3.0	1514407.1025201	1514406.0601178	1514406.0604581	120.0
1323.3984375	0.0	120	2710320	100	67	100	1	1	1514397.1895432	1514397.1900623	80	1514400.6210137	1514400.6214801	40	1514403.7566904	1514403.7571773	100	del	1514405.5501434	3.0	1514407.1025201	1514406.0601178	1514406.0604581	120.0
1383.05419921875	0.0	80	2832495	101	97	180	0	0	1514465.7173984	1514465.7182111	80	1514469.1943096	1514469.1947636	40	1514472.2310639	1514472.2315726	100	del	1514474.8700128	nan	nan	nan	nan	nan
1386.53125	0.0	40	2839616	101	97	180	0	0	1514465.7173984	1514465.7182111	80	1514469.1943096	1514469.1947636	40	1514472.2310639	1514472.2315726	100	del	1514474.8700128	nan	nan	nan	nan	nan
1389.56787109375	0.0	100	2845835	101	97	180	0	0	1514465.7173984	1514465.7182111	80	1514469.1943096	1514469.1947636	40	1514472.2310639	1514472.2315726	100	del	1514474.8700128	nan	nan	nan	nan	nan
1394.75146484375	0.0	80	2856451	102	73	90	0	0	1514477.4144479	1514477.4148951	80	1514480.4327279	1514480.4333137	40	1514483.788513	1514483.7890314	100	del	1514484.9816238	nan	nan	nan	nan	nan
1397.76953125	0.0	40	2862632	102	73	90	0	0	1514477.4144479	1514477.4148951	80	1514480.4327279	1514480.4333137	40	1514483.788513	1514483.7890314	100	del	1514484.9816238	nan	nan	nan	nan	nan
1401.125	0.0	100	2869504	102	73	90	0	0	1514477.4144479	1514477.4148951	80	1514480.4327279	1514480.4333137	40	1514483.788513	1514483.7890314	100	del	1514484.9816238	nan	nan	nan	nan	nan
1405.1318359375	0.0	80	2877710	103	80	100	1	0	1514487.7951447	1514487.7955368	80	1514490.8584291	1514490.858783	40	1514494.2697591	1514494.2702242	100	del	1514498.2634845	4.0	1514499.9823125	1514498.7765508	1514498.7770555	120.0
1408.19482421875	0.0	40	2883983	103	80	100	1	0	1514487.7951447	1514487.7955368	80	1514490.8584291	1514490.858783	40	1514494.2697591	1514494.2702242	100	del	1514498.2634845	4.0	1514499.9823125	1514498.7765508	1514498.7770555	120.0
1411.60595703125	0.0	100	2890969	103	80	100	1	0	1514487.7951447	1514487.7955368	80	1514490.8584291	1514490.858783	40	1514494.2697591	1514494.2702242	100	del	1514498.2634845	4.0	1514499.9823125	1514498.7765508	1514498.7770555	120.0
1416.11279296875	0.0	120	2900199	103	80	100	1	0	1514487.7951447	1514487.7955368	80	1514490.8584291	1514490.858783	40	1514494.2697591	1514494.2702242	100	del	1514498.2634845	4.0	1514499.9823125	1514498.7765508	1514498.7770555	120.0
1419.64306640625	0.0	80	2907429	104	73	75	1	0	1514502.3070048	1514502.3075386	80	1514505.3500276	1514505.3505553	40	1514508.3994401	1514508.3999752	100	del	1514512.342052	3.0	1514514.2553896	1514512.8512739	1514512.8515497	120.0
1422.68603515625	0.0	40	2913661	104	73	75	1	0	1514502.3070048	1514502.3075386	80	1514505.3500276	1514505.3505553	40	1514508.3994401	1514508.3999752	100	del	1514512.342052	3.0	1514514.2553896	1514512.8512739	1514512.8515497	120.0
1425.7353515625	0.0	100	2919906	104	73	75	1	0	1514502.3070048	1514502.3075386	80	1514505.3500276	1514505.3505553	40	1514508.3994401	1514508.3999752	100	del	1514512.342052	3.0	1514514.2553896	1514512.8512739	1514512.8515497	120.0
1430.18701171875	0.0	120	2929023	104	73	75	1	0	1514502.3070048	1514502.3075386	80	1514505.3500276	1514505.3505553	40	1514508.3994401	1514508.3999752	100	del	1514512.342052	3.0	1514514.2553896	1514512.8512739	1514512.8515497	120.0
1433.67626953125	0.0	80	2936169	105	57	90	0	0	1514516.3402404	1514516.3409063	80	1514519.7424344	1514519.7428863	40	1514522.8021291	1514522.8026346	100	imm	1514524.4623533	nan	nan	nan	nan	nan
1437.078125	0.0	40	2943136	105	57	90	0	0	1514516.3402404	1514516.3409063	80	1514519.7424344	1514519.7428863	40	1514522.8021291	1514522.8026346	100	imm	1514524.4623533	nan	nan	nan	nan	nan
1440.1376953125	0.0	100	2949402	105	57	90	0	0	1514516.3402404	1514516.3409063	80	1514519.7424344	1514519.7428863	40	1514522.8021291	1514522.8026346	100	imm	1514524.4623533	nan	nan	nan	nan	nan
1444.4345703125	0.0	80	2958202	106	67	7	1	1	1514527.0989141	1514527.0993975	80	1514530.2289206	1514530.2294723	40	1514533.2935007	1514533.2939756	100	del	1514535.0296712	2.0	1514537.9180758	1514535.5393926	1514535.5397176	120.0
1447.564453125	0.0	40	2964612	106	67	7	1	1	1514527.0989141	1514527.0993975	80	1514530.2289206	1514530.2294723	40	1514533.2935007	1514533.2939756	100	del	1514535.0296712	2.0	1514537.9180758	1514535.5393926	1514535.5397176	120.0
1450.62890625	0.0	100	2970888	106	67	7	1	1	1514527.0989141	1514527.0993975	80	1514530.2289206	1514530.2294723	40	1514533.2935007	1514533.2939756	100	del	1514535.0296712	2.0	1514537.9180758	1514535.5393926	1514535.5397176	120.0
1452.87451171875	0.0	120	2975487	106	67	7	1	1	1514527.0989141	1514527.0993975	80	1514530.2289206	1514530.2294723	40	1514533.2935007	1514533.2939756	100	del	1514535.0296712	2.0	1514537.9180758	1514535.5393926	1514535.5397176	120.0
1457.69873046875	0.0	80	2985367	107	57	670	1	1	1514540.3635596	1514540.3640272	80	1514543.7201875	1514543.7205921	40	1514547.0967429	1514547.097238	100	del	1514552.6138699	4.0	1514553.9415016	1514553.1241459	1514553.1245974	120.0
1461.05517578125	0.0	40	2992241	107	57	670	1	1	1514540.3635596	1514540.3640272	80	1514543.7201875	1514543.7205921	40	1514547.0967429	1514547.097238	100	del	1514552.6138699	4.0	1514553.9415016	1514553.1241459	1514553.1245974	120.0
1464.431640625	0.0	100	2999156	107	57	670	1	1	1514540.3635596	1514540.3640272	80	1514543.7201875	1514543.7205921	40	1514547.0967429	1514547.097238	100	del	1514552.6138699	4.0	1514553.9415016	1514553.1241459	1514553.1245974	120.0
1470.458984375	0.0	120	3011500	107	57	670	1	1	1514540.3635596	1514540.3640272	80	1514543.7201875	1514543.7205921	40	1514547.0967429	1514547.097238	100	del	1514552.6138699	4.0	1514553.9415016	1514553.1241459	1514553.1245974	120.0
1473.6162109375	0.0	80	3017966	108	63	100	1	0	1514556.2815278	1514556.2819595	80	1514559.5471198	1514559.5475904	40	1514562.7233408	1514562.7239029	100	na	1514568.6858508	1.0	1514571.4069691	1514569.196073	1514569.196351	120.0
1476.8818359375	0.0	40	3024654	108	63	100	1	0	1514556.2815278	1514556.2819595	80	1514559.5471198	1514559.5475904	40	1514562.7233408	1514562.7239029	100	na	1514568.6858508	1.0	1514571.4069691	1514569.196073	1514569.196351	120.0
1480.05810546875	0.0	100	3031159	108	63	100	1	0	1514556.2815278	1514556.2819595	80	1514559.5471198	1514559.5475904	40	1514562.7233408	1514562.7239029	100	na	1514568.6858508	1.0	1514571.4069691	1514569.196073	1514569.196351	120.0
1486.53076171875	0.0	120	3044415	108	63	100	1	0	1514556.2815278	1514556.2819595	80	1514559.5471198	1514559.5475904	40	1514562.7233408	1514562.7239029	100	na	1514568.6858508	1.0	1514571.4069691	1514569.196073	1514569.196351	120.0
1491.083984375	0.0	80	3053740	109	57	100	1	1	1514573.7489731	1514573.7491533	80	1514576.8148825	1514576.8161107	40	1514579.9026355	1514579.9031121	100	imm	1514580.590253	3.0	1514581.9107962	1514581.1012173	1514581.1017001	120.0
1494.14892578125	0.0	40	3060017	109	57	100	1	1	1514573.7489731	1514573.7491533	80	1514576.8148825	1514576.8161107	40	1514579.9026355	1514579.9031121	100	imm	1514580.590253	3.0	1514581.9107962	1514581.1012173	1514581.1017001	120.0
1497.23681640625	0.0	100	3066341	109	57	100	1	1	1514573.7489731	1514573.7491533	80	1514576.8148825	1514576.8161107	40	1514579.9026355	1514579.9031121	100	imm	1514580.590253	3.0	1514581.9107962	1514581.1012173	1514581.1017001	120.0
1498.435546875	0.0	120	3068796	109	57	100	1	1	1514573.7489731	1514573.7491533	80	1514576.8148825	1514576.8161107	40	1514579.9026355	1514579.9031121	100	imm	1514580.590253	3.0	1514581.9107962	1514581.1012173	1514581.1017001	120.0
1501.2685546875	0.0	80	3074598	110	90	450	0	0	1514583.9344063	1514583.9347733	80	1514587.4249773	1514587.425451	40	1514590.9236096	1514590.9240428	100	imm	1514591.4697234	nan	nan	nan	nan	nan
1504.75927734375	0.0	40	3081747	110	90	450	0	0	1514583.9344063	1514583.9347733	80	1514587.4249773	1514587.425451	40	1514590.9236096	1514590.9240428	100	imm	1514591.4697234	nan	nan	nan	nan	nan
1508.2578125	0.0	100	3088912	110	90	450	0	0	1514583.9344063	1514583.9347733	80	1514587.4249773	1514587.425451	40	1514590.9236096	1514590.9240428	100	imm	1514591.4697234	nan	nan	nan	nan	nan
1511.38037109375	0.0	80	3095307	111	63	75	1	0	1514594.0463916	1514594.0469057	80	1514597.2887796	1514597.2892844	40	1514600.6298775	1514600.6303314	100	imm	1514601.5816966	4.0	1514602.8774114	1514602.0938522	1514602.0943475	120.0
1514.62255859375	0.0	40	3101947	111	63	75	1	0	1514594.0463916	1514594.0469057	80	1514597.2887796	1514597.2892844	40	1514600.6298775	1514600.6303314	100	imm	1514601.5816966	4.0	1514602.8774114	1514602.0938522	1514602.0943475	120.0
1517.9638671875	0.0	100	3108790	111	63	75	1	0	1514594.0463916	1514594.0469057	80	1514597.2887796	1514597.2892844	40	1514600.6298775	1514600.6303314	100	imm	1514601.5816966	4.0	1514602.8774114	1514602.0938522	1514602.0943475	120.0
1519.427734375	0.0	120	3111788	111	63	75	1	0	1514594.0463916	1514594.0469057	80	1514597.2887796	1514597.2892844	40	1514600.6298775	1514600.6303314	100	imm	1514601.5816966	4.0	1514602.8774114	1514602.0938522	1514602.0943475	120.0
1522.37060546875	0.0	80	3117815	112	77	30	0	0	1514605.0369375	1514605.037482	80	1514608.4221611	1514608.4226589	40	1514611.7138704	1514611.7143807	100	del	1514614.14166	nan	nan	nan	nan	nan
1525.755859375	0.0	40	3124748	112	77	30	0	0	1514605.0369375	1514605.037482	80	1514608.4221611	1514608.4226589	40	1514611.7138704	1514611.7143807	100	del	1514614.14166	nan	nan	nan	nan	nan
1529.04736328125	0.0	100	3131489	112	77	30	0	0	1514605.0369375	1514605.037482	80	1514608.4221611	1514608.4226589	40	1514611.7138704	1514611.7143807	100	del	1514614.14166	nan	nan	nan	nan	nan
1534.20458984375	0.0	80	3142051	113	80	180	0	1	1514616.8713017	1514616.8717582	80	1514620.0122614	1514620.0127513	40	1514623.4026053	1514623.4031291	100	imm	1514624.0054101	nan	nan	nan	nan	nan
1537.345703125	0.0	40	3148484	113	80	180	0	1	1514616.8713017	1514616.8717582	80	1514620.0122614	1514620.0127513	40	1514623.4026053	1514623.4031291	100	imm	1514624.0054101	nan	nan	nan	nan	nan
1540.73583984375	0.0	100	3155427	113	80	180	0	1	1514616.8713017	1514616.8717582	80	1514620.0122614	1514620.0127513	40	1514623.4026053	1514623.4031291	100	imm	1514624.0054101	nan	nan	nan	nan	nan
1544.30517578125	0.0	80	3162737	114	90	300	1	0	1514626.9722445	1514626.9727416	80	1514630.343946	1514630.3444504	40	1514633.5615097	1514633.5620118	100	del	1514634.7820247	4.0	1514637.1818995	1514635.2953751	1514635.295872	120.0
1547.6767578125	0.0	40	3169642	114	90	300	1	0	1514626.9722445	1514626.9727416	80	1514630.343946	1514630.3444504	40	1514633.5615097	1514633.5620118	100	del	1514634.7820247	4.0	1514637.1818995	1514635.2953751	1514635.295872	120.0
1550.89453125	0.0	100	3176232	114	90	300	1	0	1514626.9722445	1514626.9727416	80	1514630.343946	1514630.3444504	40	1514633.5615097	1514633.5620118	100	del	1514634.7820247	4.0	1514637.1818995	1514635.2953751	1514635.295872	120.0
1552.62841796875	0.0	120	3179783	114	90	300	1	0	1514626.9722445	1514626.9727416	80	1514630.343946	1514630.3444504	40	1514633.5615097	1514633.5620118	100	del	1514634.7820247	4.0	1514637.1818995	1514635.2953751	1514635.295872	120.0
1557.00048828125	0.0	80	3188737	115	90	180	0	0	1514639.6674224	1514639.6679529	80	1514642.8027628	1514642.8032717	40	1514646.0834104	1514646.0839492	100	na	1514652.2294417	nan	nan	nan	nan	nan
1560.1357421875	0.0	40	3195158	115	90	180	0	0	1514639.6674224	1514639.6679529	80	1514642.8027628	1514642.8032717	40	1514646.0834104	1514646.0839492	100	na	1514652.2294417	nan	nan	nan	nan	nan
1563.416015625	0.0	100	3201876	115	90	180	0	0	1514639.6674224	1514639.6679529	80	1514642.8027628	1514642.8032717	40	1514646.0834104	1514646.0839492	100	na	1514652.2294417	nan	nan	nan	nan	nan
1572.556640625	0.0	80	3220596	116	63	300	1	0	1514655.224444	1514655.2249244	80	1514658.3665525	1514658.3669819	40	1514661.5068529	1514661.5072974	100	del	1514665.2693438	3.0	1514666.5413403	1514665.782362	1514665.782845	120.0
1575.69873046875	0.0	40	3227031	116	63	300	1	0	1514655.224444	1514655.2249244	80	1514658.3665525	1514658.3669819	40	1514661.5068529	1514661.5072974	100	del	1514665.2693438	3.0	1514666.5413403	1514665.782362	1514665.782845	120.0
1578.83935546875	0.0	100	3233463	116	63	300	1	0	1514655.224444	1514655.2249244	80	1514658.3665525	1514658.3669819	40	1514661.5068529	1514661.5072974	100	del	1514665.2693438	3.0	1514666.5413403	1514665.782362	1514665.782845	120.0
1583.11474609375	0.0	120	3242219	116	63	300	1	0	1514655.224444	1514655.2249244	80	1514658.3665525	1514658.3669819	40	1514661.5068529	1514661.5072974	100	del	1514665.2693438	3.0	1514666.5413403	1514665.782362	1514665.782845	120.0
1586.353515625	0.0	80	3248852	117	93	1000	0	0	1514669.0215532	1514669.0220516	80	1514672.0642141	1514672.0647107	40	1514675.2271321	1514675.2277078	100	imm	1514678.4298531	nan	nan	nan	nan	nan
1589.39599609375	0.0	40	3255083	117	93	1000	0	0	1514669.0215532	1514669.0220516	80	1514672.0642141	1514672.0647107	40	1514675.2271321	1514675.2277078	100	imm	1514678.4298531	nan	nan	nan	nan	nan
1592.55908203125	0.0	100	3261561	117	93	1000	0	0	1514669.0215532	1514669.0220516	80	1514672.0642141	1514672.0647107	40	1514675.2271321	1514675.2277078	100	imm	1514678.4298531	nan	nan	nan	nan	nan
1598.57470703125	0.0	80	3273881	118	97	670	1	0	1514681.2427462	1514681.2432835	80	1514684.3519048	1514684.3524013	40	1514687.6834127	1514687.6839068	100	del	1514688.3098219	3.0	1514690.0214221	1514688.820531	1514688.8209078	120.0
1601.68359375	0.0	40	3280248	118	97	670	1	0	1514681.2427462	1514681.2432835	80	1514684.3519048	1514684.3524013	40	1514687.6834127	1514687.6839068	100	del	1514688.3098219	3.0	1514690.0214221	1514688.820531	1514688.8209078	120.0
1605.01513671875	0.0	100	3287071	118	97	670	1	0	1514681.2427462	1514681.2432835	80	1514684.3519048	1514684.3524013	40	1514687.6834127	1514687.6839068	100	del	1514688.3098219	3.0	1514690.0214221	1514688.820531	1514688.8209078	120.0
1606.15185546875	0.0	120	3289399	118	97	670	1	0	1514681.2427462	1514681.2432835	80	1514684.3519048	1514684.3524013	40	1514687.6834127	1514687.6839068	100	del	1514688.3098219	3.0	1514690.0214221	1514688.820531	1514688.8209078	120.0
1609.7666015625	0.0	80	3296802	119	70	180	0	0	1514692.4353526	1514692.4358064	80	1514695.6941921	1514695.6946568	40	1514699.0329255	1514699.03339	100	del	1514699.6943703	nan	nan	nan	nan	nan
1613.025390625	0.0	40	3303476	119	70	180	0	0	1514692.4353526	1514692.4358064	80	1514695.6941921	1514695.6946568	40	1514699.0329255	1514699.03339	100	del	1514699.6943703	nan	nan	nan	nan	nan
1616.3642578125	0.0	100	3310314	119	70	180	0	0	1514692.4353526	1514692.4358064	80	1514695.6941921	1514695.6946568	40	1514699.0329255	1514699.03339	100	del	1514699.6943703	nan	nan	nan	nan	nan
1619.94091796875	0.0	80	3317639	120	90	100	1	1	1514702.6097498	1514702.6101853	80	1514705.7334858	1514705.7339331	40	1514709.0473517	1514709.0478462	100	na	1514713.022061	3.0	1514714.686963	1514713.5316088	1514713.5319375	120.0
1623.064453125	0.0	40	3324036	120	90	100	1	1	1514702.6097498	1514702.6101853	80	1514705.7334858	1514705.7339331	40	1514709.0473517	1514709.0478462	100	na	1514713.022061	3.0	1514714.686963	1514713.5316088	1514713.5319375	120.0
1626.37841796875	0.0	100	3330823	120	90	100	1	1	1514702.6097498	1514702.6101853	80	1514705.7334858	1514705.7339331	40	1514709.0473517	1514709.0478462	100	na	1514713.022061	3.0	1514714.686963	1514713.5316088	1514713.5319375	120.0
1630.8623046875	0.0	120	3340006	120	90	100	1	1	1514702.6097498	1514702.6101853	80	1514705.7334858	1514705.7339331	40	1514709.0473517	1514709.0478462	100	na	1514713.022061	3.0	1514714.686963	1514713.5316088	1514713.5319375	120.0
1682.7041015625	0.0	80	3446178	121	67	670	1	1	1514765.3742918	1514765.3747215	80	1514768.6398056	1514768.6402724	40	1514772.0730518	1514772.0735825	100	imm	1514774.6131298	4.0	1514776.1491952	1514775.1225697	1514775.122935	120.0
1685.96923828125	0.0	40	3452865	121	67	670	1	1	1514765.3742918	1514765.3747215	80	1514768.6398056	1514768.6402724	40	1514772.0730518	1514772.0735825	100	imm	1514774.6131298	4.0	1514776.1491952	1514775.1225697	1514775.122935	120.0
1689.40234375	0.0	100	3459896	121	67	670	1	1	1514765.3742918	1514765.3747215	80	1514768.6398056	1514768.6402724	40	1514772.0730518	1514772.0735825	100	imm	1514774.6131298	4.0	1514776.1491952	1514775.1225697	1514775.122935	120.0
1692.4521484375	0.0	120	3466142	121	67	670	1	1	1514765.3742918	1514765.3747215	80	1514768.6398056	1514768.6402724	40	1514772.0730518	1514772.0735825	100	imm	1514774.6131298	4.0	1514776.1491952	1514775.1225697	1514775.122935	120.0
1695.953125	0.0	80	3473312	122	73	1000	0	0	1514778.6238899	1514778.6243577	80	1514781.8808104	1514781.8814092	40	1514785.0335216	1514785.0340372	100	imm	1514785.67089	nan	nan	nan	nan	nan
1699.21044921875	0.0	40	3479983	122	73	1000	0	0	1514778.6238899	1514778.6243577	80	1514781.8808104	1514781.8814092	40	1514785.0335216	1514785.0340372	100	imm	1514785.67089	nan	nan	nan	nan	nan
1702.36279296875	0.0	100	3486439	122	73	1000	0	0	1514778.6238899	1514778.6243577	80	1514781.8808104	1514781.8814092	40	1514785.0335216	1514785.0340372	100	imm	1514785.67089	nan	nan	nan	nan	nan
1705.84326171875	0.0	80	3493567	123	53	75	1	1	1514788.5140353	1514788.5145531	80	1514791.9804678	1514791.9811758	40	1514795.2490813	1514795.2496134	100	imm	1514795.9171132	4.0	1514796.7504842	1514796.4271386	1514796.4276268	120.0
1709.3095703125	0.0	40	3500666	123	53	75	1	1	1514788.5140353	1514788.5145531	80	1514791.9804678	1514791.9811758	40	1514795.2490813	1514795.2496134	100	imm	1514795.9171132	4.0	1514796.7504842	1514796.4271386	1514796.4276268	120.0
1712.578125	0.0	100	3507360	123	53	75	1	1	1514788.5140353	1514788.5145531	80	1514791.9804678	1514791.9811758	40	1514795.2490813	1514795.2496134	100	imm	1514795.9171132	4.0	1514796.7504842	1514796.4271386	1514796.4276268	120.0
1713.755859375	0.0	120	3509772	123	53	75	1	1	1514788.5140353	1514788.5145531	80	1514791.9804678	1514791.9811758	40	1514795.2490813	1514795.2496134	100	imm	1514795.9171132	4.0	1514796.7504842	1514796.4271386	1514796.4276268	120.0
1716.58203125	0.0	80	3515560	124	87	300	1	1	1514799.253093	1514799.2535498	80	1514802.3592899	1514802.3597832	40	1514805.4242294	1514805.4245997	100	imm	1514807.3187383	3.0	1514808.4618585	1514807.8322066	1514807.8327058	120.0
1719.68798828125	0.0	40	3521921	124	87	300	1	1	1514799.253093	1514799.2535498	80	1514802.3592899	1514802.3597832	40	1514805.4242294	1514805.4245997	100	imm	1514807.3187383	3.0	1514808.4618585	1514807.8322066	1514807.8327058	120.0
1722.7529296875	0.0	100	3528198	124	87	300	1	1	1514799.253093	1514799.2535498	80	1514802.3592899	1514802.3597832	40	1514805.4242294	1514805.4245997	100	imm	1514807.3187383	3.0	1514808.4618585	1514807.8322066	1514807.8327058	120.0
1725.16064453125	0.0	120	3533129	124	87	300	1	1	1514799.253093	1514799.2535498	80	1514802.3592899	1514802.3597832	40	1514805.4242294	1514805.4245997	100	imm	1514807.3187383	3.0	1514808.4618585	1514807.8322066	1514807.8327058	120.0
1727.9560546875	0.0	80	3538854	125	80	30	0	0	1514810.6276661	1514810.628159	80	1514813.8318441	1514813.8321658	40	1514817.0550047	1514817.0554861	100	del	1514817.8137162	nan	nan	nan	nan	nan
1731.16015625	0.0	40	3545416	125	80	30	0	0	1514810.6276661	1514810.628159	80	1514813.8318441	1514813.8321658	40	1514817.0550047	1514817.0554861	100	del	1514817.8137162	nan	nan	nan	nan	nan
1734.38330078125	0.0	100	3552017	125	80	30	0	0	1514810.6276661	1514810.628159	80	1514813.8318441	1514813.8321658	40	1514817.0550047	1514817.0554861	100	del	1514817.8137162	nan	nan	nan	nan	nan
1737.81640625	0.0	80	3559048	126	77	90	0	1	1514820.4881301	1514820.4886061	80	1514823.8414004	1514823.8417593	40	1514826.9016736	1514826.9021348	100	del	1514827.7810319	nan	nan	nan	nan	nan
1741.16943359375	0.0	40	3565915	126	77	90	0	1	1514820.4881301	1514820.4886061	80	1514823.8414004	1514823.8417593	40	1514826.9016736	1514826.9021348	100	del	1514827.7810319	nan	nan	nan	nan	nan
1744.22998046875	0.0	100	3572183	126	77	90	0	1	1514820.4881301	1514820.4886061	80	1514823.8414004	1514823.8417593	40	1514826.9016736	1514826.9021348	100	del	1514827.7810319	nan	nan	nan	nan	nan
1747.83154296875	0.0	80	3579559	127	83	100	1	0	1514830.50371	1514830.5041997	80	1514833.6583793	1514833.6588544	40	1514836.8257773	1514836.8263705	100	imm	1514841.7736028	2.0	1514843.5738283	1514842.2869102	1514842.2874408	120.0
1750.986328125	0.0	40	3586020	127	83	100	1	0	1514830.50371	1514830.5041997	80	1514833.6583793	1514833.6588544	40	1514836.8257773	1514836.8263705	100	imm	1514841.7736028	2.0	1514843.5738283	1514842.2869102	1514842.2874408	120.0
1754.15380859375	0.0	100	3592507	127	83	100	1	0	1514830.50371	1514830.5041997	80	1514833.6583793	1514833.6588544	40	1514836.8257773	1514836.8263705	100	imm	1514841.7736028	2.0	1514843.5738283	1514842.2869102	1514842.2874408	120.0
1759.61474609375	0.0	120	3603691	127	83	100	1	0	1514830.50371	1514830.5041997	80	1514833.6583793	1514833.6588544	40	1514836.8257773	1514836.8263705	100	imm	1514841.7736028	2.0	1514843.5738283	1514842.2869102	1514842.2874408	120.0
1762.966796875	0.0	80	3610556	128	50	1000	0	1	1514845.6392681	1514845.6395632	80	1514848.9449819	1514848.9455364	40	1514852.0996476	1514852.1001763	100	imm	1514852.8930883	nan	nan	nan	nan	nan
1766.2724609375	0.0	40	3617326	128	50	1000	0	1	1514845.6392681	1514845.6395632	80	1514848.9449819	1514848.9455364	40	1514852.0996476	1514852.1001763	100	imm	1514852.8930883	nan	nan	nan	nan	nan
1769.42724609375	0.0	100	3623787	128	50	1000	0	1	1514845.6392681	1514845.6395632	80	1514848.9449819	1514848.9455364	40	1514852.0996476	1514852.1001763	100	imm	1514852.8930883	nan	nan	nan	nan	nan
1772.81591796875	0.0	80	3630727	129	77	180	0	0	1514855.4884065	1514855.4888792	80	1514858.496761	1514858.497279	40	1514861.6515388	1514861.6520104	100	del	1514862.4930047	nan	nan	nan	nan	nan
1775.82421875	0.0	40	3636888	129	77	180	0	0	1514855.4884065	1514855.4888792	80	1514858.496761	1514858.497279	40	1514861.6515388	1514861.6520104	100	del	1514862.4930047	nan	nan	nan	nan	nan
1778.97900390625	0.0	100	3643349	129	77	180	0	0	1514855.4884065	1514855.4888792	80	1514858.496761	1514858.497279	40	1514861.6515388	1514861.6520104	100	del	1514862.4930047	nan	nan	nan	nan	nan
1782.609375	0.0	80	3650784	130	93	300	1	0	1514865.2822035	1514865.2825858	80	1514868.7254843	1514868.7259082	40	1514871.7603581	1514871.7608248	100	del	1514872.8931368	4.0	1514873.8137972	1514873.4065697	1514873.4070421	120.0
1786.052734375	0.0	40	3657836	130	93	300	1	0	1514865.2822035	1514865.2825858	80	1514868.7254843	1514868.7259082	40	1514871.7603581	1514871.7608248	100	del	1514872.8931368	4.0	1514873.8137972	1514873.4065697	1514873.4070421	120.0
1789.08740234375	0.0	100	3664051	130	93	300	1	0	1514865.2822035	1514865.2825858	80	1514868.7254843	1514868.7259082	40	1514871.7603581	1514871.7608248	100	del	1514872.8931368	4.0	1514873.8137972	1514873.4065697	1514873.4070421	120.0
1790.7333984375	0.0	120	3667422	130	93	300	1	0	1514865.2822035	1514865.2825858	80	1514868.7254843	1514868.7259082	40	1514871.7603581	1514871.7608248	100	del	1514872.8931368	4.0	1514873.8137972	1514873.4065697	1514873.4070421	120.0
1793.60546875	0.0	80	3673304	131	93	450	0	0	1514876.2784364	1514876.2787652	80	1514879.3499191	1514879.3502088	40	1514882.7794346	1514882.7798994	100	na	1514886.0454338	nan	nan	nan	nan	nan
1796.6767578125	0.0	40	3679594	131	93	450	0	0	1514876.2784364	1514876.2787652	80	1514879.3499191	1514879.3502088	40	1514882.7794346	1514882.7798994	100	na	1514886.0454338	nan	nan	nan	nan	nan
1800.1064453125	0.0	100	3686618	131	93	450	0	0	1514876.2784364	1514876.2787652	80	1514879.3499191	1514879.3502088	40	1514882.7794346	1514882.7798994	100	na	1514886.0454338	nan	nan	nan	nan	nan
1806.29052734375	0.0	80	3699283	132	93	100	1	0	1514888.9637597	1514888.9642182	80	1514892.4303805	1514892.4308692	40	1514895.5118565	1514895.5123428	100	del	1514897.7495476	3.0	1514899.7407481	1514898.2630237	1514898.2634817	120.0
1809.7568359375	0.0	40	3706382	132	93	100	1	0	1514888.9637597	1514888.9642182	80	1514892.4303805	1514892.4308692	40	1514895.5118565	1514895.5123428	100	del	1514897.7495476	3.0	1514899.7407481	1514898.2630237	1514898.2634817	120.0
1812.83837890625	0.0	100	3712693	132	93	100	1	0	1514888.9637597	1514888.9642182	80	1514892.4303805	1514892.4308692	40	1514895.5118565	1514895.5123428	100	del	1514897.7495476	3.0	1514899.7407481	1514898.2630237	1514898.2634817	120.0
1815.58935546875	0.0	120	3718327	132	93	100	1	0	1514888.9637597	1514888.9642182	80	1514892.4303805	1514892.4308692	40	1514895.5118565	1514895.5123428	100	del	1514897.7495476	3.0	1514899.7407481	1514898.2630237	1514898.2634817	120.0
1819.3330078125	0.0	80	3725994	133	50	670	1	0	1514902.0069426	1514902.0072871	80	1514905.2147236	1514905.2149752	40	1514908.3101268	1514908.3103848	100	imm	1514909.5506408	4.0	1514911.8542878	1514910.0625825	1514910.0629755	120.0
1822.541015625	0.0	40	3732564	133	50	670	1	0	1514902.0069426	1514902.0072871	80	1514905.2147236	1514905.2149752	40	1514908.3101268	1514908.3103848	100	imm	1514909.5506408	4.0	1514911.8542878	1514910.0625825	1514910.0629755	120.0
1825.63623046875	0.0	100	3738903	133	50	670	1	0	1514902.0069426	1514902.0072871	80	1514905.2147236	1514905.2149752	40	1514908.3101268	1514908.3103848	100	imm	1514909.5506408	4.0	1514911.8542878	1514910.0625825	1514910.0629755	120.0
