onset	duration	value	sample	trial_idx	val	del	is_cued	rev_opts	del_pres_displaytime	del_pres_triggertime	del_pres_triggercode	val_pres_displaytime	val_pres_triggertime	val_pres_triggercode	choice_displaytime	choice_triggertime	choice_triggercode	choice	choice_time	viv_displaytime	viv_triggertime	viv_triggercode	viv	viv_time
47.46142578125	0.0	80	97201	1	97	800	1	0	1678225.0157431	1678225.0170834	80	1678228.2176446	1678228.2185351	40	1678231.347498	1678231.3485267	100	del	1678233.2553159	1678233.7770916	1678233.7780427	120.0	2.0	1678236.1422157
50.66357421875	0.0	40	103759	1	97	800	1	0	1678225.0157431	1678225.0170834	80	1678228.2176446	1678228.2185351	40	1678231.347498	1678231.3485267	100	del	1678233.2553159	1678233.7770916	1678233.7780427	120.0	2.0	1678236.1422157
53.79345703125	0.0	100	110169	1	97	800	1	0	1678225.0157431	1678225.0170834	80	1678228.2176446	1678228.2185351	40	1678231.347498	1678231.3485267	100	del	1678233.2553159	1678233.7770916	1678233.7780427	120.0	2.0	1678236.1422157
56.22265625	0.0	120	115144	1	97	800	1	0	1678225.0157431	1678225.0170834	80	1678228.2176446	1678228.2185351	40	1678231.347498	1678231.3485267	100	del	1678233.2553159	1678233.7770916	1678233.7780427	120.0	2.0	1678236.1422157
60.8505859375	0.0	80	124622	2	83	560	0	1	1678238.4051298	1678238.4059211	80	1678241.5836744	1678241.5843545	40	1678245.0755685	1678245.0762934	100	del	1678246.1653447	nan	nan	nan	nan	nan
64.029296875	0.0	40	131132	2	83	560	0	1	1678238.4051298	1678238.4059211	80	1678241.5836744	1678241.5843545	40	1678245.0755685	1678245.0762934	100	del	1678246.1653447	nan	nan	nan	nan	nan
67.521484375	0.0	100	138284	2	83	560	0	1	1678238.4051298	1678238.4059211	80	1678241.5836744	1678241.5843545	40	1678245.0755685	1678245.0762934	100	del	1678246.1653447	nan	nan	nan	nan	nan
71.5947265625	0.0	80	146626	3	53	280	0	0	1678249.1496968	1678249.1504362	80	1678252.1869188	1678252.1877229	40	1678255.5672045	1678255.5678111	100	del	1678257.237526	nan	nan	nan	nan	nan
74.6318359375	0.0	40	152846	3	53	280	0	0	1678249.1496968	1678249.1504362	80	1678252.1869188	1678252.1877229	40	1678255.5672045	1678255.5678111	100	del	1678257.237526	nan	nan	nan	nan	nan
78.0126953125	0.0	100	159770	3	53	280	0	0	1678249.1496968	1678249.1504362	80	1678252.1869188	1678252.1877229	40	1678255.5672045	1678255.5678111	100	del	1678257.237526	nan	nan	nan	nan	nan
82.3369140625	0.0	80	168626	4	63	380	1	1	1678259.8917568	1678259.8925731	80	1678263.1130437	1678263.1138093	40	1678266.4018419	1678266.4026482	100	del	1678267.5580143	1678268.0729687	1678268.0736864	120.0	3.0	1678270.613865
85.5576171875	0.0	40	175222	4	63	380	1	1	1678259.8917568	1678259.8925731	80	1678263.1130437	1678263.1138093	40	1678266.4018419	1678266.4026482	100	del	1678267.5580143	1678268.0729687	1678268.0736864	120.0	3.0	1678270.613865
88.8466796875	0.0	100	181958	4	63	380	1	1	1678259.8917568	1678259.8925731	80	1678263.1130437	1678263.1138093	40	1678266.4018419	1678266.4026482	100	del	1678267.5580143	1678268.0729687	1678268.0736864	120.0	3.0	1678270.613865
90.51806640625	0.0	120	185381	4	63	380	1	1	1678259.8917568	1678259.8925731	80	1678263.1130437	1678263.1138093	40	1678266.4018419	1678266.4026482	100	del	1678267.5580143	1678268.0729687	1678268.0736864	120.0	3.0	1678270.613865
95.55517578125	0.0	80	195697	5	83	200	1	1	1678273.1102307	1678273.1126806	80	1678276.3350325	1678276.3374607	40	1678279.8478324	1678279.8509665	100	del	1678281.5100204	1678282.0258354	1678282.0266004	120.0	3.0	1678283.8540377
98.77978515625	0.0	40	202301	5	83	200	1	1	1678273.1102307	1678273.1126806	80	1678276.3350325	1678276.3374607	40	1678279.8478324	1678279.8509665	100	del	1678281.5100204	1678282.0258354	1678282.0266004	120.0	3.0	1678283.8540377
102.29248046875	0.0	100	209495	5	83	200	1	1	1678273.1102307	1678273.1126806	80	1678276.3350325	1678276.3374607	40	1678279.8478324	1678279.8509665	100	del	1678281.5100204	1678282.0258354	1678282.0266004	120.0	3.0	1678283.8540377
104.47021484375	0.0	120	213955	5	83	200	1	1	1678273.1102307	1678273.1126806	80	1678276.3350325	1678276.3374607	40	1678279.8478324	1678279.8509665	100	del	1678281.5100204	1678282.0258354	1678282.0266004	120.0	3.0	1678283.8540377
108.47509765625	0.0	80	222157	6	100	380	1	1	1678286.0301349	1678286.0308151	80	1678289.389082	1678289.3897972	40	1678292.7370448	1678292.7375936	100	del	1678294.6702168	1678295.1848249	1678295.1856022	120.0	3.0	1678297.173239
111.83349609375	0.0	40	229035	6	100	380	1	1	1678286.0301349	1678286.0308151	80	1678289.389082	1678289.3897972	40	1678292.7370448	1678292.7375936	100	del	1678294.6702168	1678295.1848249	1678295.1856022	120.0	3.0	1678297.173239
115.181640625	0.0	100	235892	6	100	380	1	1	1678286.0301349	1678286.0308151	80	1678289.389082	1678289.3897972	40	1678292.7370448	1678292.7375936	100	del	1678294.6702168	1678295.1848249	1678295.1856022	120.0	3.0	1678297.173239
117.62890625	0.0	120	240904	6	100	380	1	1	1678286.0301349	1678286.0308151	80	1678289.389082	1678289.3897972	40	1678292.7370448	1678292.7375936	100	del	1678294.6702168	1678295.1848249	1678295.1856022	120.0	3.0	1678297.173239
121.904296875	0.0	80	249660	7	97	380	1	0	1678299.4600412	1678299.4605286	80	1678302.818052	1678302.8185275	40	1678306.1670768	1678306.1676516	100	del	1678308.0631797	1678308.5784538	1678308.5812276	120.0	3.0	1678309.5269061
125.26220703125	0.0	40	256537	7	97	380	1	0	1678299.4600412	1678299.4605286	80	1678302.818052	1678302.8185275	40	1678306.1670768	1678306.1676516	100	del	1678308.0631797	1678308.5784538	1678308.5812276	120.0	3.0	1678309.5269061
128.611328125	0.0	100	263396	7	97	380	1	0	1678299.4600412	1678299.4605286	80	1678302.818052	1678302.8185275	40	1678306.1670768	1678306.1676516	100	del	1678308.0631797	1678308.5784538	1678308.5812276	120.0	3.0	1678309.5269061
131.0224609375	0.0	120	268334	7	97	380	1	0	1678299.4600412	1678299.4605286	80	1678302.818052	1678302.8185275	40	1678306.1670768	1678306.1676516	100	del	1678308.0631797	1678308.5784538	1678308.5812276	120.0	3.0	1678309.5269061
134.0771484375	0.0	80	274590	8	83	800	1	1	1678311.6333003	1678311.6337437	80	1678314.7050672	1678314.705677	40	1678318.2201294	1678318.2206052	100	del	1678319.0857356	1678319.6004119	1678319.6008055	120.0	3.0	1678320.9739876
137.14892578125	0.0	40	280881	8	83	800	1	1	1678311.6333003	1678311.6337437	80	1678314.7050672	1678314.705677	40	1678318.2201294	1678318.2206052	100	del	1678319.0857356	1678319.6004119	1678319.6008055	120.0	3.0	1678320.9739876
140.6640625	0.0	100	288080	8	83	800	1	1	1678311.6333003	1678311.6337437	80	1678314.7050672	1678314.705677	40	1678318.2201294	1678318.2206052	100	del	1678319.0857356	1678319.6004119	1678319.6008055	120.0	3.0	1678320.9739876
142.0439453125	0.0	120	290906	8	83	800	1	1	1678311.6333003	1678311.6337437	80	1678314.7050672	1678314.705677	40	1678318.2201294	1678318.2206052	100	del	1678319.0857356	1678319.6004119	1678319.6008055	120.0	3.0	1678320.9739876
145.5205078125	0.0	80	298026	9	100	560	0	0	1678323.0768507	1678323.0779141	80	1678326.1013223	1678326.1018158	40	1678329.3959622	1678329.3964297	100	del	1678330.9018661	nan	nan	nan	nan	nan
148.544921875	0.0	40	304220	9	100	560	0	0	1678323.0768507	1678323.0779141	80	1678326.1013223	1678326.1018158	40	1678329.3959622	1678329.3964297	100	del	1678330.9018661	nan	nan	nan	nan	nan
151.83935546875	0.0	100	310967	9	100	560	0	0	1678323.0768507	1678323.0779141	80	1678326.1013223	1678326.1018158	40	1678329.3959622	1678329.3964297	100	del	1678330.9018661	nan	nan	nan	nan	nan
156.306640625	0.0	80	320116	10	70	20	0	1	1678333.8630656	1678333.8636417	80	1678337.2056202	1678337.2062012	40	1678340.315667	1678340.3168952	100	del	1678341.7814124	nan	nan	nan	nan	nan
159.64892578125	0.0	40	326961	10	70	20	0	1	1678333.8630656	1678333.8636417	80	1678337.2056202	1678337.2062012	40	1678340.315667	1678340.3168952	100	del	1678341.7814124	nan	nan	nan	nan	nan
162.7587890625	0.0	100	333330	10	70	20	0	1	1678333.8630656	1678333.8636417	80	1678337.2056202	1678337.2062012	40	1678340.315667	1678340.3168952	100	del	1678341.7814124	nan	nan	nan	nan	nan
166.92919921875	0.0	80	341871	11	73	800	1	1	1678344.486299	1678344.4867922	80	1678347.7257628	1678347.7262861	40	1678351.2304723	1678351.2309818	100	del	1678352.9106417	1678353.4252279	1678353.4257347	120.0	3.0	1678354.8939597
170.1689453125	0.0	40	348506	11	73	800	1	1	1678344.486299	1678344.4867922	80	1678347.7257628	1678347.7262861	40	1678351.2304723	1678351.2309818	100	del	1678352.9106417	1678353.4252279	1678353.4257347	120.0	3.0	1678354.8939597
173.67333984375	0.0	100	355683	11	73	800	1	1	1678344.486299	1678344.4867922	80	1678347.7257628	1678347.7262861	40	1678351.2304723	1678351.2309818	100	del	1678352.9106417	1678353.4252279	1678353.4257347	120.0	3.0	1678354.8939597
175.8681640625	0.0	120	360178	11	73	800	1	1	1678344.486299	1678344.4867922	80	1678347.7257628	1678347.7262861	40	1678351.2304723	1678351.2309818	100	del	1678352.9106417	1678353.4252279	1678353.4257347	120.0	3.0	1678354.8939597
179.43115234375	0.0	80	367475	12	50	200	1	1	1678356.9882976	1678356.9887569	80	1678360.4243547	1678360.4252512	40	1678363.7620088	1678363.7625246	100	del	1678366.6853429	1678367.1991317	1678367.1996237	120.0	3.0	1678368.4780594
182.86669921875	0.0	40	374511	12	50	200	1	1	1678356.9882976	1678356.9887569	80	1678360.4243547	1678360.4252512	40	1678363.7620088	1678363.7625246	100	del	1678366.6853429	1678367.1991317	1678367.1996237	120.0	3.0	1678368.4780594
186.20458984375	0.0	100	381347	12	50	200	1	1	1678356.9882976	1678356.9887569	80	1678360.4243547	1678360.4252512	40	1678363.7620088	1678363.7625246	100	del	1678366.6853429	1678367.1991317	1678367.1996237	120.0	3.0	1678368.4780594
189.6416015625	0.0	120	388386	12	50	200	1	1	1678356.9882976	1678356.9887569	80	1678360.4243547	1678360.4252512	40	1678363.7620088	1678363.7625246	100	del	1678366.6853429	1678367.1991317	1678367.1996237	120.0	3.0	1678368.4780594
193.125	0.0	80	395520	13	50	1150	0	1	1678370.6824742	1678370.6828979	80	1678373.7856778	1678373.7862215	40	1678377.0075422	1678377.0077242	100	del	1678378.069836	nan	nan	nan	nan	nan
196.22802734375	0.0	40	401875	13	50	1150	0	1	1678370.6824742	1678370.6828979	80	1678373.7856778	1678373.7862215	40	1678377.0075422	1678377.0077242	100	del	1678378.069836	nan	nan	nan	nan	nan
199.4501953125	0.0	100	408474	13	50	1150	0	1	1678370.6824742	1678370.6828979	80	1678373.7856778	1678373.7862215	40	1678377.0075422	1678377.0077242	100	del	1678378.069836	nan	nan	nan	nan	nan
203.2646484375	0.0	80	416286	14	90	200	1	1	1678380.822109	1678380.8223063	80	1678383.8903074	1678383.8908229	40	1678387.19815	1678387.1986734	100	del	1678388.1669379	1678388.680804	1678388.6813163	120.0	3.0	1678392.4060413
206.33251953125	0.0	40	422569	14	90	200	1	1	1678380.822109	1678380.8223063	80	1678383.8903074	1678383.8908229	40	1678387.19815	1678387.1986734	100	del	1678388.1669379	1678388.680804	1678388.6813163	120.0	3.0	1678392.4060413
209.64013671875	0.0	100	429343	14	90	200	1	1	1678380.822109	1678380.8223063	80	1678383.8903074	1678383.8908229	40	1678387.19815	1678387.1986734	100	del	1678388.1669379	1678388.680804	1678388.6813163	120.0	3.0	1678392.4060413
211.12255859375	0.0	120	432379	14	90	200	1	1	1678380.822109	1678380.8223063	80	1678383.8903074	1678383.8908229	40	1678387.19815	1678387.1986734	100	del	1678388.1669379	1678388.680804	1678388.6813163	120.0	3.0	1678392.4060413
216.9765625	0.0	80	444368	15	100	1150	0	1	1678394.5349899	1678394.5357609	80	1678397.7343341	1678397.7347462	40	1678401.0395766	1678401.0400404	100	del	1678401.8054988	nan	nan	nan	nan	nan
220.17626953125	0.0	40	450921	15	100	1150	0	1	1678394.5349899	1678394.5357609	80	1678397.7343341	1678397.7347462	40	1678401.0395766	1678401.0400404	100	del	1678401.8054988	nan	nan	nan	nan	nan
223.4814453125	0.0	100	457690	15	100	1150	0	1	1678394.5349899	1678394.5357609	80	1678397.7343341	1678397.7347462	40	1678401.0395766	1678401.0400404	100	del	1678401.8054988	nan	nan	nan	nan	nan
226.89111328125	0.0	80	464673	16	100	200	1	1	1678404.4496509	1678404.4501531	80	1678407.6029677	1678407.603444	40	1678410.9269885	1678410.9274984	100	del	1678412.3496217	1678412.8627494	1678412.8632837	120.0	3.0	1678414.5988835
230.04443359375	0.0	40	471131	16	100	200	1	1	1678404.4496509	1678404.4501531	80	1678407.6029677	1678407.603444	40	1678410.9269885	1678410.9274984	100	del	1678412.3496217	1678412.8627494	1678412.8632837	120.0	3.0	1678414.5988835
233.36865234375	0.0	100	477939	16	100	200	1	1	1678404.4496509	1678404.4501531	80	1678407.6029677	1678407.603444	40	1678410.9269885	1678410.9274984	100	del	1678412.3496217	1678412.8627494	1678412.8632837	120.0	3.0	1678414.5988835
235.30419921875	0.0	120	481903	16	100	200	1	1	1678404.4496509	1678404.4501531	80	1678407.6029677	1678407.603444	40	1678410.9269885	1678410.9274984	100	del	1678412.3496217	1678412.8627494	1678412.8632837	120.0	3.0	1678414.5988835
239.18896484375	0.0	80	489859	17	80	90	0	1	1678416.7474041	1678416.747914	80	1678420.1683056	1678420.1687384	40	1678423.6733225	1678423.6737933	100	del	1678426.0851421	nan	nan	nan	nan	nan
242.609375	0.0	40	496864	17	80	90	0	1	1678416.7474041	1678416.747914	80	1678420.1683056	1678420.1687384	40	1678423.6733225	1678423.6737933	100	del	1678426.0851421	nan	nan	nan	nan	nan
246.1142578125	0.0	100	504042	17	80	90	0	1	1678416.7474041	1678416.747914	80	1678420.1683056	1678420.1687384	40	1678423.6733225	1678423.6737933	100	del	1678426.0851421	nan	nan	nan	nan	nan
251.40966796875	0.0	80	514887	18	93	90	0	1	1678428.9687758	1678428.9692936	80	1678432.1488904	1678432.149413	40	1678435.4553041	1678435.4558223	100	del	1678436.4370931	nan	nan	nan	nan	nan
254.58984375	0.0	40	521400	18	93	90	0	1	1678428.9687758	1678428.9692936	80	1678432.1488904	1678432.149413	40	1678435.4553041	1678435.4558223	100	del	1678436.4370931	nan	nan	nan	nan	nan
257.89599609375	0.0	100	528171	18	93	90	0	1	1678428.9687758	1678428.9692936	80	1678432.1488904	1678432.149413	40	1678435.4553041	1678435.4558223	100	del	1678436.4370931	nan	nan	nan	nan	nan
261.45068359375	0.0	80	535451	19	73	1150	0	1	1678439.0100784	1678439.0105488	80	1678442.4709969	1678442.4714184	40	1678445.9213343	1678445.9217143	100	del	1678446.6129357	nan	nan	nan	nan	nan
264.91162109375	0.0	40	542539	19	73	1150	0	1	1678439.0100784	1678439.0105488	80	1678442.4709969	1678442.4714184	40	1678445.9213343	1678445.9217143	100	del	1678446.6129357	nan	nan	nan	nan	nan
268.36181640625	0.0	100	549605	19	73	1150	0	1	1678439.0100784	1678439.0105488	80	1678442.4709969	1678442.4714184	40	1678445.9213343	1678445.9217143	100	del	1678446.6129357	nan	nan	nan	nan	nan
271.98193359375	0.0	80	557019	20	97	200	1	0	1678449.5417173	1678449.5425787	80	1678452.6806851	1678452.68114	40	1678455.9917038	1678455.9922182	100	del	1678457.9257486	1678458.439801	1678458.4403129	120.0	3.0	1678463.6546817
275.12109375	0.0	40	563448	20	97	200	1	0	1678449.5417173	1678449.5425787	80	1678452.6806851	1678452.68114	40	1678455.9917038	1678455.9922182	100	del	1678457.9257486	1678458.439801	1678458.4403129	120.0	3.0	1678463.6546817
278.43212890625	0.0	100	570229	20	97	200	1	0	1678449.5417173	1678449.5425787	80	1678452.6806851	1678452.68114	40	1678455.9917038	1678455.9922182	100	del	1678457.9257486	1678458.439801	1678458.4403129	120.0	3.0	1678463.6546817
280.8798828125	0.0	120	575242	20	97	200	1	0	1678449.5417173	1678449.5425787	80	1678452.6806851	1678452.68114	40	1678455.9917038	1678455.9922182	100	del	1678457.9257486	1678458.439801	1678458.4403129	120.0	3.0	1678463.6546817
302.24609375	0.0	80	619000	21	57	1150	0	1	1678479.8061417	1678479.8066571	80	1678483.0279516	1678483.028443	40	1678486.1982818	1678486.1987187	100	imm	1678489.1267275	nan	nan	nan	nan	nan
305.4677734375	0.0	40	625598	21	57	1150	0	1	1678479.8061417	1678479.8066571	80	1678483.0279516	1678483.028443	40	1678486.1982818	1678486.1987187	100	imm	1678489.1267275	nan	nan	nan	nan	nan
308.6376953125	0.0	100	632090	21	57	1150	0	1	1678479.8061417	1678479.8066571	80	1678483.0279516	1678483.028443	40	1678486.1982818	1678486.1987187	100	imm	1678489.1267275	nan	nan	nan	nan	nan
314.16552734375	0.0	80	643411	22	100	800	1	1	1678491.7258991	1678491.7264167	80	1678494.8240465	1678494.8248177	40	1678498.0497598	1678498.0502546	100	imm	1678500.2137642	1678500.7275702	1678500.7281652	120.0	3.0	1678513.1330943
317.26318359375	0.0	40	649755	22	100	800	1	1	1678491.7258991	1678491.7264167	80	1678494.8240465	1678494.8248177	40	1678498.0497598	1678498.0502546	100	imm	1678500.2137642	1678500.7275702	1678500.7281652	120.0	3.0	1678513.1330943
320.4892578125	0.0	100	656362	22	100	800	1	1	1678491.7258991	1678491.7264167	80	1678494.8240465	1678494.8248177	40	1678498.0497598	1678498.0502546	100	imm	1678500.2137642	1678500.7275702	1678500.7281652	120.0	3.0	1678513.1330943
323.1669921875	0.0	120	661846	22	100	800	1	1	1678491.7258991	1678491.7264167	80	1678494.8240465	1678494.8248177	40	1678498.0497598	1678498.0502546	100	imm	1678500.2137642	1678500.7275702	1678500.7281652	120.0	3.0	1678513.1330943
337.6357421875	0.0	80	691478	23	87	560	0	1	1678515.1967046	1678515.1971902	80	1678518.5038383	1678518.5044027	40	1678521.752766	1678521.7532209	100	del	1678522.7024628	nan	nan	nan	nan	nan
340.94287109375	0.0	40	698251	23	87	560	0	1	1678515.1967046	1678515.1971902	80	1678518.5038383	1678518.5044027	40	1678521.752766	1678521.7532209	100	del	1678522.7024628	nan	nan	nan	nan	nan
344.19140625	0.0	100	704904	23	87	560	0	1	1678515.1967046	1678515.1971902	80	1678518.5038383	1678518.5044027	40	1678521.752766	1678521.7532209	100	del	1678522.7024628	nan	nan	nan	nan	nan
348.00830078125	0.0	80	712721	24	63	90	0	1	1678525.5695589	1678525.5700275	80	1678528.9271656	1678528.9276537	40	1678532.2603857	1678532.2608753	100	del	1678532.9170906	nan	nan	nan	nan	nan
351.36572265625	0.0	40	719597	24	63	90	0	1	1678525.5695589	1678525.5700275	80	1678528.9271656	1678528.9276537	40	1678532.2603857	1678532.2608753	100	del	1678532.9170906	nan	nan	nan	nan	nan
354.69873046875	0.0	100	726423	24	63	90	0	1	1678525.5695589	1678525.5700275	80	1678528.9271656	1678528.9276537	40	1678532.2603857	1678532.2608753	100	del	1678532.9170906	nan	nan	nan	nan	nan
357.890625	0.0	80	732960	25	77	800	1	0	1678535.4518611	1678535.4525054	80	1678538.4928291	1678538.4930909	40	1678541.665644	1678541.6661024	100	del	1678542.8223207	1678543.3364095	1678543.3370107	120.0	1.0	1678550.1175006
360.93115234375	0.0	40	739187	25	77	800	1	0	1678535.4518611	1678535.4525054	80	1678538.4928291	1678538.4930909	40	1678541.665644	1678541.6661024	100	del	1678542.8223207	1678543.3364095	1678543.3370107	120.0	1.0	1678550.1175006
364.10400390625	0.0	100	745685	25	77	800	1	0	1678535.4518611	1678535.4525054	80	1678538.4928291	1678538.4930909	40	1678541.665644	1678541.6661024	100	del	1678542.8223207	1678543.3364095	1678543.3370107	120.0	1.0	1678550.1175006
365.7744140625	0.0	120	749106	25	77	800	1	0	1678535.4518611	1678535.4525054	80	1678538.4928291	1678538.4930909	40	1678541.665644	1678541.6661024	100	del	1678542.8223207	1678543.3364095	1678543.3370107	120.0	1.0	1678550.1175006
374.8369140625	0.0	80	767666	26	80	380	1	1	1678552.3988982	1678552.399365	80	1678555.7346937	1678555.7352096	40	1678558.9524015	1678558.9529255	100	del	1678562.2849129	1678562.7985463	1678562.799036	120.0	3.0	1678564.3264289
378.17236328125	0.0	40	774497	26	80	380	1	1	1678552.3988982	1678552.399365	80	1678555.7346937	1678555.7352096	40	1678558.9524015	1678558.9529255	100	del	1678562.2849129	1678562.7985463	1678562.799036	120.0	3.0	1678564.3264289
381.39013671875	0.0	100	781087	26	80	380	1	1	1678552.3988982	1678552.399365	80	1678555.7346937	1678555.7352096	40	1678558.9524015	1678558.9529255	100	del	1678562.2849129	1678562.7985463	1678562.799036	120.0	3.0	1678564.3264289
385.236328125	0.0	120	788964	26	80	380	1	1	1678552.3988982	1678552.399365	80	1678555.7346937	1678555.7352096	40	1678558.9524015	1678558.9529255	100	del	1678562.2849129	1678562.7985463	1678562.799036	120.0	3.0	1678564.3264289
389.1904296875	0.0	80	797062	27	63	20	0	0	1678566.7529385	1678566.7533781	80	1678570.1185603	1678570.118869	40	1678573.6167926	1678573.6172635	100	imm	1678574.9086312	nan	nan	nan	nan	nan
392.55615234375	0.0	40	803955	27	63	20	0	0	1678566.7529385	1678566.7533781	80	1678570.1185603	1678570.118869	40	1678573.6167926	1678573.6172635	100	imm	1678574.9086312	nan	nan	nan	nan	nan
396.05419921875	0.0	100	811119	27	63	20	0	0	1678566.7529385	1678566.7533781	80	1678570.1185603	1678570.118869	40	1678573.6167926	1678573.6172635	100	imm	1678574.9086312	nan	nan	nan	nan	nan
400.1318359375	0.0	80	819470	28	73	90	0	0	1678577.6943591	1678577.6948087	80	1678580.8660697	1678580.8665049	40	1678583.9326701	1678583.9331697	100	del	1678585.509101	nan	nan	nan	nan	nan
403.30322265625	0.0	40	825965	28	73	90	0	0	1678577.6943591	1678577.6948087	80	1678580.8660697	1678580.8665049	40	1678583.9326701	1678583.9331697	100	del	1678585.509101	nan	nan	nan	nan	nan
406.36962890625	0.0	100	832245	28	73	90	0	0	1678577.6943591	1678577.6948087	80	1678580.8660697	1678580.8665049	40	1678583.9326701	1678583.9331697	100	del	1678585.509101	nan	nan	nan	nan	nan
410.77001953125	0.0	80	841257	29	60	20	0	0	1678588.3328864	1678588.3334012	80	1678591.7304695	1678591.7309929	40	1678594.9557824	1678594.9563269	100	del	1678595.7652035	nan	nan	nan	nan	nan
414.16748046875	0.0	40	848215	29	60	20	0	0	1678588.3328864	1678588.3334012	80	1678591.7304695	1678591.7309929	40	1678594.9557824	1678594.9563269	100	del	1678595.7652035	nan	nan	nan	nan	nan
417.392578125	0.0	100	854820	29	60	20	0	0	1678588.3328864	1678588.3334012	80	1678591.7304695	1678591.7309929	40	1678594.9557824	1678594.9563269	100	del	1678595.7652035	nan	nan	nan	nan	nan
420.7666015625	0.0	80	861730	30	60	90	0	1	1678598.3298717	1678598.3302859	80	1678601.4705768	1678601.471038	40	1678604.5607657	1678604.5612208	100	del	1678606.3726635	nan	nan	nan	nan	nan
423.9072265625	0.0	40	868162	30	60	90	0	1	1678598.3298717	1678598.3302859	80	1678601.4705768	1678601.471038	40	1678604.5607657	1678604.5612208	100	del	1678606.3726635	nan	nan	nan	nan	nan
426.99755859375	0.0	100	874491	30	60	90	0	1	1678598.3298717	1678598.3302859	80	1678601.4705768	1678601.471038	40	1678604.5607657	1678604.5612208	100	del	1678606.3726635	nan	nan	nan	nan	nan
431.46875	0.0	80	883648	31	60	560	0	1	1678609.0320037	1678609.0324781	80	1678612.2607297	1678612.2612627	40	1678615.5374469	1678615.5379319	100	del	1678616.3172699	nan	nan	nan	nan	nan
434.697265625	0.0	40	890260	31	60	560	0	1	1678609.0320037	1678609.0324781	80	1678612.2607297	1678612.2612627	40	1678615.5374469	1678615.5379319	100	del	1678616.3172699	nan	nan	nan	nan	nan
437.9736328125	0.0	100	896970	31	60	560	0	1	1678609.0320037	1678609.0324781	80	1678612.2607297	1678612.2612627	40	1678615.5374469	1678615.5379319	100	del	1678616.3172699	nan	nan	nan	nan	nan
441.5009765625	0.0	80	904194	32	53	35	1	1	1678619.0649037	1678619.065431	80	1678622.5108407	1678622.5113541	40	1678625.7837263	1678625.7848317	100	del	1678627.7891449	1678628.3033213	1678628.3037984	120.0	3.0	1678630.8076396
444.947265625	0.0	40	911252	32	53	35	1	1	1678619.0649037	1678619.065431	80	1678622.5108407	1678622.5113541	40	1678625.7837263	1678625.7848317	100	del	1678627.7891449	1678628.3033213	1678628.3037984	120.0	3.0	1678630.8076396
448.2197265625	0.0	100	917954	32	53	35	1	1	1678619.0649037	1678619.065431	80	1678622.5108407	1678622.5113541	40	1678625.7837263	1678625.7848317	100	del	1678627.7891449	1678628.3033213	1678628.3037984	120.0	3.0	1678630.8076396
450.7392578125	0.0	120	923114	32	53	35	1	1	1678619.0649037	1678619.065431	80	1678622.5108407	1678622.5113541	40	1678625.7837263	1678625.7848317	100	del	1678627.7891449	1678628.3033213	1678628.3037984	120.0	3.0	1678630.8076396
455.7314453125	0.0	80	933338	33	93	35	1	0	1678633.2953282	1678633.2957386	80	1678636.6217615	1678636.622242	40	1678640.1166775	1678640.1171912	100	del	1678648.9807311	1678649.4910446	1678649.491421	120.0	3.0	1678650.8287958
459.0576171875	0.0	40	940150	33	93	35	1	0	1678633.2953282	1678633.2957386	80	1678636.6217615	1678636.622242	40	1678640.1166775	1678640.1171912	100	del	1678648.9807311	1678649.4910446	1678649.491421	120.0	3.0	1678650.8287958
462.55224609375	0.0	100	947307	33	93	35	1	0	1678633.2953282	1678633.2957386	80	1678636.6217615	1678636.622242	40	1678640.1166775	1678640.1171912	100	del	1678648.9807311	1678649.4910446	1678649.491421	120.0	3.0	1678650.8287958
471.9267578125	0.0	120	966506	33	93	35	1	0	1678633.2953282	1678633.2957386	80	1678636.6217615	1678636.622242	40	1678640.1166775	1678640.1171912	100	del	1678648.9807311	1678649.4910446	1678649.491421	120.0	3.0	1678650.8287958
475.40087890625	0.0	80	973621	34	63	35	1	0	1678652.9654684	1678652.9659441	80	1678656.311327	1678656.3117423	40	1678659.4687333	1678659.4692241	100	del	1678660.3733899	1678660.8866021	1678660.887078	120.0	3.0	1678664.0290791
478.74658203125	0.0	40	980473	34	63	35	1	0	1678652.9654684	1678652.9659441	80	1678656.311327	1678656.3117423	40	1678659.4687333	1678659.4692241	100	del	1678660.3733899	1678660.8866021	1678660.887078	120.0	3.0	1678664.0290791
481.90380859375	0.0	100	986939	34	63	35	1	0	1678652.9654684	1678652.9659441	80	1678656.311327	1678656.3117423	40	1678659.4687333	1678659.4692241	100	del	1678660.3733899	1678660.8866021	1678660.887078	120.0	3.0	1678664.0290791
483.32177734375	0.0	120	989843	34	63	35	1	0	1678652.9654684	1678652.9659441	80	1678656.311327	1678656.3117423	40	1678659.4687333	1678659.4692241	100	del	1678660.3733899	1678660.8866021	1678660.887078	120.0	3.0	1678664.0290791
488.81640625	0.0	80	1001096	35	67	35	1	0	1678666.3814746	1678666.3819286	80	1678669.7382607	1678669.7387939	40	1678672.7878079	1678672.7883084	100	del	1678673.6293021	1678674.1430558	1678674.1435926	120.0	3.0	1678674.8932706
492.17333984375	0.0	40	1007971	35	67	35	1	0	1678666.3814746	1678666.3819286	80	1678669.7382607	1678669.7387939	40	1678672.7878079	1678672.7883084	100	del	1678673.6293021	1678674.1430558	1678674.1435926	120.0	3.0	1678674.8932706
495.22265625	0.0	100	1014216	35	67	35	1	0	1678666.3814746	1678666.3819286	80	1678669.7382607	1678669.7387939	40	1678672.7878079	1678672.7883084	100	del	1678673.6293021	1678674.1430558	1678674.1435926	120.0	3.0	1678674.8932706
496.578125	0.0	120	1016992	35	67	35	1	0	1678666.3814746	1678666.3819286	80	1678669.7382607	1678669.7387939	40	1678672.7878079	1678672.7883084	100	del	1678673.6293021	1678674.1430558	1678674.1435926	120.0	3.0	1678674.8932706
499.47216796875	0.0	80	1022919	36	57	90	0	1	1678677.0370364	1678677.0375493	80	1678680.1570956	1678680.1576133	40	1678683.5043985	1678683.5049298	100	del	1678684.1414655	nan	nan	nan	nan	nan
502.591796875	0.0	40	1029308	36	57	90	0	1	1678677.0370364	1678677.0375493	80	1678680.1570956	1678680.1576133	40	1678683.5043985	1678683.5049298	100	del	1678684.1414655	nan	nan	nan	nan	nan
505.93896484375	0.0	100	1036163	36	57	90	0	1	1678677.0370364	1678677.0375493	80	1678680.1570956	1678680.1576133	40	1678683.5043985	1678683.5049298	100	del	1678684.1414655	nan	nan	nan	nan	nan
509.5166015625	0.0	80	1043490	37	70	280	0	0	1678687.0820444	1678687.0824845	80	1678690.2627668	1678690.2632702	40	1678693.665636	1678693.6661708	100	imm	1678694.6688333	nan	nan	nan	nan	nan
512.697265625	0.0	40	1050004	37	70	280	0	0	1678687.0820444	1678687.0824845	80	1678690.2627668	1678690.2632702	40	1678693.665636	1678693.6661708	100	imm	1678694.6688333	nan	nan	nan	nan	nan
516.10009765625	0.0	100	1056973	37	70	280	0	0	1678687.0820444	1678687.0824845	80	1678690.2627668	1678690.2632702	40	1678693.665636	1678693.6661708	100	imm	1678694.6688333	nan	nan	nan	nan	nan
519.95947265625	0.0	80	1064877	38	63	200	1	1	1678697.5252382	1678697.5257335	80	1678700.5366298	1678700.5370825	40	1678703.8513723	1678703.8518866	100	del	1678709.1166946	1678709.6298916	1678709.6304697	120.0	3.0	1678711.5172682
522.970703125	0.0	40	1071044	38	63	200	1	1	1678697.5252382	1678697.5257335	80	1678700.5366298	1678700.5370825	40	1678703.8513723	1678703.8518866	100	del	1678709.1166946	1678709.6298916	1678709.6304697	120.0	3.0	1678711.5172682
526.28564453125	0.0	100	1077833	38	63	200	1	1	1678697.5252382	1678697.5257335	80	1678700.5366298	1678700.5370825	40	1678703.8513723	1678703.8518866	100	del	1678709.1166946	1678709.6298916	1678709.6304697	120.0	3.0	1678711.5172682
532.06396484375	0.0	120	1089667	38	63	200	1	1	1678697.5252382	1678697.5257335	80	1678700.5366298	1678700.5370825	40	1678703.8513723	1678703.8518866	100	del	1678709.1166946	1678709.6298916	1678709.6304697	120.0	3.0	1678711.5172682
536.16162109375	0.0	80	1098059	39	80	560	0	0	1678713.7278033	1678713.7282976	80	1678717.1938968	1678717.1943876	40	1678720.2081554	1678720.2086407	100	del	1678724.8861997	nan	nan	nan	nan	nan
539.6279296875	0.0	40	1105158	39	80	560	0	0	1678713.7278033	1678713.7282976	80	1678717.1938968	1678717.1943876	40	1678720.2081554	1678720.2086407	100	del	1678724.8861997	nan	nan	nan	nan	nan
542.64208984375	0.0	100	1111331	39	80	560	0	0	1678713.7278033	1678713.7282976	80	1678717.1938968	1678717.1943876	40	1678720.2081554	1678720.2086407	100	del	1678724.8861997	nan	nan	nan	nan	nan
550.0703125	0.0	80	1126544	40	83	35	1	1	1678727.6368868	1678727.6373904	80	1678730.8568693	1678730.8573971	40	1678734.1005314	1678734.1008697	100	del	1678735.1888835	1678735.7029065	1678735.7033997	120.0	3.0	1678738.4223673
553.29052734375	0.0	40	1133139	40	83	35	1	1	1678727.6368868	1678727.6373904	80	1678730.8568693	1678730.8573971	40	1678734.1005314	1678734.1008697	100	del	1678735.1888835	1678735.7029065	1678735.7033997	120.0	3.0	1678738.4223673
556.53369140625	0.0	100	1139781	40	83	35	1	1	1678727.6368868	1678727.6373904	80	1678730.8568693	1678730.8573971	40	1678734.1005314	1678734.1008697	100	del	1678735.1888835	1678735.7029065	1678735.7033997	120.0	3.0	1678738.4223673
558.13623046875	0.0	120	1143063	40	83	35	1	1	1678727.6368868	1678727.6373904	80	1678730.8568693	1678730.8573971	40	1678734.1005314	1678734.1008697	100	del	1678735.1888835	1678735.7029065	1678735.7033997	120.0	3.0	1678738.4223673
574.75146484375	0.0	80	1177091	41	90	280	0	0	1678752.3186678	1678752.3191302	80	1678755.4877547	1678755.4882275	40	1678758.8943447	1678758.8948376	100	del	1678760.0051573	nan	nan	nan	nan	nan
577.9208984375	0.0	40	1183582	41	90	280	0	0	1678752.3186678	1678752.3191302	80	1678755.4877547	1678755.4882275	40	1678758.8943447	1678758.8948376	100	del	1678760.0051573	nan	nan	nan	nan	nan
581.3271484375	0.0	100	1190558	41	90	280	0	0	1678752.3186678	1678752.3191302	80	1678755.4877547	1678755.4882275	40	1678758.8943447	1678758.8948376	100	del	1678760.0051573	nan	nan	nan	nan	nan
585.19384765625	0.0	80	1198477	42	87	90	0	1	1678762.7608161	1678762.7614082	80	1678765.7863542	1678765.7867611	40	1678768.8874219	1678768.8878451	100	del	1678770.2928331	nan	nan	nan	nan	nan
588.21923828125	0.0	40	1204673	42	87	90	0	1	1678762.7608161	1678762.7614082	80	1678765.7863542	1678765.7867611	40	1678768.8874219	1678768.8878451	100	del	1678770.2928331	nan	nan	nan	nan	nan
591.31982421875	0.0	100	1211023	42	87	90	0	1	1678762.7608161	1678762.7614082	80	1678765.7863542	1678765.7867611	40	1678768.8874219	1678768.8878451	100	del	1678770.2928331	nan	nan	nan	nan	nan
595.60205078125	0.0	80	1219793	43	50	280	0	0	1678773.1694497	1678773.1697609	80	1678776.4137503	1678776.4143019	40	1678779.5036473	1678779.5041611	100	imm	1678782.6602685	nan	nan	nan	nan	nan
598.84619140625	0.0	40	1226437	43	50	280	0	0	1678773.1694497	1678773.1697609	80	1678776.4137503	1678776.4143019	40	1678779.5036473	1678779.5041611	100	imm	1678782.6602685	nan	nan	nan	nan	nan
601.93603515625	0.0	100	1232765	43	50	280	0	0	1678773.1694497	1678773.1697609	80	1678776.4137503	1678776.4143019	40	1678779.5036473	1678779.5041611	100	imm	1678782.6602685	nan	nan	nan	nan	nan
607.78515625	0.0	80	1244744	44	93	800	1	1	1678785.3529141	1678785.3534101	80	1678788.6644667	1678788.6648922	40	1678791.774077	1678791.7746144	100	del	1678794.9567377	1678795.4663338	1678795.4667069	120.0	3.0	1678796.4761792
611.0966796875	0.0	40	1251526	44	93	800	1	1	1678785.3529141	1678785.3534101	80	1678788.6644667	1678788.6648922	40	1678791.774077	1678791.7746144	100	del	1678794.9567377	1678795.4663338	1678795.4667069	120.0	3.0	1678796.4761792
614.2060546875	0.0	100	1257894	44	93	800	1	1	1678785.3529141	1678785.3534101	80	1678788.6644667	1678788.6648922	40	1678791.774077	1678791.7746144	100	del	1678794.9567377	1678795.4663338	1678795.4667069	120.0	3.0	1678796.4761792
617.89794921875	0.0	120	1265455	44	93	800	1	1	1678785.3529141	1678785.3534101	80	1678788.6644667	1678788.6648922	40	1678791.774077	1678791.7746144	100	del	1678794.9567377	1678795.4663338	1678795.4667069	120.0	3.0	1678796.4761792
621.2958984375	0.0	80	1272414	45	57	20	0	1	1678798.8639387	1678798.864397	80	1678801.9931798	1678801.993727	40	1678805.4673418	1678805.467848	100	del	1678807.2849365	nan	nan	nan	nan	nan
624.4248046875	0.0	40	1278822	45	57	20	0	1	1678798.8639387	1678798.864397	80	1678801.9931798	1678801.993727	40	1678805.4673418	1678805.467848	100	del	1678807.2849365	nan	nan	nan	nan	nan
627.89892578125	0.0	100	1285937	45	57	20	0	1	1678798.8639387	1678798.864397	80	1678801.9931798	1678801.993727	40	1678805.4673418	1678805.467848	100	del	1678807.2849365	nan	nan	nan	nan	nan
632.3701171875	0.0	80	1295094	46	97	35	1	1	1678809.938694	1678809.9392286	80	1678813.3291922	1678813.3295915	40	1678816.4377501	1678816.4383257	100	del	1678818.0767202	1678818.5913684	1678818.5919071	120.0	3.0	1678820.0042186
635.7607421875	0.0	40	1302038	46	97	35	1	1	1678809.938694	1678809.9392286	80	1678813.3291922	1678813.3295915	40	1678816.4377501	1678816.4383257	100	del	1678818.0767202	1678818.5913684	1678818.5919071	120.0	3.0	1678820.0042186
638.869140625	0.0	100	1308404	46	97	35	1	1	1678809.938694	1678809.9392286	80	1678813.3291922	1678813.3295915	40	1678816.4377501	1678816.4383257	100	del	1678818.0767202	1678818.5913684	1678818.5919071	120.0	3.0	1678820.0042186
641.02294921875	0.0	120	1312815	46	97	35	1	1	1678809.938694	1678809.9392286	80	1678813.3291922	1678813.3295915	40	1678816.4377501	1678816.4383257	100	del	1678818.0767202	1678818.5913684	1678818.5919071	120.0	3.0	1678820.0042186
644.59619140625	0.0	80	1320133	47	53	90	0	0	1678822.1649793	1678822.1655092	80	1678825.2199029	1678825.2204177	40	1678828.5217031	1678828.5221973	100	del	1678829.82893	nan	nan	nan	nan	nan
647.65087890625	0.0	40	1326389	47	53	90	0	0	1678822.1649793	1678822.1655092	80	1678825.2199029	1678825.2204177	40	1678828.5217031	1678828.5221973	100	del	1678829.82893	nan	nan	nan	nan	nan
650.95263671875	0.0	100	1333151	47	53	90	0	0	1678822.1649793	1678822.1655092	80	1678825.2199029	1678825.2204177	40	1678828.5217031	1678828.5221973	100	del	1678829.82893	nan	nan	nan	nan	nan
655.12109375	0.0	80	1341688	48	80	20	0	0	1678832.6901548	1678832.6906142	80	1678835.9713704	1678835.9718842	40	1678839.2016441	1678839.2020834	100	del	1678840.1245224	nan	nan	nan	nan	nan
658.40234375	0.0	40	1348408	48	80	20	0	0	1678832.6901548	1678832.6906142	80	1678835.9713704	1678835.9718842	40	1678839.2016441	1678839.2020834	100	del	1678840.1245224	nan	nan	nan	nan	nan
661.63232421875	0.0	100	1355023	48	80	20	0	0	1678832.6901548	1678832.6906142	80	1678835.9713704	1678835.9718842	40	1678839.2016441	1678839.2020834	100	del	1678840.1245224	nan	nan	nan	nan	nan
665.39599609375	0.0	80	1362731	49	70	35	1	0	1678842.9649098	1678842.9654839	80	1678846.2965125	1678846.2969552	40	1678849.6479242	1678849.6483402	100	del	1678850.5721532	1678851.0867605	1678851.0872435	120.0	3.0	1678853.7804645
668.72705078125	0.0	40	1369553	49	70	35	1	0	1678842.9649098	1678842.9654839	80	1678846.2965125	1678846.2969552	40	1678849.6479242	1678849.6483402	100	del	1678850.5721532	1678851.0867605	1678851.0872435	120.0	3.0	1678853.7804645
672.07861328125	0.0	100	1376417	49	70	35	1	0	1678842.9649098	1678842.9654839	80	1678846.2965125	1678846.2969552	40	1678849.6479242	1678849.6483402	100	del	1678850.5721532	1678851.0867605	1678851.0872435	120.0	3.0	1678853.7804645
673.51708984375	0.0	120	1379363	49	70	35	1	0	1678842.9649098	1678842.9654839	80	1678846.2965125	1678846.2969552	40	1678849.6479242	1678849.6483402	100	del	1678850.5721532	1678851.0867605	1678851.0872435	120.0	3.0	1678853.7804645
678.54541015625	0.0	80	1389661	50	97	90	0	1	1678856.1147537	1678856.1153199	80	1678859.5953312	1678859.5958657	40	1678862.713955	1678862.7147812	100	del	1678863.7565281	nan	nan	nan	nan	nan
682.02587890625	0.0	40	1396789	50	97	90	0	1	1678856.1147537	1678856.1153199	80	1678859.5953312	1678859.5958657	40	1678862.713955	1678862.7147812	100	del	1678863.7565281	nan	nan	nan	nan	nan
685.14404296875	0.0	100	1403175	50	97	90	0	1	1678856.1147537	1678856.1153199	80	1678859.5953312	1678859.5958657	40	1678862.713955	1678862.7147812	100	del	1678863.7565281	nan	nan	nan	nan	nan
689.06005859375	0.0	80	1411195	51	57	560	0	0	1678866.6298546	1678866.6304318	80	1678869.7556382	1678869.7560996	40	1678872.8285948	1678872.829297	100	del	1678879.076603	nan	nan	nan	nan	nan
692.185546875	0.0	40	1417596	51	57	560	0	0	1678866.6298546	1678866.6304318	80	1678869.7556382	1678869.7560996	40	1678872.8285948	1678872.829297	100	del	1678879.076603	nan	nan	nan	nan	nan
695.2587890625	0.0	100	1423890	51	57	560	0	0	1678866.6298546	1678866.6304318	80	1678869.7556382	1678869.7560996	40	1678872.8285948	1678872.829297	100	del	1678879.076603	nan	nan	nan	nan	nan
704.3291015625	0.0	80	1442466	52	93	200	1	1	1678881.8995068	1678881.9000164	80	1678885.1324946	1678885.1329685	40	1678888.3751521	1678888.3757111	100	del	1678889.0209066	1678889.5324136	1678889.532763	120.0	3.0	1678890.6521666
707.56201171875	0.0	40	1449087	52	93	200	1	1	1678881.8995068	1678881.9000164	80	1678885.1324946	1678885.1329685	40	1678888.3751521	1678888.3757111	100	del	1678889.0209066	1678889.5324136	1678889.532763	120.0	3.0	1678890.6521666
710.8046875	0.0	100	1455728	52	93	200	1	1	1678881.8995068	1678881.9000164	80	1678885.1324946	1678885.1329685	40	1678888.3751521	1678888.3757111	100	del	1678889.0209066	1678889.5324136	1678889.532763	120.0	3.0	1678890.6521666
711.9619140625	0.0	120	1458098	52	93	200	1	1	1678881.8995068	1678881.9000164	80	1678885.1324946	1678885.1329685	40	1678888.3751521	1678888.3757111	100	del	1678889.0209066	1678889.5324136	1678889.532763	120.0	3.0	1678890.6521666
715.4296875	0.0	80	1465200	53	97	5	1	1	1678893.0000224	1678893.0005538	80	1678896.3928407	1678896.3933156	40	1678899.5817285	1678899.582205	100	del	1678900.5401695	1678901.0543479	1678901.0548404	120.0	3.0	1678902.0361424
718.822265625	0.0	40	1472148	53	97	5	1	1	1678893.0000224	1678893.0005538	80	1678896.3928407	1678896.3933156	40	1678899.5817285	1678899.582205	100	del	1678900.5401695	1678901.0543479	1678901.0548404	120.0	3.0	1678902.0361424
722.01123046875	0.0	100	1478679	53	97	5	1	1	1678893.0000224	1678893.0005538	80	1678896.3928407	1678896.3933156	40	1678899.5817285	1678899.582205	100	del	1678900.5401695	1678901.0543479	1678901.0548404	120.0	3.0	1678902.0361424
723.48388671875	0.0	120	1481695	53	97	5	1	1	1678893.0000224	1678893.0005538	80	1678896.3928407	1678896.3933156	40	1678899.5817285	1678899.582205	100	del	1678900.5401695	1678901.0543479	1678901.0548404	120.0	3.0	1678902.0361424
726.814453125	0.0	80	1488516	54	80	200	1	1	1678904.3850429	1678904.3855594	80	1678907.6009011	1678907.6013995	40	1678911.0358319	1678911.0362967	100	del	1678911.820435	1678912.3342957	1678912.3347753	120.0	3.0	1678914.3968118
730.0302734375	0.0	40	1495102	54	80	200	1	1	1678904.3850429	1678904.3855594	80	1678907.6009011	1678907.6013995	40	1678911.0358319	1678911.0362967	100	del	1678911.820435	1678912.3342957	1678912.3347753	120.0	3.0	1678914.3968118
733.46484375	0.0	100	1502136	54	80	200	1	1	1678904.3850429	1678904.3855594	80	1678907.6009011	1678907.6013995	40	1678911.0358319	1678911.0362967	100	del	1678911.820435	1678912.3342957	1678912.3347753	120.0	3.0	1678914.3968118
734.76318359375	0.0	120	1504795	54	80	200	1	1	1678904.3850429	1678904.3855594	80	1678907.6009011	1678907.6013995	40	1678911.0358319	1678911.0362967	100	del	1678911.820435	1678912.3342957	1678912.3347753	120.0	3.0	1678914.3968118
739.2587890625	0.0	80	1514002	55	67	5	1	0	1678916.8298463	1678916.8303701	80	1678919.9657426	1678919.9662179	40	1678923.2857008	1678923.286216	100	del	1678924.4362662	1678924.9500406	1678924.9505481	120.0	2.0	1678926.293633
742.39453125	0.0	40	1520424	55	67	5	1	0	1678916.8298463	1678916.8303701	80	1678919.9657426	1678919.9662179	40	1678923.2857008	1678923.286216	100	del	1678924.4362662	1678924.9500406	1678924.9505481	120.0	2.0	1678926.293633
745.71435546875	0.0	100	1527223	55	67	5	1	0	1678916.8298463	1678916.8303701	80	1678919.9657426	1678919.9662179	40	1678923.2857008	1678923.286216	100	del	1678924.4362662	1678924.9500406	1678924.9505481	120.0	2.0	1678926.293633
747.37890625	0.0	120	1530632	55	67	5	1	0	1678916.8298463	1678916.8303701	80	1678919.9657426	1678919.9662179	40	1678923.2857008	1678923.286216	100	del	1678924.4362662	1678924.9500406	1678924.9505481	120.0	2.0	1678926.293633
751.0302734375	0.0	80	1538110	56	90	20	0	1	1678928.6014744	1678928.6020078	80	1678931.8798345	1678931.8802974	40	1678935.3287311	1678935.3292607	100	del	1678936.2122576	nan	nan	nan	nan	nan
754.30810546875	0.0	40	1544823	56	90	20	0	1	1678928.6014744	1678928.6020078	80	1678931.8798345	1678931.8802974	40	1678935.3287311	1678935.3292607	100	del	1678936.2122576	nan	nan	nan	nan	nan
757.75732421875	0.0	100	1551887	56	90	20	0	1	1678928.6014744	1678928.6020078	80	1678931.8798345	1678931.8802974	40	1678935.3287311	1678935.3292607	100	del	1678936.2122576	nan	nan	nan	nan	nan
761.29248046875	0.0	80	1559127	57	77	1150	0	1	1678938.8639768	1678938.8644973	80	1678942.0309445	1678942.0314516	40	1678945.1017438	1678945.1021723	100	imm	1678946.5719399	nan	nan	nan	nan	nan
764.458984375	0.0	40	1565612	57	77	1150	0	1	1678938.8639768	1678938.8644973	80	1678942.0309445	1678942.0314516	40	1678945.1017438	1678945.1021723	100	imm	1678946.5719399	nan	nan	nan	nan	nan
767.52978515625	0.0	100	1571901	57	77	1150	0	1	1678938.8639768	1678938.8644973	80	1678942.0309445	1678942.0314516	40	1678945.1017438	1678945.1021723	100	imm	1678946.5719399	nan	nan	nan	nan	nan
771.98974609375	0.0	80	1581035	58	77	280	0	1	1678949.5618446	1678949.5623425	80	1678952.8929538	1678952.8934237	40	1678956.1461384	1678956.1466478	100	del	1678961.5806424	nan	nan	nan	nan	nan
775.32080078125	0.0	40	1587857	58	77	280	0	1	1678949.5618446	1678949.5623425	80	1678952.8929538	1678952.8934237	40	1678956.1461384	1678956.1466478	100	del	1678961.5806424	nan	nan	nan	nan	nan
778.57421875	0.0	100	1594520	58	77	280	0	1	1678949.5618446	1678949.5623425	80	1678952.8929538	1678952.8934237	40	1678956.1461384	1678956.1466478	100	del	1678961.5806424	nan	nan	nan	nan	nan
786.84716796875	0.0	80	1611463	59	83	1150	0	1	1678964.4196043	1678964.4200652	80	1678967.6997891	1678967.7003236	40	1678971.0378564	1678971.0383738	100	imm	1678971.8773454	nan	nan	nan	nan	nan
790.12744140625	0.0	40	1618181	59	83	1150	0	1	1678964.4196043	1678964.4200652	80	1678967.6997891	1678967.7003236	40	1678971.0378564	1678971.0383738	100	imm	1678971.8773454	nan	nan	nan	nan	nan
793.46533203125	0.0	100	1625017	59	83	1150	0	1	1678964.4196043	1678964.4200652	80	1678967.6997891	1678967.7003236	40	1678971.0378564	1678971.0383738	100	imm	1678971.8773454	nan	nan	nan	nan	nan
797.09326171875	0.0	80	1632447	60	83	90	0	1	1678974.6658799	1678974.6664721	80	1678978.0351992	1678978.0356717	40	1678981.3102265	1678981.3107029	100	del	1678982.3086364	nan	nan	nan	nan	nan
800.46240234375	0.0	40	1639347	60	83	90	0	1	1678974.6658799	1678974.6664721	80	1678978.0351992	1678978.0356717	40	1678981.3102265	1678981.3107029	100	del	1678982.3086364	nan	nan	nan	nan	nan
803.73779296875	0.0	100	1646055	60	83	90	0	1	1678974.6658799	1678974.6664721	80	1678978.0351992	1678978.0356717	40	1678981.3102265	1678981.3107029	100	del	1678982.3086364	nan	nan	nan	nan	nan
820.59375	0.0	80	1680576	61	87	1150	0	0	1678998.166753	1678998.1672701	80	1679001.2855212	1679001.2859952	40	1679004.3525658	1679004.3530563	100	imm	1679004.9486911	nan	nan	nan	nan	nan
823.71240234375	0.0	40	1686963	61	87	1150	0	0	1678998.166753	1678998.1672701	80	1679001.2855212	1679001.2859952	40	1679004.3525658	1679004.3530563	100	imm	1679004.9486911	nan	nan	nan	nan	nan
826.779296875	0.0	100	1693244	61	87	1150	0	0	1678998.166753	1678998.1672701	80	1679001.2855212	1679001.2859952	40	1679004.3525658	1679004.3530563	100	imm	1679004.9486911	nan	nan	nan	nan	nan
829.9501953125	0.0	80	1699738	62	100	35	1	0	1679007.5233096	1679007.5238177	80	1679010.5635243	1679010.5643225	40	1679013.7797404	1679013.7803665	100	del	1679014.8599596	1679015.3742198	1679015.3746612	120.0	3.0	1679016.8038023
832.98974609375	0.0	40	1705963	62	100	35	1	0	1679007.5233096	1679007.5238177	80	1679010.5635243	1679010.5643225	40	1679013.7797404	1679013.7803665	100	del	1679014.8599596	1679015.3742198	1679015.3746612	120.0	3.0	1679016.8038023
836.20654296875	0.0	100	1712551	62	100	35	1	0	1679007.5233096	1679007.5238177	80	1679010.5635243	1679010.5643225	40	1679013.7797404	1679013.7803665	100	del	1679014.8599596	1679015.3742198	1679015.3746612	120.0	3.0	1679016.8038023
837.80078125	0.0	120	1715816	62	100	35	1	0	1679007.5233096	1679007.5238177	80	1679010.5635243	1679010.5643225	40	1679013.7797404	1679013.7803665	100	del	1679014.8599596	1679015.3742198	1679015.3746612	120.0	3.0	1679016.8038023
841.47119140625	0.0	80	1723333	63	73	35	1	0	1679019.0446488	1679019.0451002	80	1679022.2350183	1679022.2354934	40	1679025.6305734	1679025.6310914	100	del	1679026.5404769	1679027.0540367	1679027.0545891	120.0	3.0	1679028.5960348
844.6611328125	0.0	40	1729866	63	73	35	1	0	1679019.0446488	1679019.0451002	80	1679022.2350183	1679022.2354934	40	1679025.6305734	1679025.6310914	100	del	1679026.5404769	1679027.0540367	1679027.0545891	120.0	3.0	1679028.5960348
848.056640625	0.0	100	1736820	63	73	35	1	0	1679019.0446488	1679019.0451002	80	1679022.2350183	1679022.2354934	40	1679025.6305734	1679025.6310914	100	del	1679026.5404769	1679027.0540367	1679027.0545891	120.0	3.0	1679028.5960348
849.48046875	0.0	120	1739736	63	73	35	1	0	1679019.0446488	1679019.0451002	80	1679022.2350183	1679022.2354934	40	1679025.6305734	1679025.6310914	100	del	1679026.5404769	1679027.0540367	1679027.0545891	120.0	3.0	1679028.5960348
853.3525390625	0.0	80	1747666	64	93	1150	0	1	1679030.9267645	1679030.9274979	80	1679034.3200399	1679034.3205027	40	1679037.8003948	1679037.8008792	100	imm	1679038.4617942	nan	nan	nan	nan	nan
856.74609375	0.0	40	1754616	64	93	1150	0	1	1679030.9267645	1679030.9274979	80	1679034.3200399	1679034.3205027	40	1679037.8003948	1679037.8008792	100	imm	1679038.4617942	nan	nan	nan	nan	nan
860.2265625	0.0	100	1761744	64	93	1150	0	1	1679030.9267645	1679030.9274979	80	1679034.3200399	1679034.3205027	40	1679037.8003948	1679037.8008792	100	imm	1679038.4617942	nan	nan	nan	nan	nan
863.89453125	0.0	80	1769256	65	70	800	1	1	1679041.4685253	1679041.469021	80	1679044.572208	1679044.572649	40	1679047.6555634	1679047.6561997	100	imm	1679050.7162068	1679051.2360215	1679051.2364462	120.0	3.0	1679052.6685281
866.998046875	0.0	40	1775612	65	70	800	1	1	1679041.4685253	1679041.469021	80	1679044.572208	1679044.572649	40	1679047.6555634	1679047.6561997	100	imm	1679050.7162068	1679051.2360215	1679051.2364462	120.0	3.0	1679052.6685281
870.08154296875	0.0	100	1781927	65	70	800	1	1	1679041.4685253	1679041.469021	80	1679044.572208	1679044.572649	40	1679047.6555634	1679047.6561997	100	imm	1679050.7162068	1679051.2360215	1679051.2364462	120.0	3.0	1679052.6685281
873.66162109375	0.0	120	1789259	65	70	800	1	1	1679041.4685253	1679041.469021	80	1679044.572208	1679044.572649	40	1679047.6555634	1679047.6561997	100	imm	1679050.7162068	1679051.2360215	1679051.2364462	120.0	3.0	1679052.6685281
877.45849609375	0.0	80	1797035	66	67	90	0	1	1679055.0328628	1679055.0333397	80	1679058.0876349	1679058.088126	40	1679061.3642772	1679061.3647583	100	del	1679062.1962795	nan	nan	nan	nan	nan
880.51318359375	0.0	40	1803291	66	67	90	0	1	1679055.0328628	1679055.0333397	80	1679058.0876349	1679058.088126	40	1679061.3642772	1679061.3647583	100	del	1679062.1962795	nan	nan	nan	nan	nan
883.78955078125	0.0	100	1810001	66	67	90	0	1	1679055.0328628	1679055.0333397	80	1679058.0876349	1679058.088126	40	1679061.3642772	1679061.3647583	100	del	1679062.1962795	nan	nan	nan	nan	nan
887.40576171875	0.0	80	1817407	67	77	20	0	1	1679064.9802434	1679064.9804195	80	1679068.4154219	1679068.415693	40	1679071.6705643	1679071.6710553	100	del	1679073.0765051	nan	nan	nan	nan	nan
890.84033203125	0.0	40	1824441	67	77	20	0	1	1679064.9802434	1679064.9804195	80	1679068.4154219	1679068.415693	40	1679071.6705643	1679071.6710553	100	del	1679073.0765051	nan	nan	nan	nan	nan
894.095703125	0.0	100	1831108	67	77	20	0	1	1679064.9802434	1679064.9804195	80	1679068.4154219	1679068.415693	40	1679071.6705643	1679071.6710553	100	del	1679073.0765051	nan	nan	nan	nan	nan
898.21728515625	0.0	80	1839549	68	80	35	1	0	1679075.7925032	1679075.7929902	80	1679079.1357541	1679079.1362294	40	1679082.5213883	1679082.5221651	100	del	1679083.2363361	1679083.7492319	1679083.7496738	120.0	3.0	1679084.387675
901.560546875	0.0	40	1846396	68	80	35	1	0	1679075.7925032	1679075.7929902	80	1679079.1357541	1679079.1362294	40	1679082.5213883	1679082.5221651	100	del	1679083.2363361	1679083.7492319	1679083.7496738	120.0	3.0	1679084.387675
904.94580078125	0.0	100	1853329	68	80	35	1	0	1679075.7925032	1679075.7929902	80	1679079.1357541	1679079.1362294	40	1679082.5213883	1679082.5221651	100	del	1679083.2363361	1679083.7492319	1679083.7496738	120.0	3.0	1679084.387675
906.173828125	0.0	120	1855844	68	80	35	1	0	1679075.7925032	1679075.7929902	80	1679079.1357541	1679079.1362294	40	1679082.5213883	1679082.5221651	100	del	1679083.2363361	1679083.7492319	1679083.7496738	120.0	3.0	1679084.387675
909.09033203125	0.0	80	1861817	69	80	5	1	1	1679086.6654452	1679086.6659529	80	1679089.847069	1679089.8475285	40	1679092.9299322	1679092.9301774	100	del	1679094.3638299	1679094.8774215	1679094.8779175	120.0	2.0	1679095.7561289
912.271484375	0.0	40	1868332	69	80	5	1	1	1679086.6654452	1679086.6659529	80	1679089.847069	1679089.8475285	40	1679092.9299322	1679092.9301774	100	del	1679094.3638299	1679094.8774215	1679094.8779175	120.0	2.0	1679095.7561289
915.3544921875	0.0	100	1874646	69	80	5	1	1	1679086.6654452	1679086.6659529	80	1679089.847069	1679089.8475285	40	1679092.9299322	1679092.9301774	100	del	1679094.3638299	1679094.8774215	1679094.8779175	120.0	2.0	1679095.7561289
917.3017578125	0.0	120	1878634	69	80	5	1	1	1679086.6654452	1679086.6659529	80	1679089.847069	1679089.8475285	40	1679092.9299322	1679092.9301774	100	del	1679094.3638299	1679094.8774215	1679094.8779175	120.0	2.0	1679095.7561289
920.4892578125	0.0	80	1885162	70	53	20	0	0	1679098.0649344	1679098.0654551	80	1679101.2043061	1679101.2048046	40	1679104.2404018	1679104.2408128	100	del	1679105.195649	nan	nan	nan	nan	nan
923.62841796875	0.0	40	1891591	70	53	20	0	0	1679098.0649344	1679098.0654551	80	1679101.2043061	1679101.2048046	40	1679104.2404018	1679104.2408128	100	del	1679105.195649	nan	nan	nan	nan	nan
926.66455078125	0.0	100	1897809	70	53	20	0	0	1679098.0649344	1679098.0654551	80	1679101.2043061	1679101.2048046	40	1679104.2404018	1679104.2408128	100	del	1679105.195649	nan	nan	nan	nan	nan
930.51953125	0.0	80	1905704	71	67	1150	0	1	1679108.0951342	1679108.0956075	80	1679111.2241402	1679111.2245939	40	1679114.459197	1679114.4597483	100	imm	1679115.292775	nan	nan	nan	nan	nan
933.6484375	0.0	40	1912112	71	67	1150	0	1	1679108.0951342	1679108.0956075	80	1679111.2241402	1679111.2245939	40	1679114.459197	1679114.4597483	100	imm	1679115.292775	nan	nan	nan	nan	nan
936.88330078125	0.0	100	1918737	71	67	1150	0	1	1679108.0951342	1679108.0956075	80	1679111.2241402	1679111.2245939	40	1679114.459197	1679114.4597483	100	imm	1679115.292775	nan	nan	nan	nan	nan
940.58251953125	0.0	80	1926313	72	63	280	0	0	1679118.1585547	1679118.1590528	80	1679121.3457422	1679121.346207	40	1679124.7275556	1679124.7280446	100	del	1679129.8764074	nan	nan	nan	nan	nan
943.76953125	0.0	40	1932840	72	63	280	0	0	1679118.1585547	1679118.1590528	80	1679121.3457422	1679121.346207	40	1679124.7275556	1679124.7280446	100	del	1679129.8764074	nan	nan	nan	nan	nan
947.1513671875	0.0	100	1939766	72	63	280	0	0	1679118.1585547	1679118.1590528	80	1679121.3457422	1679121.346207	40	1679124.7275556	1679124.7280446	100	del	1679129.8764074	nan	nan	nan	nan	nan
955.01708984375	0.0	80	1955875	73	57	35	1	0	1679132.5934337	1679132.5939155	80	1679135.9428309	1679135.9433352	40	1679139.3081944	1679139.3086785	100	del	1679140.4119477	1679140.9260172	1679140.9265575	120.0	1.0	1679143.2361788
958.3662109375	0.0	40	1962734	73	57	35	1	0	1679132.5934337	1679132.5939155	80	1679135.9428309	1679135.9433352	40	1679139.3081944	1679139.3086785	100	del	1679140.4119477	1679140.9260172	1679140.9265575	120.0	1.0	1679143.2361788
961.7314453125	0.0	100	1969626	73	57	35	1	0	1679132.5934337	1679132.5939155	80	1679135.9428309	1679135.9433352	40	1679139.3081944	1679139.3086785	100	del	1679140.4119477	1679140.9260172	1679140.9265575	120.0	1.0	1679143.2361788
963.349609375	0.0	120	1972940	73	57	35	1	0	1679132.5934337	1679132.5939155	80	1679135.9428309	1679135.9433352	40	1679139.3081944	1679139.3086785	100	del	1679140.4119477	1679140.9260172	1679140.9265575	120.0	1.0	1679143.2361788
967.8974609375	0.0	80	1982254	74	93	560	0	1	1679145.4740184	1679145.4745141	80	1679148.49174	1679148.4922255	40	1679151.6709643	1679151.6714738	100	del	1679155.5242379	nan	nan	nan	nan	nan
970.9150390625	0.0	40	1988434	74	93	560	0	1	1679145.4740184	1679145.4745141	80	1679148.49174	1679148.4922255	40	1679151.6709643	1679151.6714738	100	del	1679155.5242379	nan	nan	nan	nan	nan
974.09423828125	0.0	100	1994945	74	93	560	0	1	1679145.4740184	1679145.4745141	80	1679148.49174	1679148.4922255	40	1679151.6709643	1679151.6714738	100	del	1679155.5242379	nan	nan	nan	nan	nan
980.6806640625	0.0	80	2008434	75	67	560	0	0	1679158.2577884	1679158.2582099	80	1679161.4009426	1679161.401421	40	1679164.5135836	1679164.5140099	100	imm	1679165.7804001	nan	nan	nan	nan	nan
983.82373046875	0.0	40	2014871	75	67	560	0	0	1679158.2577884	1679158.2582099	80	1679161.4009426	1679161.401421	40	1679164.5135836	1679164.5140099	100	imm	1679165.7804001	nan	nan	nan	nan	nan
986.9365234375	0.0	100	2021246	75	67	560	0	0	1679158.2577884	1679158.2582099	80	1679161.4009426	1679161.401421	40	1679164.5135836	1679164.5140099	100	imm	1679165.7804001	nan	nan	nan	nan	nan
991.1318359375	0.0	80	2029838	76	77	5	1	1	1679168.7089974	1679168.709498	80	1679171.9335358	1679171.9340447	40	1679175.3904757	1679175.3909442	100	del	1679176.0603504	1679176.5736756	1679176.5740985	120.0	3.0	1679177.8051251
994.35595703125	0.0	40	2036441	76	77	5	1	1	1679168.7089974	1679168.709498	80	1679171.9335358	1679171.9340447	40	1679175.3904757	1679175.3909442	100	del	1679176.0603504	1679176.5736756	1679176.5740985	120.0	3.0	1679177.8051251
997.81298828125	0.0	100	2043521	76	77	5	1	1	1679168.7089974	1679168.709498	80	1679171.9335358	1679171.9340447	40	1679175.3904757	1679175.3909442	100	del	1679176.0603504	1679176.5736756	1679176.5740985	120.0	3.0	1679177.8051251
998.99609375	0.0	120	2045944	76	77	5	1	1	1679168.7089974	1679168.709498	80	1679171.9335358	1679171.9340447	40	1679175.3904757	1679175.3909442	100	del	1679176.0603504	1679176.5736756	1679176.5740985	120.0	3.0	1679177.8051251
1002.4423828125	0.0	80	2053002	77	60	200	1	0	1679180.0198016	1679180.0202997	80	1679183.4126771	1679183.4130999	40	1679186.6243837	1679186.6249608	100	del	1679189.4837847	1679189.9977637	1679189.9982874	120.0	2.0	1679194.2196675
1005.8349609375	0.0	40	2059950	77	60	200	1	0	1679180.0198016	1679180.0202997	80	1679183.4126771	1679183.4130999	40	1679186.6243837	1679186.6249608	100	del	1679189.4837847	1679189.9977637	1679189.9982874	120.0	2.0	1679194.2196675
1009.046875	0.0	100	2066528	77	60	200	1	0	1679180.0198016	1679180.0202997	80	1679183.4126771	1679183.4130999	40	1679186.6243837	1679186.6249608	100	del	1679189.4837847	1679189.9977637	1679189.9982874	120.0	2.0	1679194.2196675
1012.419921875	0.0	120	2073436	77	60	200	1	0	1679180.0198016	1679180.0202997	80	1679183.4126771	1679183.4130999	40	1679186.6243837	1679186.6249608	100	del	1679189.4837847	1679189.9977637	1679189.9982874	120.0	2.0	1679194.2196675
1019.06298828125	0.0	80	2087041	78	73	200	1	0	1679196.640895	1679196.6414627	80	1679200.0273626	1679200.0278821	40	1679203.2278096	1679203.2282094	100	del	1679204.6682063	1679205.1801816	1679205.1806427	120.0	3.0	1679207.643732
1022.44921875	0.0	40	2093976	78	73	200	1	0	1679196.640895	1679196.6414627	80	1679200.0273626	1679200.0278821	40	1679203.2278096	1679203.2282094	100	del	1679204.6682063	1679205.1801816	1679205.1806427	120.0	3.0	1679207.643732
1025.6494140625	0.0	100	2100530	78	73	200	1	0	1679196.640895	1679196.6414627	80	1679200.0273626	1679200.0278821	40	1679203.2278096	1679203.2282094	100	del	1679204.6682063	1679205.1801816	1679205.1806427	120.0	3.0	1679207.643732
1027.60205078125	0.0	120	2104529	78	73	200	1	0	1679196.640895	1679196.6414627	80	1679200.0273626	1679200.0278821	40	1679203.2278096	1679203.2282094	100	del	1679204.6682063	1679205.1801816	1679205.1806427	120.0	3.0	1679207.643732
1032.1904296875	0.0	80	2113926	79	87	380	1	1	1679209.7685296	1679209.7689622	80	1679213.1703627	1679213.1706606	40	1679216.6609734	1679216.6614657	100	del	1679219.517262	1679220.0317009	1679220.0322122	120.0	3.0	1679221.1973901
1035.591796875	0.0	40	2120892	79	87	380	1	1	1679209.7685296	1679209.7689622	80	1679213.1703627	1679213.1706606	40	1679216.6609734	1679216.6614657	100	del	1679219.517262	1679220.0317009	1679220.0322122	120.0	3.0	1679221.1973901
1039.08251953125	0.0	100	2128041	79	87	380	1	1	1679209.7685296	1679209.7689622	80	1679213.1703627	1679213.1706606	40	1679216.6609734	1679216.6614657	100	del	1679219.517262	1679220.0317009	1679220.0322122	120.0	3.0	1679221.1973901
1042.453125	0.0	120	2134944	79	87	380	1	1	1679209.7685296	1679209.7689622	80	1679213.1703627	1679213.1706606	40	1679216.6609734	1679216.6614657	100	del	1679219.517262	1679220.0317009	1679220.0322122	120.0	3.0	1679221.1973901
1045.79931640625	0.0	80	2141797	80	50	380	1	1	1679223.3782396	1679223.3786778	80	1679226.7227627	1679226.7232814	40	1679229.9560189	1679229.9565125	100	del	1679235.3891737	1679235.902882	1679235.9035413	120.0	3.0	1679236.9475956
1049.14404296875	0.0	40	2148647	80	50	380	1	1	1679223.3782396	1679223.3786778	80	1679226.7227627	1679226.7232814	40	1679229.9560189	1679229.9565125	100	del	1679235.3891737	1679235.902882	1679235.9035413	120.0	3.0	1679236.9475956
1052.376953125	0.0	100	2155268	80	50	380	1	1	1679223.3782396	1679223.3786778	80	1679226.7227627	1679226.7232814	40	1679229.9560189	1679229.9565125	100	del	1679235.3891737	1679235.902882	1679235.9035413	120.0	3.0	1679236.9475956
1058.32421875	0.0	120	2167448	80	50	380	1	1	1679223.3782396	1679223.3786778	80	1679226.7227627	1679226.7232814	40	1679229.9560189	1679229.9565125	100	del	1679235.3891737	1679235.902882	1679235.9035413	120.0	3.0	1679236.9475956
1080.9521484375	0.0	80	2213790	81	67	380	1	1	1679258.5314622	1679258.531964	80	1679261.9246197	1679261.9250747	40	1679265.0222145	1679265.0227354	100	del	1679265.7318198	1679266.2448532	1679266.2453822	120.0	3.0	1679267.3562966
1084.34521484375	0.0	40	2220739	81	67	380	1	1	1679258.5314622	1679258.531964	80	1679261.9246197	1679261.9250747	40	1679265.0222145	1679265.0227354	100	del	1679265.7318198	1679266.2448532	1679266.2453822	120.0	3.0	1679267.3562966
1087.4423828125	0.0	100	2227082	81	67	380	1	1	1679258.5314622	1679258.531964	80	1679261.9246197	1679261.9250747	40	1679265.0222145	1679265.0227354	100	del	1679265.7318198	1679266.2448532	1679266.2453822	120.0	3.0	1679267.3562966
1088.6650390625	0.0	120	2229586	81	67	380	1	1	1679258.5314622	1679258.531964	80	1679261.9246197	1679261.9250747	40	1679265.0222145	1679265.0227354	100	del	1679265.7318198	1679266.2448532	1679266.2453822	120.0	3.0	1679267.3562966
1092.2236328125	0.0	80	2236874	82	93	380	1	0	1679269.8034144	1679269.8039403	80	1679273.3066208	1679273.3070297	40	1679276.5775627	1679276.5780433	100	del	1679277.8516602	1679278.3669982	1679278.367572	120.0	3.0	1679279.0358369
1095.7265625	0.0	40	2244048	82	93	380	1	0	1679269.8034144	1679269.8039403	80	1679273.3066208	1679273.3070297	40	1679276.5775627	1679276.5780433	100	del	1679277.8516602	1679278.3669982	1679278.367572	120.0	3.0	1679279.0358369
1098.99755859375	0.0	100	2250747	82	93	380	1	0	1679269.8034144	1679269.8039403	80	1679273.3066208	1679273.3070297	40	1679276.5775627	1679276.5780433	100	del	1679277.8516602	1679278.3669982	1679278.367572	120.0	3.0	1679279.0358369
1100.787109375	0.0	120	2254412	82	93	380	1	0	1679269.8034144	1679269.8039403	80	1679273.3066208	1679273.3070297	40	1679276.5775627	1679276.5780433	100	del	1679277.8516602	1679278.3669982	1679278.367572	120.0	3.0	1679279.0358369
1103.91357421875	0.0	80	2260815	83	100	90	0	1	1679281.4937119	1679281.494171	80	1679284.7969007	1679284.798158	40	1679287.8885991	1679287.889106	100	del	1679289.1316894	nan	nan	nan	nan	nan
1107.21630859375	0.0	40	2267579	83	100	90	0	1	1679281.4937119	1679281.494171	80	1679284.7969007	1679284.798158	40	1679287.8885991	1679287.889106	100	del	1679289.1316894	nan	nan	nan	nan	nan
1110.30810546875	0.0	100	2273911	83	100	90	0	1	1679281.4937119	1679281.494171	80	1679284.7969007	1679284.798158	40	1679287.8885991	1679287.889106	100	del	1679289.1316894	nan	nan	nan	nan	nan
1114.17041015625	0.0	80	2281821	84	83	5	1	0	1679291.7505752	1679291.7510824	80	1679294.9618331	1679294.962313	40	1679298.3494783	1679298.3499879	100	del	1679301.6194893	1679302.133453	1679302.1339514	120.0	3.0	1679303.763663
1117.38134765625	0.0	40	2288397	84	83	5	1	0	1679291.7505752	1679291.7510824	80	1679294.9618331	1679294.962313	40	1679298.3494783	1679298.3499879	100	del	1679301.6194893	1679302.133453	1679302.1339514	120.0	3.0	1679303.763663
1120.76904296875	0.0	100	2295335	84	83	5	1	0	1679291.7505752	1679291.7510824	80	1679294.9618331	1679294.962313	40	1679298.3494783	1679298.3499879	100	del	1679301.6194893	1679302.133453	1679302.1339514	120.0	3.0	1679303.763663
1124.552734375	0.0	120	2303084	84	83	5	1	0	1679291.7505752	1679291.7510824	80	1679294.9618331	1679294.962313	40	1679298.3494783	1679298.3499879	100	del	1679301.6194893	1679302.133453	1679302.1339514	120.0	3.0	1679303.763663
1128.60595703125	0.0	80	2311385	85	83	20	0	1	1679306.1870208	1679306.187364	80	1679309.5894116	1679309.5898595	40	1679312.7629401	1679312.7634807	100	del	1679313.8839	nan	nan	nan	nan	nan
1132.0087890625	0.0	40	2318354	85	83	20	0	1	1679306.1870208	1679306.187364	80	1679309.5894116	1679309.5898595	40	1679312.7629401	1679312.7634807	100	del	1679313.8839	nan	nan	nan	nan	nan
1135.18212890625	0.0	100	2324853	85	83	20	0	1	1679306.1870208	1679306.187364	80	1679309.5894116	1679309.5898595	40	1679312.7629401	1679312.7634807	100	del	1679313.8839	nan	nan	nan	nan	nan
1139.0888671875	0.0	80	2332854	86	60	1150	0	1	1679316.6700647	1679316.6705527	80	1679319.7234303	1679319.7238885	40	1679322.7928762	1679322.7934044	100	imm	1679323.5076279	nan	nan	nan	nan	nan
1142.142578125	0.0	40	2339108	86	60	1150	0	1	1679316.6700647	1679316.6705527	80	1679319.7234303	1679319.7238885	40	1679322.7928762	1679322.7934044	100	imm	1679323.5076279	nan	nan	nan	nan	nan
1145.2119140625	0.0	100	2345394	86	60	1150	0	1	1679316.6700647	1679316.6705527	80	1679319.7234303	1679319.7238885	40	1679322.7928762	1679322.7934044	100	imm	1679323.5076279	nan	nan	nan	nan	nan
1148.51318359375	0.0	80	2352155	87	70	200	1	0	1679326.0946077	1679326.0950911	80	1679329.4422742	1679329.4427436	40	1679332.7055486	1679332.7060136	100	del	1679334.2599774	1679334.7734612	1679334.773978	120.0	2.0	1679335.923634
1151.86083984375	0.0	40	2359011	87	70	200	1	0	1679326.0946077	1679326.0950911	80	1679329.4422742	1679329.4427436	40	1679332.7055486	1679332.7060136	100	del	1679334.2599774	1679334.7734612	1679334.773978	120.0	2.0	1679335.923634
1155.1240234375	0.0	100	2365694	87	70	200	1	0	1679326.0946077	1679326.0950911	80	1679329.4422742	1679329.4427436	40	1679332.7055486	1679332.7060136	100	del	1679334.2599774	1679334.7734612	1679334.773978	120.0	2.0	1679335.923634
1157.19189453125	0.0	120	2369929	87	70	200	1	0	1679326.0946077	1679326.0950911	80	1679329.4422742	1679329.4427436	40	1679332.7055486	1679332.7060136	100	del	1679334.2599774	1679334.7734612	1679334.773978	120.0	2.0	1679335.923634
1160.4541015625	0.0	80	2376610	88	50	800	1	1	1679338.0355433	1679338.0360575	80	1679341.2917532	1679341.292271	40	1679344.3807631	1679344.3812353	100	imm	1679345.5478231	1679346.0619709	1679346.0624491	120.0	3.0	1679348.0039929
1163.7099609375	0.0	40	2383278	88	50	800	1	1	1679338.0355433	1679338.0360575	80	1679341.2917532	1679341.292271	40	1679344.3807631	1679344.3812353	100	imm	1679345.5478231	1679346.0619709	1679346.0624491	120.0	3.0	1679348.0039929
1166.79931640625	0.0	100	2389605	88	50	800	1	1	1679338.0355433	1679338.0360575	80	1679341.2917532	1679341.292271	40	1679344.3807631	1679344.3812353	100	imm	1679345.5478231	1679346.0619709	1679346.0624491	120.0	3.0	1679348.0039929
1168.48046875	0.0	120	2393048	88	50	800	1	1	1679338.0355433	1679338.0360575	80	1679341.2917532	1679341.292271	40	1679344.3807631	1679344.3812353	100	imm	1679345.5478231	1679346.0619709	1679346.0624491	120.0	3.0	1679348.0039929
1172.46923828125	0.0	80	2401217	89	87	800	1	0	1679350.0508791	1679350.0513875	80	1679353.4839608	1679353.4844727	40	1679356.7800755	1679356.7805885	100	imm	1679357.7476171	1679358.2617115	1679358.2625987	120.0	1.0	1679360.2919737
1175.90185546875	0.0	40	2408247	89	87	800	1	0	1679350.0508791	1679350.0513875	80	1679353.4839608	1679353.4844727	40	1679356.7800755	1679356.7805885	100	imm	1679357.7476171	1679358.2617115	1679358.2625987	120.0	1.0	1679360.2919737
1179.1982421875	0.0	100	2414998	89	87	800	1	0	1679350.0508791	1679350.0513875	80	1679353.4839608	1679353.4844727	40	1679356.7800755	1679356.7805885	100	imm	1679357.7476171	1679358.2617115	1679358.2625987	120.0	1.0	1679360.2919737
1180.6796875	0.0	120	2418032	89	87	800	1	0	1679350.0508791	1679350.0513875	80	1679353.4839608	1679353.4844727	40	1679356.7800755	1679356.7805885	100	imm	1679357.7476171	1679358.2617115	1679358.2625987	120.0	1.0	1679360.2919737
1185.19140625	0.0	80	2427272	90	93	20	0	0	1679362.7733643	1679362.7738652	80	1679366.1282373	1679366.1285497	40	1679369.4336304	1679369.4342329	100	del	1679370.1871362	nan	nan	nan	nan	nan
1188.5458984375	0.0	40	2434142	90	93	20	0	0	1679362.7733643	1679362.7738652	80	1679366.1282373	1679366.1285497	40	1679369.4336304	1679369.4342329	100	del	1679370.1871362	nan	nan	nan	nan	nan
1191.8515625	0.0	100	2440912	90	93	20	0	0	1679362.7733643	1679362.7738652	80	1679366.1282373	1679366.1285497	40	1679369.4336304	1679369.4342329	100	del	1679370.1871362	nan	nan	nan	nan	nan
1195.533203125	0.0	80	2448452	91	67	280	0	1	1679373.1155359	1679373.1159505	80	1679376.5626297	1679376.5631069	40	1679380.0739742	1679380.0745014	100	imm	1679380.971017	nan	nan	nan	nan	nan
1198.97998046875	0.0	40	2455511	91	67	280	0	1	1679373.1155359	1679373.1159505	80	1679376.5626297	1679376.5631069	40	1679380.0739742	1679380.0745014	100	imm	1679380.971017	nan	nan	nan	nan	nan
1202.4912109375	0.0	100	2462702	91	67	280	0	1	1679373.1155359	1679373.1159505	80	1679376.5626297	1679376.5631069	40	1679380.0739742	1679380.0745014	100	imm	1679380.971017	nan	nan	nan	nan	nan
1205.9072265625	0.0	80	2469698	92	57	5	1	0	1679383.489744	1679383.490159	80	1679386.9300717	1679386.9305849	40	1679390.2497709	1679390.2503001	100	del	1679390.9954153	1679391.5091382	1679391.5096475	120.0	1.0	1679394.2285659
1209.34716796875	0.0	40	2476743	92	57	5	1	0	1679383.489744	1679383.490159	80	1679386.9300717	1679386.9305849	40	1679390.2497709	1679390.2503001	100	del	1679390.9954153	1679391.5091382	1679391.5096475	120.0	1.0	1679394.2285659
1212.6669921875	0.0	100	2483542	92	57	5	1	0	1679383.489744	1679383.490159	80	1679386.9300717	1679386.9305849	40	1679390.2497709	1679390.2503001	100	del	1679390.9954153	1679391.5091382	1679391.5096475	120.0	1.0	1679394.2285659
1213.92626953125	0.0	120	2486121	92	57	5	1	0	1679383.489744	1679383.490159	80	1679386.9300717	1679386.9305849	40	1679390.2497709	1679390.2503001	100	del	1679390.9954153	1679391.5091382	1679391.5096475	120.0	1.0	1679394.2285659
1219.1572265625	0.0	80	2496834	93	100	20	0	0	1679396.74012	1679396.7406125	80	1679400.011673	1679400.0121696	40	1679403.2644124	1679403.2649037	100	del	1679404.2670723	nan	nan	nan	nan	nan
1222.4287109375	0.0	40	2503534	93	100	20	0	0	1679396.74012	1679396.7406125	80	1679400.011673	1679400.0121696	40	1679403.2644124	1679403.2649037	100	del	1679404.2670723	nan	nan	nan	nan	nan
1225.68115234375	0.0	100	2510195	93	100	20	0	0	1679396.74012	1679396.7406125	80	1679400.011673	1679400.0121696	40	1679403.2644124	1679403.2649037	100	del	1679404.2670723	nan	nan	nan	nan	nan
1229.60400390625	0.0	80	2518229	94	77	560	0	0	1679407.1870756	1679407.1874964	80	1679410.3086192	1679410.3091256	40	1679413.571559	1679413.572048	100	del	1679414.6679147	nan	nan	nan	nan	nan
1232.72509765625	0.0	40	2524621	94	77	560	0	0	1679407.1870756	1679407.1874964	80	1679410.3086192	1679410.3091256	40	1679413.571559	1679413.572048	100	del	1679414.6679147	nan	nan	nan	nan	nan
1235.98828125	0.0	100	2531304	94	77	560	0	0	1679407.1870756	1679407.1874964	80	1679410.3086192	1679410.3091256	40	1679413.571559	1679413.572048	100	del	1679414.6679147	nan	nan	nan	nan	nan
1240.0517578125	0.0	80	2539626	95	60	280	0	0	1679417.6353975	1679417.6357489	80	1679420.9302463	1679420.9307079	40	1679424.36619	1679424.3666906	100	del	1679430.0678915	nan	nan	nan	nan	nan
1243.3466796875	0.0	40	2546374	95	60	280	0	0	1679417.6353975	1679417.6357489	80	1679420.9302463	1679420.9307079	40	1679424.36619	1679424.3666906	100	del	1679430.0678915	nan	nan	nan	nan	nan
1246.78271484375	0.0	100	2553411	95	60	280	0	0	1679417.6353975	1679417.6357489	80	1679420.9302463	1679420.9307079	40	1679424.36619	1679424.3666906	100	del	1679430.0678915	nan	nan	nan	nan	nan
1255.3720703125	0.0	80	2571002	96	50	90	0	0	1679432.9561467	1679432.9566133	80	1679436.2570415	1679436.2575707	40	1679439.3936182	1679439.3942094	100	del	1679440.2364803	nan	nan	nan	nan	nan
1258.67333984375	0.0	40	2577763	96	50	90	0	0	1679432.9561467	1679432.9566133	80	1679436.2570415	1679436.2575707	40	1679439.3936182	1679439.3942094	100	del	1679440.2364803	nan	nan	nan	nan	nan
1261.8095703125	0.0	100	2584186	96	50	90	0	0	1679432.9561467	1679432.9566133	80	1679436.2570415	1679436.2575707	40	1679439.3936182	1679439.3942094	100	del	1679440.2364803	nan	nan	nan	nan	nan
1265.5048828125	0.0	80	2591754	97	87	35	1	0	1679443.0891977	1679443.0896343	80	1679446.1384591	1679446.1389728	40	1679449.4587609	1679449.458993	100	del	1679457.3958611	1679457.9093664	1679457.9099211	120.0	1.0	1679459.5647174
1268.55419921875	0.0	40	2597999	97	87	35	1	0	1679443.0891977	1679443.0896343	80	1679446.1384591	1679446.1389728	40	1679449.4587609	1679449.458993	100	del	1679457.3958611	1679457.9093664	1679457.9099211	120.0	1.0	1679459.5647174
1271.875	0.0	100	2604800	97	87	35	1	0	1679443.0891977	1679443.0896343	80	1679446.1384591	1679446.1389728	40	1679449.4587609	1679449.458993	100	del	1679457.3958611	1679457.9093664	1679457.9099211	120.0	1.0	1679459.5647174
1280.3251953125	0.0	120	2622106	97	87	35	1	0	1679443.0891977	1679443.0896343	80	1679446.1384591	1679446.1389728	40	1679449.4587609	1679449.458993	100	del	1679457.3958611	1679457.9093664	1679457.9099211	120.0	1.0	1679459.5647174
1284.32763671875	0.0	80	2630303	98	90	35	1	0	1679461.9120478	1679461.9125649	80	1679465.2848071	1679465.2852578	40	1679468.7446761	1679468.7452159	100	del	1679472.1717431	1679472.6850697	1679472.6856009	120.0	3.0	1679473.9151708
1287.7001953125	0.0	40	2637210	98	90	35	1	0	1679461.9120478	1679461.9125649	80	1679465.2848071	1679465.2852578	40	1679468.7446761	1679468.7452159	100	del	1679472.1717431	1679472.6850697	1679472.6856009	120.0	3.0	1679473.9151708
1291.16015625	0.0	100	2644296	98	90	35	1	0	1679461.9120478	1679461.9125649	80	1679465.2848071	1679465.2852578	40	1679468.7446761	1679468.7452159	100	del	1679472.1717431	1679472.6850697	1679472.6856009	120.0	3.0	1679473.9151708
1295.10009765625	0.0	120	2652365	98	90	35	1	0	1679461.9120478	1679461.9125649	80	1679465.2848071	1679465.2852578	40	1679468.7446761	1679468.7452159	100	del	1679472.1717431	1679472.6850697	1679472.6856009	120.0	3.0	1679473.9151708
1298.83837890625	0.0	80	2660021	99	70	560	0	0	1679476.4231798	1679476.4237129	80	1679479.815914	1679479.8163624	40	1679483.1197997	1679483.1202631	100	del	1679487.771544	nan	nan	nan	nan	nan
1302.23095703125	0.0	40	2666969	99	70	560	0	0	1679476.4231798	1679476.4237129	80	1679479.815914	1679479.8163624	40	1679483.1197997	1679483.1202631	100	del	1679487.771544	nan	nan	nan	nan	nan
1305.53466796875	0.0	100	2673735	99	70	560	0	0	1679476.4231798	1679476.4237129	80	1679479.815914	1679479.8163624	40	1679483.1197997	1679483.1202631	100	del	1679487.771544	nan	nan	nan	nan	nan
1313.16796875	0.0	80	2689368	100	73	380	1	1	1679490.7532069	1679490.7537221	80	1679494.0512089	1679494.0516718	40	1679497.0740066	1679497.0746266	100	del	1679500.9953848	1679501.5094461	1679501.5099224	120.0	3.0	1679502.9476073
1316.4658203125	0.0	40	2696122	100	73	380	1	1	1679490.7532069	1679490.7537221	80	1679494.0512089	1679494.0516718	40	1679497.0740066	1679497.0746266	100	del	1679500.9953848	1679501.5094461	1679501.5099224	120.0	3.0	1679502.9476073
1319.48876953125	0.0	100	2702313	100	73	380	1	1	1679490.7532069	1679490.7537221	80	1679494.0512089	1679494.0516718	40	1679497.0740066	1679497.0746266	100	del	1679500.9953848	1679501.5094461	1679501.5099224	120.0	3.0	1679502.9476073
1323.923828125	0.0	120	2711396	100	73	380	1	1	1679490.7532069	1679490.7537221	80	1679494.0512089	1679494.0516718	40	1679497.0740066	1679497.0746266	100	del	1679500.9953848	1679501.5094461	1679501.5099224	120.0	3.0	1679502.9476073
1374.8984375	0.0	80	2815792	101	50	35	1	0	1679552.4854344	1679552.4859373	80	1679555.9244436	1679555.9248962	40	1679559.1798291	1679559.1803269	100	del	1679560.0925665	1679560.6063965	1679560.6068984	120.0	3.0	1679562.3949247
1378.33740234375	0.0	40	2822835	101	50	35	1	0	1679552.4854344	1679552.4859373	80	1679555.9244436	1679555.9248962	40	1679559.1798291	1679559.1803269	100	del	1679560.0925665	1679560.6063965	1679560.6068984	120.0	3.0	1679562.3949247
1381.5927734375	0.0	100	2829502	101	50	35	1	0	1679552.4854344	1679552.4859373	80	1679555.9244436	1679555.9248962	40	1679559.1798291	1679559.1803269	100	del	1679560.0925665	1679560.6063965	1679560.6068984	120.0	3.0	1679562.3949247
1383.01953125	0.0	120	2832424	101	50	35	1	0	1679552.4854344	1679552.4859373	80	1679555.9244436	1679555.9248962	40	1679559.1798291	1679559.1803269	100	del	1679560.0925665	1679560.6063965	1679560.6068984	120.0	3.0	1679562.3949247
1387.24755859375	0.0	80	2841083	102	73	280	0	1	1679564.8345806	1679564.8350348	80	1679567.9483986	1679567.9489533	40	1679571.2383891	1679571.2389023	100	del	1679572.4346501	nan	nan	nan	nan	nan
1390.361328125	0.0	40	2847460	102	73	280	0	1	1679564.8345806	1679564.8350348	80	1679567.9483986	1679567.9489533	40	1679571.2383891	1679571.2389023	100	del	1679572.4346501	nan	nan	nan	nan	nan
1393.65087890625	0.0	100	2854197	102	73	280	0	1	1679564.8345806	1679564.8350348	80	1679567.9483986	1679567.9489533	40	1679571.2383891	1679571.2389023	100	del	1679572.4346501	nan	nan	nan	nan	nan
1397.6806640625	0.0	80	2862450	103	67	20	0	1	1679575.2681719	1679575.2686814	80	1679578.2918168	1679578.292233	40	1679581.6126552	1679581.6133067	100	del	1679582.2113617	nan	nan	nan	nan	nan
1400.70458984375	0.0	40	2868643	103	67	20	0	1	1679575.2681719	1679575.2686814	80	1679578.2918168	1679578.292233	40	1679581.6126552	1679581.6133067	100	del	1679582.2113617	nan	nan	nan	nan	nan
1404.025390625	0.0	100	2875444	103	67	20	0	1	1679575.2681719	1679575.2686814	80	1679578.2918168	1679578.292233	40	1679581.6126552	1679581.6133067	100	del	1679582.2113617	nan	nan	nan	nan	nan
1407.322265625	0.0	80	2882196	104	90	1150	0	1	1679584.9099979	1679584.9104648	80	1679587.94353	1679587.9439974	40	1679591.2026883	1679591.2031587	100	imm	1679592.6602605	nan	nan	nan	nan	nan
1410.35595703125	0.0	40	2888409	104	90	1150	0	1	1679584.9099979	1679584.9104648	80	1679587.94353	1679587.9439974	40	1679591.2026883	1679591.2031587	100	imm	1679592.6602605	nan	nan	nan	nan	nan
1413.61474609375	0.0	100	2895083	104	90	1150	0	1	1679584.9099979	1679584.9104648	80	1679587.94353	1679587.9439974	40	1679591.2026883	1679591.2031587	100	imm	1679592.6602605	nan	nan	nan	nan	nan
1417.68798828125	0.0	80	2903425	105	90	5	1	1	1679595.2757504	1679595.2777286	80	1679598.347153	1679598.3476804	40	1679601.464619	1679601.4651366	100	del	1679603.9067911	1679604.4207006	1679604.4211635	120.0	1.0	1679606.0586334
1420.75927734375	0.0	40	2909715	105	90	5	1	1	1679595.2757504	1679595.2777286	80	1679598.347153	1679598.3476804	40	1679601.464619	1679601.4651366	100	del	1679603.9067911	1679604.4207006	1679604.4211635	120.0	1.0	1679606.0586334
1423.87646484375	0.0	100	2916099	105	90	5	1	1	1679595.2757504	1679595.2777286	80	1679598.347153	1679598.3476804	40	1679601.464619	1679601.4651366	100	del	1679603.9067911	1679604.4207006	1679604.4211635	120.0	1.0	1679606.0586334
1426.83251953125	0.0	120	2922153	105	90	5	1	1	1679595.2757504	1679595.2777286	80	1679598.347153	1679598.3476804	40	1679601.464619	1679601.4651366	100	del	1679603.9067911	1679604.4207006	1679604.4211635	120.0	1.0	1679606.0586334
1430.56005859375	0.0	80	2929787	106	53	5	1	0	1679608.1480646	1679608.1485343	80	1679611.250369	1679611.2507906	40	1679614.2853008	1679614.2858431	100	del	1679617.9472738	1679618.4617434	1679618.4621849	120.0	3.0	1679619.867286
1433.662109375	0.0	40	2936140	106	53	5	1	0	1679608.1480646	1679608.1485343	80	1679611.250369	1679611.2507906	40	1679614.2853008	1679614.2858431	100	del	1679617.9472738	1679618.4617434	1679618.4621849	120.0	3.0	1679619.867286
1436.69677734375	0.0	100	2942355	106	53	5	1	0	1679608.1480646	1679608.1485343	80	1679611.250369	1679611.2507906	40	1679614.2853008	1679614.2858431	100	del	1679617.9472738	1679618.4617434	1679618.4621849	120.0	3.0	1679619.867286
1440.87353515625	0.0	120	2950909	106	53	5	1	0	1679608.1480646	1679608.1485343	80	1679611.250369	1679611.2507906	40	1679614.2853008	1679614.2858431	100	del	1679617.9472738	1679618.4617434	1679618.4621849	120.0	3.0	1679619.867286
1444.61376953125	0.0	80	2958569	107	63	1150	0	0	1679622.2023413	1679622.2028299	80	1679625.351077	1679625.3516064	40	1679628.6341799	1679628.6346702	100	imm	1679629.5954571	nan	nan	nan	nan	nan
1447.7626953125	0.0	40	2965018	107	63	1150	0	0	1679622.2023413	1679622.2028299	80	1679625.351077	1679625.3516064	40	1679628.6341799	1679628.6346702	100	imm	1679629.5954571	nan	nan	nan	nan	nan
1451.04541015625	0.0	100	2971741	107	63	1150	0	0	1679622.2023413	1679622.2028299	80	1679625.351077	1679625.3516064	40	1679628.6341799	1679628.6346702	100	imm	1679629.5954571	nan	nan	nan	nan	nan
1454.873046875	0.0	80	2979580	108	50	5	1	1	1679632.4617466	1679632.4622105	80	1679635.7190857	1679635.7195644	40	1679639.0005907	1679639.0010804	100	del	1679639.5549508	1679640.0681767	1679640.0686553	120.0	1.0	1679641.9788943
1458.13037109375	0.0	40	2986251	108	50	5	1	1	1679632.4617466	1679632.4622105	80	1679635.7190857	1679635.7195644	40	1679639.0005907	1679639.0010804	100	del	1679639.5549508	1679640.0681767	1679640.0686553	120.0	1.0	1679641.9788943
1461.41162109375	0.0	100	2992971	108	50	5	1	1	1679632.4617466	1679632.4622105	80	1679635.7190857	1679635.7195644	40	1679639.0005907	1679639.0010804	100	del	1679639.5549508	1679640.0681767	1679640.0686553	120.0	1.0	1679641.9788943
1462.47900390625	0.0	120	2995157	108	50	5	1	1	1679632.4617466	1679632.4622105	80	1679635.7190857	1679635.7195644	40	1679639.0005907	1679639.0010804	100	del	1679639.5549508	1679640.0681767	1679640.0686553	120.0	1.0	1679641.9788943
1466.62841796875	0.0	80	3003655	109	100	280	0	1	1679644.217423	1679644.2179136	80	1679647.2871454	1679647.2877122	40	1679650.5461516	1679650.5466165	100	del	1679654.0918601	nan	nan	nan	nan	nan
1469.69775390625	0.0	40	3009941	109	100	280	0	1	1679644.217423	1679644.2179136	80	1679647.2871454	1679647.2877122	40	1679650.5461516	1679650.5466165	100	del	1679654.0918601	nan	nan	nan	nan	nan
1472.95703125	0.0	100	3016616	109	100	280	0	1	1679644.217423	1679644.2179136	80	1679647.2871454	1679647.2877122	40	1679650.5461516	1679650.5466165	100	del	1679654.0918601	nan	nan	nan	nan	nan
1479.44970703125	0.0	80	3029913	110	90	800	1	0	1679657.0389012	1679657.0394063	80	1679660.483419	1679660.4838736	40	1679663.6326503	1679663.6331253	100	imm	1679664.5465272	1679665.0560472	1679665.0562863	120.0	1.0	1679667.0755929
1482.89404296875	0.0	40	3036967	110	90	800	1	0	1679657.0389012	1679657.0394063	80	1679660.483419	1679660.4838736	40	1679663.6326503	1679663.6331253	100	imm	1679664.5465272	1679665.0560472	1679665.0562863	120.0	1.0	1679667.0755929
1486.04296875	0.0	100	3043416	110	90	800	1	0	1679657.0389012	1679657.0394063	80	1679660.483419	1679660.4838736	40	1679663.6326503	1679663.6331253	100	imm	1679664.5465272	1679665.0560472	1679665.0562863	120.0	1.0	1679667.0755929
1487.466796875	0.0	120	3046332	110	90	800	1	0	1679657.0389012	1679657.0394063	80	1679660.483419	1679660.4838736	40	1679663.6326503	1679663.6331253	100	imm	1679664.5465272	1679665.0560472	1679665.0562863	120.0	1.0	1679667.0755929
1491.60693359375	0.0	80	3054811	111	60	800	1	1	1679669.1965362	1679669.1970147	80	1679672.4871873	1679672.4876634	40	1679675.8212443	1679675.8217264	100	imm	1679679.7629656	1679680.2766808	1679680.2772097	120.0	3.0	1679680.947467
1494.8974609375	0.0	40	3061550	111	60	800	1	1	1679669.1965362	1679669.1970147	80	1679672.4871873	1679672.4876634	40	1679675.8212443	1679675.8217264	100	imm	1679679.7629656	1679680.2766808	1679680.2772097	120.0	3.0	1679680.947467
1498.2314453125	0.0	100	3068378	111	60	800	1	1	1679669.1965362	1679669.1970147	80	1679672.4871873	1679672.4876634	40	1679675.8212443	1679675.8217264	100	imm	1679679.7629656	1679680.2766808	1679680.2772097	120.0	3.0	1679680.947467
1502.6865234375	0.0	120	3077502	111	60	800	1	1	1679669.1965362	1679669.1970147	80	1679672.4871873	1679672.4876634	40	1679675.8212443	1679675.8217264	100	imm	1679679.7629656	1679680.2766808	1679680.2772097	120.0	3.0	1679680.947467
1505.58251953125	0.0	80	3083433	112	77	200	1	0	1679683.172737	1679683.1732842	80	1679686.2836075	1679686.2840324	40	1679689.7711364	1679689.7728479	100	del	1679691.115067	1679691.6283905	1679691.6289196	120.0	3.0	1679692.162462
1508.693359375	0.0	40	3089804	112	77	200	1	0	1679683.172737	1679683.1732842	80	1679686.2836075	1679686.2840324	40	1679689.7711364	1679689.7728479	100	del	1679691.115067	1679691.6283905	1679691.6289196	120.0	3.0	1679692.162462
1512.1806640625	0.0	100	3096946	112	77	200	1	0	1679683.172737	1679683.1732842	80	1679686.2836075	1679686.2840324	40	1679689.7711364	1679689.7728479	100	del	1679691.115067	1679691.6283905	1679691.6289196	120.0	3.0	1679692.162462
1514.0380859375	0.0	120	3100750	112	77	200	1	0	1679683.172737	1679683.1732842	80	1679686.2836075	1679686.2840324	40	1679689.7711364	1679689.7728479	100	del	1679691.115067	1679691.6283905	1679691.6289196	120.0	3.0	1679692.162462
1516.62890625	0.0	80	3106056	113	93	280	0	0	1679694.2191763	1679694.2196416	80	1679697.2798384	1679697.2803221	40	1679700.3657604	1679700.3664654	100	del	1679702.4984946	nan	nan	nan	nan	nan
1519.689453125	0.0	40	3112324	113	93	280	0	0	1679694.2191763	1679694.2196416	80	1679697.2798384	1679697.2803221	40	1679700.3657604	1679700.3664654	100	del	1679702.4984946	nan	nan	nan	nan	nan
1522.775390625	0.0	100	3118644	113	93	280	0	0	1679694.2191763	1679694.2196416	80	1679697.2798384	1679697.2803221	40	1679700.3657604	1679700.3664654	100	del	1679702.4984946	nan	nan	nan	nan	nan
1527.51025390625	0.0	80	3128341	114	97	560	0	0	1679705.1007014	1679705.10121	80	1679708.4190852	1679708.4195642	40	1679711.7208702	1679711.7214467	100	imm	1679713.0120133	nan	nan	nan	nan	nan
1530.82861328125	0.0	40	3135137	114	97	560	0	0	1679705.1007014	1679705.10121	80	1679708.4190852	1679708.4195642	40	1679711.7208702	1679711.7214467	100	imm	1679713.0120133	nan	nan	nan	nan	nan
1534.13037109375	0.0	100	3141899	114	97	560	0	0	1679705.1007014	1679705.10121	80	1679708.4190852	1679708.4195642	40	1679711.7208702	1679711.7214467	100	imm	1679713.0120133	nan	nan	nan	nan	nan
1537.96826171875	0.0	80	3149759	115	63	5	1	0	1679715.5593281	1679715.5597936	80	1679719.0336257	1679719.034108	40	1679722.411933	1679722.4125997	100	del	1679723.2668064	1679723.7814277	1679723.7819974	120.0	3.0	1679724.1064208
1541.44287109375	0.0	40	3156875	115	63	5	1	0	1679715.5593281	1679715.5597936	80	1679719.0336257	1679719.034108	40	1679722.411933	1679722.4125997	100	del	1679723.2668064	1679723.7814277	1679723.7819974	120.0	3.0	1679724.1064208
1544.8212890625	0.0	100	3163794	115	63	5	1	0	1679715.5593281	1679715.5597936	80	1679719.0336257	1679719.034108	40	1679722.411933	1679722.4125997	100	del	1679723.2668064	1679723.7814277	1679723.7819974	120.0	3.0	1679724.1064208
1546.1904296875	0.0	120	3166598	115	63	5	1	0	1679715.5593281	1679715.5597936	80	1679719.0336257	1679719.034108	40	1679722.411933	1679722.4125997	100	del	1679723.2668064	1679723.7814277	1679723.7819974	120.0	3.0	1679724.1064208
1548.900390625	0.0	80	3172148	116	60	380	1	1	1679726.4916419	1679726.4921042	80	1679729.532989	1679729.5334368	40	1679732.9770755	1679732.9775517	100	del	1679735.9307556	1679736.4402125	1679736.4405138	120.0	3.0	1679737.8504787
1551.94189453125	0.0	40	3178377	116	60	380	1	1	1679726.4916419	1679726.4921042	80	1679729.532989	1679729.5334368	40	1679732.9770755	1679732.9775517	100	del	1679735.9307556	1679736.4402125	1679736.4405138	120.0	3.0	1679737.8504787
1555.3857421875	0.0	100	3185430	116	60	380	1	1	1679726.4916419	1679726.4921042	80	1679729.532989	1679729.5334368	40	1679732.9770755	1679732.9775517	100	del	1679735.9307556	1679736.4402125	1679736.4405138	120.0	3.0	1679737.8504787
1558.8486328125	0.0	120	3192522	116	60	380	1	1	1679726.4916419	1679726.4921042	80	1679729.532989	1679729.5334368	40	1679732.9770755	1679732.9775517	100	del	1679735.9307556	1679736.4402125	1679736.4405138	120.0	3.0	1679737.8504787
1562.744140625	0.0	80	3200500	117	90	90	0	1	1679740.3355508	1679740.3362411	80	1679743.8357063	1679743.8362307	40	1679747.2793842	1679747.279901	100	del	1679748.7071322	nan	nan	nan	nan	nan
1566.244140625	0.0	40	3207668	117	90	90	0	1	1679740.3355508	1679740.3362411	80	1679743.8357063	1679743.8362307	40	1679747.2793842	1679747.279901	100	del	1679748.7071322	nan	nan	nan	nan	nan
1569.68798828125	0.0	100	3214721	117	90	90	0	1	1679740.3355508	1679740.3362411	80	1679743.8357063	1679743.8362307	40	1679747.2793842	1679747.279901	100	del	1679748.7071322	nan	nan	nan	nan	nan
1574.0263671875	0.0	80	3223606	118	90	560	0	0	1679751.6183527	1679751.6188825	80	1679754.8827221	1679754.8831677	40	1679757.9851872	1679757.9857091	100	na	1679761.6906923	nan	nan	nan	nan	nan
1577.291015625	0.0	40	3230292	118	90	560	0	0	1679751.6183527	1679751.6188825	80	1679754.8827221	1679754.8831677	40	1679757.9851872	1679757.9857091	100	na	1679761.6906923	nan	nan	nan	nan	nan
1580.39306640625	0.0	100	3236645	118	90	560	0	0	1679751.6183527	1679751.6188825	80	1679754.8827221	1679754.8831677	40	1679757.9851872	1679757.9857091	100	na	1679761.6906923	nan	nan	nan	nan	nan
1586.8173828125	0.0	80	3249802	119	53	380	1	1	1679764.4096945	1679764.410195	80	1679767.4843872	1679767.4847945	40	1679770.5133634	1679770.5138439	100	del	1679771.9867385	1679772.5002568	1679772.5007758	120.0	3.0	1679773.8679421
1589.89208984375	0.0	40	3256099	119	53	380	1	1	1679764.4096945	1679764.410195	80	1679767.4843872	1679767.4847945	40	1679770.5133634	1679770.5138439	100	del	1679771.9867385	1679772.5002568	1679772.5007758	120.0	3.0	1679773.8679421
1592.9208984375	0.0	100	3262302	119	53	380	1	1	1679764.4096945	1679764.410195	80	1679767.4843872	1679767.4847945	40	1679770.5133634	1679770.5138439	100	del	1679771.9867385	1679772.5002568	1679772.5007758	120.0	3.0	1679773.8679421
1594.908203125	0.0	120	3266372	119	53	380	1	1	1679764.4096945	1679764.410195	80	1679767.4843872	1679767.4847945	40	1679770.5133634	1679770.5138439	100	del	1679771.9867385	1679772.5002568	1679772.5007758	120.0	3.0	1679773.8679421
1598.76123046875	0.0	80	3274263	120	97	280	0	0	1679776.3536889	1679776.3546585	80	1679779.5134547	1679779.5139427	40	1679782.6746398	1679782.6751577	100	del	1679783.4426691	nan	nan	nan	nan	nan
1601.9208984375	0.0	40	3280734	120	97	280	0	0	1679776.3536889	1679776.3546585	80	1679779.5134547	1679779.5139427	40	1679782.6746398	1679782.6751577	100	del	1679783.4426691	nan	nan	nan	nan	nan
1605.08203125	0.0	100	3287208	120	97	280	0	0	1679776.3536889	1679776.3546585	80	1679779.5134547	1679779.5139427	40	1679782.6746398	1679782.6751577	100	del	1679783.4426691	nan	nan	nan	nan	nan
1652.8017578125	0.0	80	3384938	121	57	800	1	1	1679830.3954365	1679830.3959308	80	1679833.6372485	1679833.6376778	40	1679836.9748495	1679836.9753712	100	imm	1679838.1227341	1679838.6342404	1679838.6346545	120.0	3.0	1679839.6262862
1656.04345703125	0.0	40	3391577	121	57	800	1	1	1679830.3954365	1679830.3959308	80	1679833.6372485	1679833.6376778	40	1679836.9748495	1679836.9753712	100	imm	1679838.1227341	1679838.6342404	1679838.6346545	120.0	3.0	1679839.6262862
1659.380859375	0.0	100	3398412	121	57	800	1	1	1679830.3954365	1679830.3959308	80	1679833.6372485	1679833.6376778	40	1679836.9748495	1679836.9753712	100	imm	1679838.1227341	1679838.6342404	1679838.6346545	120.0	3.0	1679839.6262862
1661.04052734375	0.0	120	3401811	121	57	800	1	1	1679830.3954365	1679830.3959308	80	1679833.6372485	1679833.6376778	40	1679836.9748495	1679836.9753712	100	imm	1679838.1227341	1679838.6342404	1679838.6346545	120.0	3.0	1679839.6262862
1664.06103515625	0.0	80	3407997	122	57	280	0	1	1679841.6549135	1679841.6553783	80	1679845.0841217	1679845.0846476	40	1679848.3767698	1679848.377298	100	del	1679849.3641868	nan	nan	nan	nan	nan
1667.490234375	0.0	40	3415020	122	57	280	0	1	1679841.6549135	1679841.6553783	80	1679845.0841217	1679845.0846476	40	1679848.3767698	1679848.377298	100	del	1679849.3641868	nan	nan	nan	nan	nan
1670.78271484375	0.0	100	3421763	122	57	280	0	1	1679841.6549135	1679841.6553783	80	1679845.0841217	1679845.0846476	40	1679848.3767698	1679848.377298	100	del	1679849.3641868	nan	nan	nan	nan	nan
1674.71533203125	0.0	80	3429817	123	50	20	0	0	1679852.3096185	1679852.3100952	80	1679855.4900137	1679855.4902831	40	1679858.7257774	1679858.7262663	100	del	1679861.1235662	nan	nan	nan	nan	nan
1677.8955078125	0.0	40	3436330	123	50	20	0	0	1679852.3096185	1679852.3100952	80	1679855.4900137	1679855.4902831	40	1679858.7257774	1679858.7262663	100	del	1679861.1235662	nan	nan	nan	nan	nan
1681.13134765625	0.0	100	3442957	123	50	20	0	0	1679852.3096185	1679852.3100952	80	1679855.4900137	1679855.4902831	40	1679858.7257774	1679858.7262663	100	del	1679861.1235662	nan	nan	nan	nan	nan
1686.07763671875	0.0	80	3453087	124	63	560	0	0	1679863.6723342	1679863.6727872	80	1679866.7687351	1679866.76917	40	1679870.1139929	1679870.1145692	100	del	1679873.2115179	nan	nan	nan	nan	nan
1689.17431640625	0.0	40	3459429	124	63	560	0	0	1679863.6723342	1679863.6727872	80	1679866.7687351	1679866.76917	40	1679870.1139929	1679870.1145692	100	del	1679873.2115179	nan	nan	nan	nan	nan
1692.51953125	0.0	100	3466280	124	63	560	0	0	1679863.6723342	1679863.6727872	80	1679866.7687351	1679866.76917	40	1679870.1139929	1679870.1145692	100	del	1679873.2115179	nan	nan	nan	nan	nan
1698.29931640625	0.0	80	3478117	125	60	5	1	0	1679875.8942778	1679875.8949331	80	1679879.3492194	1679879.3494177	40	1679882.4213512	1679882.4218744	100	del	1679883.1787337	1679883.6922735	1679883.6927343	120.0	3.0	1679884.1545058
1701.7548828125	0.0	40	3485194	125	60	5	1	0	1679875.8942778	1679875.8949331	80	1679879.3492194	1679879.3494177	40	1679882.4213512	1679882.4218744	100	del	1679883.1787337	1679883.6922735	1679883.6927343	120.0	3.0	1679884.1545058
1704.826171875	0.0	100	3491484	125	60	5	1	0	1679875.8942778	1679875.8949331	80	1679879.3492194	1679879.3494177	40	1679882.4213512	1679882.4218744	100	del	1679883.1787337	1679883.6922735	1679883.6927343	120.0	3.0	1679884.1545058
1706.09716796875	0.0	120	3494087	125	60	5	1	0	1679875.8942778	1679875.8949331	80	1679879.3492194	1679879.3494177	40	1679882.4213512	1679882.4218744	100	del	1679883.1787337	1679883.6922735	1679883.6927343	120.0	3.0	1679884.1545058
1709.0703125	0.0	80	3500176	126	73	20	0	1	1679886.6654664	1679886.665942	80	1679889.9442032	1679889.9446946	40	1679893.3163427	1679893.3168298	100	del	1679894.1705237	nan	nan	nan	nan	nan
1712.34912109375	0.0	40	3506891	126	73	20	0	1	1679886.6654664	1679886.665942	80	1679889.9442032	1679889.9446946	40	1679893.3163427	1679893.3168298	100	del	1679894.1705237	nan	nan	nan	nan	nan
1715.72119140625	0.0	100	3513797	126	73	20	0	1	1679886.6654664	1679886.665942	80	1679889.9442032	1679889.9446946	40	1679893.3163427	1679893.3168298	100	del	1679894.1705237	nan	nan	nan	nan	nan
1719.59326171875	0.0	80	3521727	127	50	560	0	0	1679897.1888361	1679897.1892488	80	1679900.34069	1679900.3412196	40	1679903.5617418	1679903.5622869	100	imm	1679905.1462217	nan	nan	nan	nan	nan
1722.7451171875	0.0	40	3528182	127	50	560	0	0	1679897.1888361	1679897.1892488	80	1679900.34069	1679900.3412196	40	1679903.5617418	1679903.5622869	100	imm	1679905.1462217	nan	nan	nan	nan	nan
1725.96630859375	0.0	100	3534779	127	50	560	0	0	1679897.1888361	1679897.1892488	80	1679900.34069	1679900.3412196	40	1679903.5617418	1679903.5622869	100	imm	1679905.1462217	nan	nan	nan	nan	nan
1730.30615234375	0.0	80	3543667	128	70	5	1	0	1679907.9019867	1679907.9025184	80	1679911.2925433	1679911.2929906	40	1679914.7152264	1679914.7156641	100	del	1679915.6185007	1679916.132655	1679916.1331977	120.0	1.0	1679916.4748535
1733.69677734375	0.0	40	3550611	128	70	5	1	0	1679907.9019867	1679907.9025184	80	1679911.2925433	1679911.2929906	40	1679914.7152264	1679914.7156641	100	del	1679915.6185007	1679916.132655	1679916.1331977	120.0	1.0	1679916.4748535
1737.11962890625	0.0	100	3557621	128	70	5	1	0	1679907.9019867	1679907.9025184	80	1679911.2925433	1679911.2929906	40	1679914.7152264	1679914.7156641	100	del	1679915.6185007	1679916.132655	1679916.1331977	120.0	1.0	1679916.4748535
1738.53662109375	0.0	120	3560523	128	70	5	1	0	1679907.9019867	1679907.9025184	80	1679911.2925433	1679911.2929906	40	1679914.7152264	1679914.7156641	100	del	1679915.6185007	1679916.132655	1679916.1331977	120.0	1.0	1679916.4748535
1740.94580078125	0.0	80	3565457	129	87	20	0	1	1679918.5417396	1679918.5422079	80	1679921.6386563	1679921.6391516	40	1679924.8320834	1679924.8326072	100	del	1679925.5946377	nan	nan	nan	nan	nan
1744.04248046875	0.0	40	3571799	129	87	20	0	1	1679918.5417396	1679918.5422079	80	1679921.6386563	1679921.6391516	40	1679924.8320834	1679924.8326072	100	del	1679925.5946377	nan	nan	nan	nan	nan
1747.23583984375	0.0	100	3578339	129	87	20	0	1	1679918.5417396	1679918.5422079	80	1679921.6386563	1679921.6391516	40	1679924.8320834	1679924.8326072	100	del	1679925.5946377	nan	nan	nan	nan	nan
1750.54443359375	0.0	80	3585115	130	87	280	0	0	1679928.1406928	1679928.141126	80	1679931.4095994	1679931.4100961	40	1679934.5912221	1679934.5917279	100	del	1679937.0437795	nan	nan	nan	nan	nan
1753.8134765625	0.0	40	3591810	130	87	280	0	0	1679928.1406928	1679928.141126	80	1679931.4095994	1679931.4100961	40	1679934.5912221	1679934.5917279	100	del	1679937.0437795	nan	nan	nan	nan	nan
1756.9951171875	0.0	100	3598326	130	87	280	0	0	1679928.1406928	1679928.141126	80	1679931.4095994	1679931.4100961	40	1679934.5912221	1679934.5917279	100	del	1679937.0437795	nan	nan	nan	nan	nan
1762.05322265625	0.0	80	3608685	131	67	800	1	1	1679939.649629	1679939.6501122	80	1679942.7621047	1679942.7625912	40	1679946.228221	1679946.2287198	100	del	1679949.1387713	1679949.6517549	1679949.6522072	120.0	3.0	1679951.4661001
1765.16552734375	0.0	40	3615059	131	67	800	1	1	1679939.649629	1679939.6501122	80	1679942.7621047	1679942.7625912	40	1679946.228221	1679946.2287198	100	del	1679949.1387713	1679949.6517549	1679949.6522072	120.0	3.0	1679951.4661001
1768.6318359375	0.0	100	3622158	131	67	800	1	1	1679939.649629	1679939.6501122	80	1679942.7621047	1679942.7625912	40	1679946.228221	1679946.2287198	100	del	1679949.1387713	1679949.6517549	1679949.6522072	120.0	3.0	1679951.4661001
1772.05517578125	0.0	120	3629169	131	67	800	1	1	1679939.649629	1679939.6501122	80	1679942.7621047	1679942.7625912	40	1679946.228221	1679946.2287198	100	del	1679949.1387713	1679949.6517549	1679949.6522072	120.0	3.0	1679951.4661001
1776.2236328125	0.0	80	3637706	132	53	200	1	0	1679953.8205185	1679953.8210238	80	1679957.0625063	1679957.0629533	40	1679960.5316539	1679960.5321751	100	del	1679962.7398582	1679963.2539712	1679963.254458	120.0	3.0	1679964.2747926
1779.4658203125	0.0	40	3644346	132	53	200	1	0	1679953.8205185	1679953.8210238	80	1679957.0625063	1679957.0629533	40	1679960.5316539	1679960.5321751	100	del	1679962.7398582	1679963.2539712	1679963.254458	120.0	3.0	1679964.2747926
1782.9345703125	0.0	100	3651450	132	53	200	1	0	1679953.8205185	1679953.8210238	80	1679957.0625063	1679957.0629533	40	1679960.5316539	1679960.5321751	100	del	1679962.7398582	1679963.2539712	1679963.254458	120.0	3.0	1679964.2747926
1785.6572265625	0.0	120	3657026	132	53	200	1	0	1679953.8205185	1679953.8210238	80	1679957.0625063	1679957.0629533	40	1679960.5316539	1679960.5321751	100	del	1679962.7398582	1679963.2539712	1679963.254458	120.0	3.0	1679964.2747926
1788.74560546875	0.0	80	3663351	133	80	1150	0	1	1679966.3428025	1679966.3433086	80	1679969.7232352	1679969.7237117	40	1679973.1055949	1679973.1060725	100	del	1679975.6036128	nan	nan	nan	nan	nan
1792.1259765625	0.0	40	3670274	133	80	1150	0	1	1679966.3428025	1679966.3433086	80	1679969.7232352	1679969.7237117	40	1679973.1055949	1679973.1060725	100	del	1679975.6036128	nan	nan	nan	nan	nan
1795.50830078125	0.0	100	3677201	133	80	1150	0	1	1679966.3428025	1679966.3433086	80	1679969.7232352	1679969.7237117	40	1679973.1055949	1679973.1060725	100	del	1679975.6036128	nan	nan	nan	nan	nan
1800.8056640625	0.0	80	3688050	134	77	380	1	1	1679978.4031362	1679978.403623	80	1679981.5035467	1679981.5040878	40	1679984.8155354	1679984.8159666	100	del	1679988.6341571	1679989.1437958	1679989.1441249	120.0	3.0	1679990.0582288
1803.90625	0.0	40	3694400	134	77	380	1	1	1679978.4031362	1679978.403623	80	1679981.5035467	1679981.5040878	40	1679984.8155354	1679984.8159666	100	del	1679988.6341571	1679989.1437958	1679989.1441249	120.0	3.0	1679990.0582288
1807.2177734375	0.0	100	3701182	134	77	380	1	1	1679978.4031362	1679978.403623	80	1679981.5035467	1679981.5040878	40	1679984.8155354	1679984.8159666	100	del	1679988.6341571	1679989.1437958	1679989.1441249	120.0	3.0	1679990.0582288
1811.5458984375	0.0	120	3710046	134	77	380	1	1	1679978.4031362	1679978.403623	80	1679981.5035467	1679981.5040878	40	1679984.8155354	1679984.8159666	100	del	1679988.6341571	1679989.1437958	1679989.1441249	120.0	3.0	1679990.0582288
1814.62939453125	0.0	80	3716361	135	93	5	1	0	1679992.2272519	1679992.2277655	80	1679995.3021804	1679995.3026344	40	1679998.4225583	1679998.4230851	100	del	1679999.1458066	1679999.6589972	1679999.6595251	120.0	3.0	1680000.0185317
1817.70458984375	0.0	40	3722659	135	93	5	1	0	1679992.2272519	1679992.2277655	80	1679995.3021804	1679995.3026344	40	1679998.4225583	1679998.4230851	100	del	1679999.1458066	1679999.6589972	1679999.6595251	120.0	3.0	1680000.0185317
1820.82470703125	0.0	100	3729049	135	93	5	1	0	1679992.2272519	1679992.2277655	80	1679995.3021804	1679995.3026344	40	1679998.4225583	1679998.4230851	100	del	1679999.1458066	1679999.6589972	1679999.6595251	120.0	3.0	1680000.0185317
1822.06103515625	0.0	120	3731581	135	93	5	1	0	1679992.2272519	1679992.2277655	80	1679995.3021804	1679995.3026344	40	1679998.4225583	1679998.4230851	100	del	1679999.1458066	1679999.6589972	1679999.6595251	120.0	3.0	1680000.0185317
1824.88134765625	0.0	80	3737357	136	53	1150	0	1	1680002.4795595	1680002.4798964	80	1680005.5228626	1680005.5232682	40	1680008.6572676	1680008.6578093	100	imm	1680009.5473998	nan	nan	nan	nan	nan
