onset	duration	value	sample	trial_idx	val	del	is_cued	rev_opts	del_pres_displaytime	del_pres_triggertime	del_pres_triggercode	val_pres_displaytime	val_pres_triggertime	val_pres_triggercode	choice_displaytime	choice_triggertime	choice_triggercode	choice	choice_time	viv_displaytime	viv_triggertime	viv_triggercode	viv	viv_time
38.02685546875	0.0	80	77879	1	97	700	1	0	1499142.3758998	1499142.3772699	80	1499145.5778708	1499145.5787744	40	1499148.7068131	1499148.7079543	100	imm	1499151.3808464	1499151.8945065	1499151.8950081	120.0	2.0	1499155.6685972
41.228515625	0.0	40	84436	1	97	700	1	0	1499142.3758998	1499142.3772699	80	1499145.5778708	1499145.5787744	40	1499148.7068131	1499148.7079543	100	imm	1499151.3808464	1499151.8945065	1499151.8950081	120.0	2.0	1499155.6685972
44.35791015625	0.0	100	90845	1	97	700	1	0	1499142.3758998	1499142.3772699	80	1499145.5778708	1499145.5787744	40	1499148.7068131	1499148.7079543	100	imm	1499151.3808464	1499151.8945065	1499151.8950081	120.0	2.0	1499155.6685972
47.54541015625	0.0	120	97373	1	97	700	1	0	1499142.3758998	1499142.3772699	80	1499145.5778708	1499145.5787744	40	1499148.7068131	1499148.7079543	100	imm	1499151.3808464	1499151.8945065	1499151.8950081	120.0	2.0	1499155.6685972
53.57763671875	0.0	80	109727	2	83	510	0	1	1499157.926909	1499157.9273421	80	1499161.105133	1499161.1058002	40	1499164.5914768	1499164.5919719	100	imm	1499167.4206442	nan	nan	nan	nan	nan
56.755859375	0.0	40	116236	2	83	510	0	1	1499157.926909	1499157.9273421	80	1499161.105133	1499161.1058002	40	1499164.5914768	1499164.5919719	100	imm	1499167.4206442	nan	nan	nan	nan	nan
60.2421875	0.0	100	123376	2	83	510	0	1	1499157.926909	1499157.9273421	80	1499161.105133	1499161.1058002	40	1499164.5914768	1499164.5919719	100	imm	1499167.4206442	nan	nan	nan	nan	nan
66.0478515625	0.0	80	135266	3	53	280	0	0	1499170.3972278	1499170.3979587	80	1499173.4327889	1499173.4334716	40	1499176.8165542	1499176.8172256	100	imm	1499177.5725032	nan	nan	nan	nan	nan
69.08349609375	0.0	40	141483	3	53	280	0	0	1499170.3972278	1499170.3979587	80	1499173.4327889	1499173.4334716	40	1499176.8165542	1499176.8172256	100	imm	1499177.5725032	nan	nan	nan	nan	nan
72.466796875	0.0	100	148412	3	53	280	0	0	1499170.3972278	1499170.3979587	80	1499173.4327889	1499173.4334716	40	1499176.8165542	1499176.8172256	100	imm	1499177.5725032	nan	nan	nan	nan	nan
75.876953125	0.0	80	155396	4	63	365	1	1	1499180.2268608	1499180.2276369	80	1499183.4474469	1499183.4482666	40	1499186.7359724	1499186.7367306	100	del	1499202.180134	1499202.6919186	1499202.692539	120.0	2.0	1499204.5091321
79.09716796875	0.0	40	161991	4	63	365	1	1	1499180.2268608	1499180.2276369	80	1499183.4474469	1499183.4482666	40	1499186.7359724	1499186.7367306	100	del	1499202.180134	1499202.6919186	1499202.692539	120.0	2.0	1499204.5091321
82.3857421875	0.0	100	168726	4	63	365	1	1	1499180.2268608	1499180.2276369	80	1499183.4474469	1499183.4482666	40	1499186.7359724	1499186.7367306	100	del	1499202.180134	1499202.6919186	1499202.692539	120.0	2.0	1499204.5091321
98.341796875	0.0	120	201404	4	63	365	1	1	1499180.2268608	1499180.2276369	80	1499183.4474469	1499183.4482666	40	1499186.7359724	1499186.7367306	100	del	1499202.180134	1499202.6919186	1499202.692539	120.0	2.0	1499204.5091321
102.64990234375	0.0	80	210227	5	83	210	1	1	1499207.0002182	1499207.0021174	80	1499210.2213534	1499210.2233799	40	1499213.7253786	1499213.7262332	100	del	1499220.772269	1499221.283921	1499221.2843909	120.0	3.0	1499221.8207052
105.87060546875	0.0	40	216823	5	83	210	1	1	1499207.0002182	1499207.0021174	80	1499210.2213534	1499210.2233799	40	1499213.7253786	1499213.7262332	100	del	1499220.772269	1499221.283921	1499221.2843909	120.0	3.0	1499221.8207052
109.37451171875	0.0	100	223999	5	83	210	1	1	1499207.0002182	1499207.0021174	80	1499210.2213534	1499210.2233799	40	1499213.7253786	1499213.7262332	100	del	1499220.772269	1499221.283921	1499221.2843909	120.0	3.0	1499221.8207052
116.93310546875	0.0	120	239479	5	83	210	1	1	1499207.0002182	1499207.0021174	80	1499210.2213534	1499210.2233799	40	1499213.7253786	1499213.7262332	100	del	1499220.772269	1499221.283921	1499221.2843909	120.0	3.0	1499221.8207052
119.640625	0.0	80	245024	6	100	365	1	1	1499223.9913723	1499223.9920486	80	1499227.3500484	1499227.3507567	40	1499230.6973686	1499230.6977921	100	del	1499233.9641779	1499234.4754774	1499234.4760157	120.0	2.0	1499235.7005412
122.9990234375	0.0	40	251902	6	100	365	1	1	1499223.9913723	1499223.9920486	80	1499227.3500484	1499227.3507567	40	1499230.6973686	1499230.6977921	100	del	1499233.9641779	1499234.4754774	1499234.4760157	120.0	2.0	1499235.7005412
126.34619140625	0.0	100	258757	6	100	365	1	1	1499223.9913723	1499223.9920486	80	1499227.3500484	1499227.3507567	40	1499230.6973686	1499230.6977921	100	del	1499233.9641779	1499234.4754774	1499234.4760157	120.0	2.0	1499235.7005412
130.12451171875	0.0	120	266495	6	100	365	1	1	1499223.9913723	1499223.9920486	80	1499227.3500484	1499227.3507567	40	1499230.6973686	1499230.6977921	100	del	1499233.9641779	1499234.4754774	1499234.4760157	120.0	2.0	1499235.7005412
133.6328125	0.0	80	273680	7	97	365	1	0	1499237.9843186	1499237.9848398	80	1499241.3415301	1499241.3420272	40	1499244.6914917	1499244.6919856	100	del	1499248.4380357	1499248.9484717	1499248.9499176	120.0	2.0	1499250.0363743
136.990234375	0.0	40	280556	7	97	365	1	0	1499237.9843186	1499237.9848398	80	1499241.3415301	1499241.3420272	40	1499244.6914917	1499244.6919856	100	del	1499248.4380357	1499248.9484717	1499248.9499176	120.0	2.0	1499250.0363743
140.33984375	0.0	100	287416	7	97	365	1	0	1499237.9843186	1499237.9848398	80	1499241.3415301	1499241.3420272	40	1499244.6914917	1499244.6919856	100	del	1499248.4380357	1499248.9484717	1499248.9499176	120.0	2.0	1499250.0363743
144.5966796875	0.0	120	296134	7	97	365	1	0	1499237.9843186	1499237.9848398	80	1499241.3415301	1499241.3420272	40	1499244.6914917	1499244.6919856	100	del	1499248.4380357	1499248.9484717	1499248.9499176	120.0	2.0	1499250.0363743
147.787109375	0.0	80	302668	8	83	700	1	1	1499252.1390708	1499252.1393719	80	1499255.2103561	1499255.2108024	40	1499258.725327	1499258.7258244	100	imm	1499263.1321785	1499263.6424715	1499263.6427756	120.0	2.0	1499263.9898134
150.8583984375	0.0	40	308958	8	83	700	1	1	1499252.1390708	1499252.1393719	80	1499255.2103561	1499255.2108024	40	1499258.725327	1499258.7258244	100	imm	1499263.1321785	1499263.6424715	1499263.6427756	120.0	2.0	1499263.9898134
154.37353515625	0.0	100	316157	8	83	700	1	1	1499252.1390708	1499252.1393719	80	1499255.2103561	1499255.2108024	40	1499258.725327	1499258.7258244	100	imm	1499263.1321785	1499263.6424715	1499263.6427756	120.0	2.0	1499263.9898134
159.29052734375	0.0	120	326227	8	83	700	1	1	1499252.1390708	1499252.1393719	80	1499255.2103561	1499255.2108024	40	1499258.725327	1499258.7258244	100	imm	1499263.1321785	1499263.6424715	1499263.6427756	120.0	2.0	1499263.9898134
161.73828125	0.0	80	331240	9	100	510	0	0	1499266.090142	1499266.0906239	80	1499269.1141917	1499269.114622	40	1499272.4088675	1499272.4099946	100	imm	1499274.9100511	nan	nan	nan	nan	nan
164.76220703125	0.0	40	337433	9	100	510	0	0	1499266.090142	1499266.0906239	80	1499269.1141917	1499269.114622	40	1499272.4088675	1499272.4099946	100	imm	1499274.9100511	nan	nan	nan	nan	nan
168.056640625	0.0	100	344180	9	100	510	0	0	1499266.090142	1499266.0906239	80	1499269.1141917	1499269.114622	40	1499272.4088675	1499272.4099946	100	imm	1499274.9100511	nan	nan	nan	nan	nan
173.5185546875	0.0	80	355366	10	70	10	0	1	1499277.8707144	1499277.871225	80	1499281.2130704	1499281.213565	40	1499284.3240007	1499284.3244235	100	del	1499285.5247832	nan	nan	nan	nan	nan
176.86083984375	0.0	40	362211	10	70	10	0	1	1499277.8707144	1499277.871225	80	1499281.2130704	1499281.213565	40	1499284.3240007	1499284.3244235	100	del	1499285.5247832	nan	nan	nan	nan	nan
179.9716796875	0.0	100	368582	10	70	10	0	1	1499277.8707144	1499277.871225	80	1499281.2130704	1499281.213565	40	1499284.3240007	1499284.3244235	100	del	1499285.5247832	nan	nan	nan	nan	nan
183.87451171875	0.0	80	376575	11	73	700	1	1	1499288.2269087	1499288.2273919	80	1499291.463656	1499291.4640005	40	1499294.967473	1499294.9680433	100	imm	1499296.0760761	1499296.5878629	1499296.5881919	120.0	2.0	1499297.5408886
187.11083984375	0.0	40	383203	11	73	700	1	1	1499288.2269087	1499288.2273919	80	1499291.463656	1499291.4640005	40	1499294.967473	1499294.9680433	100	imm	1499296.0760761	1499296.5878629	1499296.5881919	120.0	2.0	1499297.5408886
190.61474609375	0.0	100	390379	11	73	700	1	1	1499288.2269087	1499288.2273919	80	1499291.463656	1499291.4640005	40	1499294.967473	1499294.9680433	100	imm	1499296.0760761	1499296.5878629	1499296.5881919	120.0	2.0	1499297.5408886
192.23486328125	0.0	120	393697	11	73	700	1	1	1499288.2269087	1499288.2273919	80	1499291.463656	1499291.4640005	40	1499294.967473	1499294.9680433	100	imm	1499296.0760761	1499296.5878629	1499296.5881919	120.0	2.0	1499297.5408886
195.28173828125	0.0	80	399937	12	50	210	1	1	1499299.6347521	1499299.6352363	80	1499303.0700138	1499303.0704547	40	1499306.406062	1499306.4065816	100	imm	1499309.8199877	1499310.3304749	1499310.330813	120.0	2.0	1499311.8439652
198.716796875	0.0	40	406972	12	50	210	1	1	1499299.6347521	1499299.6352363	80	1499303.0700138	1499303.0704547	40	1499306.406062	1499306.4065816	100	imm	1499309.8199877	1499310.3304749	1499310.330813	120.0	2.0	1499311.8439652
202.05322265625	0.0	100	413805	12	50	210	1	1	1499299.6347521	1499299.6352363	80	1499303.0700138	1499303.0704547	40	1499306.406062	1499306.4065816	100	imm	1499309.8199877	1499310.3304749	1499310.330813	120.0	2.0	1499311.8439652
205.97705078125	0.0	120	421841	12	50	210	1	1	1499299.6347521	1499299.6352363	80	1499303.0700138	1499303.0704547	40	1499306.406062	1499306.4065816	100	imm	1499309.8199877	1499310.3304749	1499310.330813	120.0	2.0	1499311.8439652
209.69384765625	0.0	80	429453	13	50	970	0	1	1499314.0472501	1499314.0477574	80	1499317.1503177	1499317.1507324	40	1499320.3773943	1499320.3780521	100	imm	1499321.4763225	nan	nan	nan	nan	nan
212.796875	0.0	40	435808	13	50	970	0	1	1499314.0472501	1499314.0477574	80	1499317.1503177	1499317.1507324	40	1499320.3773943	1499320.3780521	100	imm	1499321.4763225	nan	nan	nan	nan	nan
216.02392578125	0.0	100	442417	13	50	970	0	1	1499314.0472501	1499314.0477574	80	1499317.1503177	1499317.1507324	40	1499320.3773943	1499320.3780521	100	imm	1499321.4763225	nan	nan	nan	nan	nan
219.8828125	0.0	80	450320	14	90	210	1	1	1499324.2362512	1499324.2367082	80	1499327.3041088	1499327.3046188	40	1499330.6121976	1499330.6126996	100	del	1499331.8204764	1499332.3330325	1499332.3334711	120.0	2.0	1499333.4918941
222.95068359375	0.0	40	456603	14	90	210	1	1	1499324.2362512	1499324.2367082	80	1499327.3041088	1499327.3046188	40	1499330.6121976	1499330.6126996	100	del	1499331.8204764	1499332.3330325	1499332.3334711	120.0	2.0	1499333.4918941
226.2587890625	0.0	100	463378	14	90	210	1	1	1499324.2362512	1499324.2367082	80	1499327.3041088	1499327.3046188	40	1499330.6121976	1499330.6126996	100	del	1499331.8204764	1499332.3330325	1499332.3334711	120.0	2.0	1499333.4918941
227.9794921875	0.0	120	466902	14	90	210	1	1	1499324.2362512	1499324.2367082	80	1499327.3041088	1499327.3046188	40	1499330.6121976	1499330.6126996	100	del	1499331.8204764	1499332.3330325	1499332.3334711	120.0	2.0	1499333.4918941
231.26416015625	0.0	80	473629	15	100	970	0	1	1499335.6181356	1499335.6184294	80	1499338.8177292	1499338.8182071	40	1499342.1219719	1499342.1224352	100	imm	1499345.6919876	nan	nan	nan	nan	nan
234.4638671875	0.0	40	480182	15	100	970	0	1	1499335.6181356	1499335.6184294	80	1499338.8177292	1499338.8182071	40	1499342.1219719	1499342.1224352	100	imm	1499345.6919876	nan	nan	nan	nan	nan
237.76806640625	0.0	100	486949	15	100	970	0	1	1499335.6181356	1499335.6184294	80	1499338.8177292	1499338.8182071	40	1499342.1219719	1499342.1224352	100	imm	1499345.6919876	nan	nan	nan	nan	nan
243.98095703125	0.0	80	499673	16	100	210	1	1	1499348.335061	1499348.3355164	80	1499351.4879454	1499351.4883888	40	1499354.8100138	1499354.8113078	100	del	1499360.6683674	1499361.1789721	1499361.1793452	120.0	3.0	1499364.6694342
247.1337890625	0.0	40	506130	16	100	210	1	1	1499348.335061	1499348.3355164	80	1499351.4879454	1499351.4883888	40	1499354.8100138	1499354.8113078	100	del	1499360.6683674	1499361.1789721	1499361.1793452	120.0	3.0	1499364.6694342
250.45556640625	0.0	100	512933	16	100	210	1	1	1499348.335061	1499348.3355164	80	1499351.4879454	1499351.4883888	40	1499354.8100138	1499354.8113078	100	del	1499360.6683674	1499361.1789721	1499361.1793452	120.0	3.0	1499364.6694342
256.82470703125	0.0	120	525977	16	100	210	1	1	1499348.335061	1499348.3355164	80	1499351.4879454	1499351.4883888	40	1499354.8100138	1499354.8113078	100	del	1499360.6683674	1499361.1789721	1499361.1793452	120.0	3.0	1499364.6694342
262.4638671875	0.0	80	537526	17	80	120	0	1	1499366.818415	1499366.818875	80	1499370.2388727	1499370.2395149	40	1499373.7405355	1499373.7408813	100	imm	1499391.2136268	nan	nan	nan	nan	nan
265.88427734375	0.0	40	544531	17	80	120	0	1	1499366.818415	1499366.818875	80	1499370.2388727	1499370.2395149	40	1499373.7405355	1499373.7408813	100	imm	1499391.2136268	nan	nan	nan	nan	nan
269.3857421875	0.0	100	551702	17	80	120	0	1	1499366.818415	1499366.818875	80	1499370.2388727	1499370.2395149	40	1499373.7405355	1499373.7408813	100	imm	1499391.2136268	nan	nan	nan	nan	nan
289.73974609375	0.0	80	593387	18	93	120	0	1	1499394.0950866	1499394.0953393	80	1499397.2743013	1499397.2748406	40	1499400.5795644	1499400.5800661	100	del	1499406.6206656	nan	nan	nan	nan	nan
292.9189453125	0.0	40	599898	18	93	120	0	1	1499394.0950866	1499394.0953393	80	1499397.2743013	1499397.2748406	40	1499400.5795644	1499400.5800661	100	del	1499406.6206656	nan	nan	nan	nan	nan
296.22412109375	0.0	100	606667	18	93	120	0	1	1499394.0950866	1499394.0953393	80	1499397.2743013	1499397.2748406	40	1499400.5795644	1499400.5800661	100	del	1499406.6206656	nan	nan	nan	nan	nan
304.837890625	0.0	80	624308	19	73	970	0	1	1499409.1932409	1499409.1937569	80	1499412.6541128	1499412.654532	40	1499416.1073666	1499416.1078422	100	imm	1499416.7962967	nan	nan	nan	nan	nan
308.29833984375	0.0	40	631395	19	73	970	0	1	1499409.1932409	1499409.1937569	80	1499412.6541128	1499412.654532	40	1499416.1073666	1499416.1078422	100	imm	1499416.7962967	nan	nan	nan	nan	nan
311.75146484375	0.0	100	638467	19	73	970	0	1	1499409.1932409	1499409.1937569	80	1499412.6541128	1499412.654532	40	1499416.1073666	1499416.1078422	100	imm	1499416.7962967	nan	nan	nan	nan	nan
315.36376953125	0.0	80	645865	20	97	210	1	0	1499419.7197072	1499419.7200784	80	1499422.8576578	1499422.8581482	40	1499426.1694124	1499426.1698337	100	del	1499443.6842503	1499444.1981231	1499444.1985926	120.0	2.0	1499445.2598488
318.501953125	0.0	40	652292	20	97	210	1	0	1499419.7197072	1499419.7200784	80	1499422.8576578	1499422.8581482	40	1499426.1694124	1499426.1698337	100	del	1499443.6842503	1499444.1981231	1499444.1985926	120.0	2.0	1499445.2598488
321.8134765625	0.0	100	659074	20	97	210	1	0	1499419.7197072	1499419.7200784	80	1499422.8576578	1499422.8581482	40	1499426.1694124	1499426.1698337	100	del	1499443.6842503	1499444.1981231	1499444.1985926	120.0	2.0	1499445.2598488
339.841796875	0.0	120	695996	20	97	210	1	0	1499419.7197072	1499419.7200784	80	1499422.8576578	1499422.8581482	40	1499426.1694124	1499426.1698337	100	del	1499443.6842503	1499444.1981231	1499444.1985926	120.0	2.0	1499445.2598488
351.99267578125	0.0	80	720881	21	57	970	0	1	1499456.3493352	1499456.3497817	80	1499459.5694209	1499459.5698723	40	1499462.7387266	1499462.7392574	100	imm	1499463.540019	nan	nan	nan	nan	nan
355.21240234375	0.0	40	727475	21	57	970	0	1	1499456.3493352	1499456.3497817	80	1499459.5694209	1499459.5698723	40	1499462.7387266	1499462.7392574	100	imm	1499463.540019	nan	nan	nan	nan	nan
358.3818359375	0.0	100	733966	21	57	970	0	1	1499456.3493352	1499456.3497817	80	1499459.5694209	1499459.5698723	40	1499462.7387266	1499462.7392574	100	imm	1499463.540019	nan	nan	nan	nan	nan
361.78076171875	0.0	80	740927	22	100	700	1	1	1499466.1376012	1499466.137922	80	1499469.2347854	1499469.2352041	40	1499472.4594102	1499472.4600301	100	imm	1499473.3481817	1499473.8569994	1499473.8572807	120.0	2.0	1499474.8282556
364.8779296875	0.0	40	747270	22	100	700	1	1	1499466.1376012	1499466.137922	80	1499469.2347854	1499469.2352041	40	1499472.4594102	1499472.4600301	100	imm	1499473.3481817	1499473.8569994	1499473.8572807	120.0	2.0	1499474.8282556
368.1025390625	0.0	100	753874	22	100	700	1	1	1499466.1376012	1499466.137922	80	1499469.2347854	1499469.2352041	40	1499472.4594102	1499472.4600301	100	imm	1499473.3481817	1499473.8569994	1499473.8572807	120.0	2.0	1499474.8282556
369.49951171875	0.0	120	756735	22	100	700	1	1	1499466.1376012	1499466.137922	80	1499469.2347854	1499469.2352041	40	1499472.4594102	1499472.4600301	100	imm	1499473.3481817	1499473.8569994	1499473.8572807	120.0	2.0	1499474.8282556
372.533203125	0.0	80	762948	23	87	510	0	1	1499476.8906529	1499476.8911054	80	1499480.1985596	1499480.1990049	40	1499483.4477643	1499483.4482804	100	imm	1499486.5558175	nan	nan	nan	nan	nan
375.84130859375	0.0	40	769723	23	87	510	0	1	1499476.8906529	1499476.8911054	80	1499480.1985596	1499480.1990049	40	1499483.4477643	1499483.4482804	100	imm	1499486.5558175	nan	nan	nan	nan	nan
379.09033203125	0.0	100	776377	23	87	510	0	1	1499476.8906529	1499476.8911054	80	1499480.1985596	1499480.1990049	40	1499483.4477643	1499483.4482804	100	imm	1499486.5558175	nan	nan	nan	nan	nan
385.06005859375	0.0	80	788603	24	63	120	0	1	1499489.4175706	1499489.4178903	80	1499492.7762562	1499492.7767417	40	1499496.1093789	1499496.1098863	100	imm	1499498.6204662	nan	nan	nan	nan	nan
388.41845703125	0.0	40	795481	24	63	120	0	1	1499489.4175706	1499489.4178903	80	1499492.7762562	1499492.7767417	40	1499496.1093789	1499496.1098863	100	imm	1499498.6204662	nan	nan	nan	nan	nan
391.75146484375	0.0	100	802307	24	63	120	0	1	1499489.4175706	1499489.4178903	80	1499492.7762562	1499492.7767417	40	1499496.1093789	1499496.1098863	100	imm	1499498.6204662	nan	nan	nan	nan	nan
396.794921875	0.0	80	812636	25	77	700	1	0	1499501.1525622	1499501.1530653	80	1499504.194698	1499504.1952024	40	1499507.3674247	1499507.3679444	100	imm	1499512.1731822	1499512.6821057	1499512.6824394	120.0	1.0	1499516.3083242
399.8369140625	0.0	40	818866	25	77	700	1	0	1499501.1525622	1499501.1530653	80	1499504.194698	1499504.1952024	40	1499507.3674247	1499507.3679444	100	imm	1499512.1731822	1499512.6821057	1499512.6824394	120.0	1.0	1499516.3083242
403.00927734375	0.0	100	825363	25	77	700	1	0	1499501.1525622	1499501.1530653	80	1499504.194698	1499504.1952024	40	1499507.3674247	1499507.3679444	100	imm	1499512.1731822	1499512.6821057	1499512.6824394	120.0	1.0	1499516.3083242
408.32373046875	0.0	120	836247	25	77	700	1	0	1499501.1525622	1499501.1530653	80	1499504.194698	1499504.1952024	40	1499507.3674247	1499507.3679444	100	imm	1499512.1731822	1499512.6821057	1499512.6824394	120.0	1.0	1499516.3083242
414.2275390625	0.0	80	848338	26	80	365	1	1	1499518.5857982	1499518.5861744	80	1499521.9224756	1499521.9229749	40	1499525.1396623	1499525.1401834	100	del	1499532.2766034	1499532.7903102	1499532.790871	120.0	2.0	1499534.5719116
417.56396484375	0.0	40	855171	26	80	365	1	1	1499518.5857982	1499518.5861744	80	1499521.9224756	1499521.9229749	40	1499525.1396623	1499525.1401834	100	del	1499532.2766034	1499532.7903102	1499532.790871	120.0	2.0	1499534.5719116
420.78125	0.0	100	861760	26	80	365	1	1	1499518.5857982	1499518.5861744	80	1499521.9224756	1499521.9229749	40	1499525.1396623	1499525.1401834	100	del	1499532.2766034	1499532.7903102	1499532.790871	120.0	2.0	1499534.5719116
428.431640625	0.0	120	877428	26	80	365	1	1	1499518.5857982	1499518.5861744	80	1499521.9224756	1499521.9229749	40	1499525.1396623	1499525.1401834	100	del	1499532.2766034	1499532.7903102	1499532.790871	120.0	2.0	1499534.5719116
432.63916015625	0.0	80	886045	27	63	10	0	0	1499536.997983	1499536.9984293	80	1499540.3646576	1499540.3651564	40	1499543.8621509	1499543.8626189	100	imm	1499545.8594775	nan	nan	nan	nan	nan
436.005859375	0.0	40	892940	27	63	10	0	0	1499536.997983	1499536.9984293	80	1499540.3646576	1499540.3651564	40	1499543.8621509	1499543.8626189	100	imm	1499545.8594775	nan	nan	nan	nan	nan
439.50341796875	0.0	100	900103	27	63	10	0	0	1499536.997983	1499536.9984293	80	1499540.3646576	1499540.3651564	40	1499543.8621509	1499543.8626189	100	imm	1499545.8594775	nan	nan	nan	nan	nan
444.28466796875	0.0	80	909895	28	73	120	0	0	1499548.6434949	1499548.643921	80	1499551.8132096	1499551.8136434	40	1499554.8786994	1499554.8791736	100	del	1499561.3891783	nan	nan	nan	nan	nan
447.4541015625	0.0	40	916386	28	73	120	0	0	1499548.6434949	1499548.643921	80	1499551.8132096	1499551.8136434	40	1499554.8786994	1499554.8791736	100	del	1499561.3891783	nan	nan	nan	nan	nan
450.51953125	0.0	100	922664	28	73	120	0	0	1499548.6434949	1499548.643921	80	1499551.8132096	1499551.8136434	40	1499554.8786994	1499554.8791736	100	del	1499561.3891783	nan	nan	nan	nan	nan
459.853515625	0.0	80	941780	29	60	10	0	0	1499564.2127073	1499564.2132507	80	1499567.6100213	1499567.6105207	40	1499570.834454	1499570.8349106	100	del	1499572.4835211	nan	nan	nan	nan	nan
463.25048828125	0.0	40	948737	29	60	10	0	0	1499564.2127073	1499564.2132507	80	1499567.6100213	1499567.6105207	40	1499570.834454	1499570.8349106	100	del	1499572.4835211	nan	nan	nan	nan	nan
466.47509765625	0.0	100	955341	29	60	10	0	0	1499564.2127073	1499564.2132507	80	1499567.6100213	1499567.6105207	40	1499570.834454	1499570.8349106	100	del	1499572.4835211	nan	nan	nan	nan	nan
470.685546875	0.0	80	963964	30	60	120	0	1	1499575.0451516	1499575.0456652	80	1499578.1869167	1499578.1873946	40	1499581.2768405	1499581.2773596	100	imm	1499583.9797436	nan	nan	nan	nan	nan
473.8271484375	0.0	40	970398	30	60	120	0	1	1499575.0451516	1499575.0456652	80	1499578.1869167	1499578.1873946	40	1499581.2768405	1499581.2773596	100	imm	1499583.9797436	nan	nan	nan	nan	nan
476.9169921875	0.0	100	976726	30	60	120	0	1	1499575.0451516	1499575.0456652	80	1499578.1869167	1499578.1873946	40	1499581.2768405	1499581.2773596	100	imm	1499583.9797436	nan	nan	nan	nan	nan
482.27734375	0.0	80	987704	31	60	510	0	1	1499586.6374809	1499586.6379327	80	1499589.8650193	1499589.8655159	40	1499593.1414599	1499593.1419702	100	imm	1499594.3556048	nan	nan	nan	nan	nan
485.5048828125	0.0	40	994314	31	60	510	0	1	1499586.6374809	1499586.6379327	80	1499589.8650193	1499589.8655159	40	1499593.1414599	1499593.1419702	100	imm	1499594.3556048	nan	nan	nan	nan	nan
488.78125	0.0	100	1001024	31	60	510	0	1	1499586.6374809	1499586.6379327	80	1499589.8650193	1499589.8655159	40	1499593.1414599	1499593.1419702	100	imm	1499594.3556048	nan	nan	nan	nan	nan
492.74267578125	0.0	80	1009137	32	53	60	1	1	1499597.1031284	1499597.103636	80	1499600.5489941	1499600.5494546	40	1499603.8222678	1499603.8227163	100	imm	1499604.9636915	1499605.4747447	1499605.4750907	120.0	2.0	1499606.7477116
496.1884765625	0.0	40	1016194	32	53	60	1	1	1499597.1031284	1499597.103636	80	1499600.5489941	1499600.5494546	40	1499603.8222678	1499603.8227163	100	imm	1499604.9636915	1499605.4747447	1499605.4750907	120.0	2.0	1499606.7477116
499.4619140625	0.0	100	1022898	32	53	60	1	1	1499597.1031284	1499597.103636	80	1499600.5489941	1499600.5494546	40	1499603.8222678	1499603.8227163	100	imm	1499604.9636915	1499605.4747447	1499605.4750907	120.0	2.0	1499606.7477116
501.1142578125	0.0	120	1026282	32	53	60	1	1	1499597.1031284	1499597.103636	80	1499600.5489941	1499600.5494546	40	1499603.8222678	1499603.8227163	100	imm	1499604.9636915	1499605.4747447	1499605.4750907	120.0	2.0	1499606.7477116
504.87109375	0.0	80	1033976	33	93	60	1	0	1499609.2316819	1499609.2319966	80	1499612.5580096	1499612.5585099	40	1499616.0518192	1499616.05237	100	del	1499624.3475015	1499624.8609901	1499624.861526	120.0	2.0	1499625.7077084
508.197265625	0.0	40	1040788	33	93	60	1	0	1499609.2316819	1499609.2319966	80	1499612.5580096	1499612.5585099	40	1499616.0518192	1499616.05237	100	del	1499624.3475015	1499624.8609901	1499624.861526	120.0	2.0	1499625.7077084
511.69140625	0.0	100	1047944	33	93	60	1	0	1499609.2316819	1499609.2319966	80	1499612.5580096	1499612.5585099	40	1499616.0518192	1499616.05237	100	del	1499624.3475015	1499624.8609901	1499624.861526	120.0	2.0	1499625.7077084
520.5	0.0	120	1065984	33	93	60	1	0	1499609.2316819	1499609.2319966	80	1499612.5580096	1499612.5585099	40	1499616.0518192	1499616.05237	100	del	1499624.3475015	1499624.8609901	1499624.861526	120.0	2.0	1499625.7077084
523.4833984375	0.0	80	1072094	34	63	60	1	0	1499627.8442195	1499627.8446449	80	1499631.1897185	1499631.1902449	40	1499634.3446675	1499634.3449773	100	imm	1499636.0520725	1499636.563666	1499636.5640399	120.0	2.0	1499637.5079706
526.82861328125	0.0	40	1078945	34	63	60	1	0	1499627.8442195	1499627.8446449	80	1499631.1897185	1499631.1902449	40	1499634.3446675	1499634.3449773	100	imm	1499636.0520725	1499636.563666	1499636.5640399	120.0	2.0	1499637.5079706
529.9833984375	0.0	100	1085406	34	63	60	1	0	1499627.8442195	1499627.8446449	80	1499631.1897185	1499631.1902449	40	1499634.3446675	1499634.3449773	100	imm	1499636.0520725	1499636.563666	1499636.5640399	120.0	2.0	1499637.5079706
532.20263671875	0.0	120	1089951	34	63	60	1	0	1499627.8442195	1499627.8446449	80	1499631.1897185	1499631.1902449	40	1499634.3446675	1499634.3449773	100	imm	1499636.0520725	1499636.563666	1499636.5640399	120.0	2.0	1499637.5079706
535.4990234375	0.0	80	1096702	35	67	60	1	0	1499639.860531	1499639.8610052	80	1499643.215615	1499643.2161051	40	1499646.2629289	1499646.263437	100	imm	1499647.6438362	1499648.1549942	1499648.1554468	120.0	2.0	1499651.5240315
538.85400390625	0.0	40	1103573	35	67	60	1	0	1499639.860531	1499639.8610052	80	1499643.215615	1499643.2161051	40	1499646.2629289	1499646.263437	100	imm	1499647.6438362	1499648.1549942	1499648.1554468	120.0	2.0	1499651.5240315
541.9013671875	0.0	100	1109814	35	67	60	1	0	1499639.860531	1499639.8610052	80	1499643.215615	1499643.2161051	40	1499646.2629289	1499646.263437	100	imm	1499647.6438362	1499648.1549942	1499648.1554468	120.0	2.0	1499651.5240315
543.79345703125	0.0	120	1113689	35	67	60	1	0	1499639.860531	1499639.8610052	80	1499643.215615	1499643.2161051	40	1499646.2629289	1499646.263437	100	imm	1499647.6438362	1499648.1549942	1499648.1554468	120.0	2.0	1499651.5240315
549.30615234375	0.0	80	1124979	36	57	120	0	1	1499653.6679325	1499653.6684439	80	1499656.787601	1499656.7880794	40	1499660.1345176	1499660.1350137	100	imm	1499660.9639808	nan	nan	nan	nan	nan
552.42578125	0.0	40	1131368	36	57	120	0	1	1499653.6679325	1499653.6684439	80	1499656.787601	1499656.7880794	40	1499660.1345176	1499660.1350137	100	imm	1499660.9639808	nan	nan	nan	nan	nan
555.77294921875	0.0	100	1138223	36	57	120	0	1	1499653.6679325	1499653.6684439	80	1499656.787601	1499656.7880794	40	1499660.1345176	1499660.1350137	100	imm	1499660.9639808	nan	nan	nan	nan	nan
559.54052734375	0.0	80	1145939	37	70	280	0	0	1499663.902651	1499663.9031364	80	1499667.0832997	1499667.0837689	40	1499670.4880395	1499670.4885778	100	imm	1499674.8838229	nan	nan	nan	nan	nan
562.72119140625	0.0	40	1152453	37	70	280	0	0	1499663.902651	1499663.9031364	80	1499667.0832997	1499667.0837689	40	1499670.4880395	1499670.4885778	100	imm	1499674.8838229	nan	nan	nan	nan	nan
566.1259765625	0.0	100	1159426	37	70	280	0	0	1499663.902651	1499663.9031364	80	1499667.0832997	1499667.0837689	40	1499670.4880395	1499670.4885778	100	imm	1499674.8838229	nan	nan	nan	nan	nan
573.3759765625	0.0	80	1174274	38	63	210	1	1	1499677.7379604	1499677.7384329	80	1499680.7489956	1499680.7494122	40	1499684.0632919	1499684.0637634	100	del	1499688.1635625	1499688.6735814	1499688.6739082	120.0	2.0	1499689.7082684
576.38671875	0.0	40	1180440	38	63	210	1	1	1499677.7379604	1499677.7384329	80	1499680.7489956	1499680.7494122	40	1499684.0632919	1499684.0637634	100	del	1499688.1635625	1499688.6735814	1499688.6739082	120.0	2.0	1499689.7082684
579.70068359375	0.0	100	1187227	38	63	210	1	1	1499677.7379604	1499677.7384329	80	1499680.7489956	1499680.7494122	40	1499684.0632919	1499684.0637634	100	del	1499688.1635625	1499688.6735814	1499688.6739082	120.0	2.0	1499689.7082684
584.31103515625	0.0	120	1196669	38	63	210	1	1	1499677.7379604	1499677.7384329	80	1499680.7489956	1499680.7494122	40	1499684.0632919	1499684.0637634	100	del	1499688.1635625	1499688.6735814	1499688.6739082	120.0	2.0	1499689.7082684
587.55126953125	0.0	80	1203305	39	80	510	0	0	1499691.9137862	1499691.9141613	80	1499695.3790795	1499695.3794906	40	1499698.3934605	1499698.3939737	100	imm	1499704.5241784	nan	nan	nan	nan	nan
591.0166015625	0.0	40	1210402	39	80	510	0	0	1499691.9137862	1499691.9141613	80	1499695.3790795	1499695.3794906	40	1499698.3934605	1499698.3939737	100	imm	1499704.5241784	nan	nan	nan	nan	nan
594.03076171875	0.0	100	1216575	39	80	510	0	0	1499691.9137862	1499691.9141613	80	1499695.3790795	1499695.3794906	40	1499698.3934605	1499698.3939737	100	imm	1499704.5241784	nan	nan	nan	nan	nan
602.91064453125	0.0	80	1234761	40	83	60	1	1	1499707.2737742	1499707.2742335	80	1499710.49344	1499710.4939371	40	1499713.7378226	1499713.7383002	100	del	1499724.2759908	1499724.7860104	1499724.7865032	120.0	2.0	1499725.6438332
606.13037109375	0.0	40	1241355	40	83	60	1	1	1499707.2737742	1499707.2742335	80	1499710.49344	1499710.4939371	40	1499713.7378226	1499713.7383002	100	del	1499724.2759908	1499724.7860104	1499724.7865032	120.0	2.0	1499725.6438332
609.37451171875	0.0	100	1247999	40	83	60	1	1	1499707.2737742	1499707.2742335	80	1499710.49344	1499710.4939371	40	1499713.7378226	1499713.7383002	100	del	1499724.2759908	1499724.7860104	1499724.7865032	120.0	2.0	1499725.6438332
620.4228515625	0.0	120	1270626	40	83	60	1	1	1499707.2737742	1499707.2742335	80	1499710.49344	1499710.4939371	40	1499713.7378226	1499713.7383002	100	del	1499724.2759908	1499724.7860104	1499724.7865032	120.0	2.0	1499725.6438332
632.7509765625	0.0	80	1295874	41	90	280	0	0	1499737.114696	1499737.1151722	80	1499740.2835748	1499740.2840741	40	1499743.6889063	1499743.6895677	100	imm	1499745.9000148	nan	nan	nan	nan	nan
635.919921875	0.0	40	1302364	41	90	280	0	0	1499737.114696	1499737.1151722	80	1499740.2835748	1499740.2840741	40	1499743.6889063	1499743.6895677	100	imm	1499745.9000148	nan	nan	nan	nan	nan
639.3251953125	0.0	100	1309338	41	90	280	0	0	1499737.114696	1499737.1151722	80	1499740.2835748	1499740.2840741	40	1499743.6889063	1499743.6895677	100	imm	1499745.9000148	nan	nan	nan	nan	nan
644.2880859375	0.0	80	1319502	42	87	120	0	1	1499748.6521315	1499748.6524681	80	1499751.6763557	1499751.676797	40	1499754.7746553	1499754.7750674	100	na	1499758.4754163	nan	nan	nan	nan	nan
647.3125	0.0	40	1325696	42	87	120	0	1	1499748.6521315	1499748.6524681	80	1499751.6763557	1499751.676797	40	1499754.7746553	1499754.7750674	100	na	1499758.4754163	nan	nan	nan	nan	nan
650.41064453125	0.0	100	1332041	42	87	120	0	1	1499748.6521315	1499748.6524681	80	1499751.6763557	1499751.676797	40	1499754.7746553	1499754.7750674	100	na	1499758.4754163	nan	nan	nan	nan	nan
656.990234375	0.0	80	1345516	43	50	280	0	0	1499761.3546825	1499761.3551378	80	1499764.5990825	1499764.5996026	40	1499767.6885273	1499767.6890728	100	imm	1499768.4913968	nan	nan	nan	nan	nan
660.23486328125	0.0	40	1352161	43	50	280	0	0	1499761.3546825	1499761.3551378	80	1499764.5990825	1499764.5996026	40	1499767.6885273	1499767.6890728	100	imm	1499768.4913968	nan	nan	nan	nan	nan
663.32421875	0.0	100	1358488	43	50	280	0	0	1499761.3546825	1499761.3551378	80	1499764.5990825	1499764.5996026	40	1499767.6885273	1499767.6890728	100	imm	1499768.4913968	nan	nan	nan	nan	nan
666.81640625	0.0	80	1365640	44	93	700	1	1	1499771.180723	1499771.1812298	80	1499774.4933012	1499774.4938396	40	1499777.6022995	1499777.6028089	100	imm	1499781.4837518	1499781.9946195	1499781.995014	120.0	2.0	1499783.0992341
670.12890625	0.0	40	1372424	44	93	700	1	1	1499771.180723	1499771.1812298	80	1499774.4933012	1499774.4938396	40	1499777.6022995	1499777.6028089	100	imm	1499781.4837518	1499781.9946195	1499781.995014	120.0	2.0	1499783.0992341
673.23779296875	0.0	100	1378791	44	93	700	1	1	1499771.180723	1499771.1812298	80	1499774.4933012	1499774.4938396	40	1499777.6022995	1499777.6028089	100	imm	1499781.4837518	1499781.9946195	1499781.995014	120.0	2.0	1499783.0992341
677.6298828125	0.0	120	1387786	44	93	700	1	1	1499771.180723	1499771.1812298	80	1499774.4933012	1499774.4938396	40	1499777.6022995	1499777.6028089	100	imm	1499781.4837518	1499781.9946195	1499781.995014	120.0	2.0	1499783.0992341
681.12158203125	0.0	80	1394937	45	57	10	0	1	1499785.4862289	1499785.4866991	80	1499788.6155071	1499788.6160599	40	1499792.0871891	1499792.0876957	100	imm	1499793.82	nan	nan	nan	nan	nan
684.25048828125	0.0	40	1401345	45	57	10	0	1	1499785.4862289	1499785.4866991	80	1499788.6155071	1499788.6160599	40	1499792.0871891	1499792.0876957	100	imm	1499793.82	nan	nan	nan	nan	nan
687.72216796875	0.0	100	1408455	45	57	10	0	1	1499785.4862289	1499785.4866991	80	1499788.6155071	1499788.6160599	40	1499792.0871891	1499792.0876957	100	imm	1499793.82	nan	nan	nan	nan	nan
692.1064453125	0.0	80	1417434	46	97	60	1	1	1499796.4713802	1499796.4719104	80	1499799.8616858	1499799.8621594	40	1499802.969057	1499802.9695816	100	del	1499807.188312	1499807.7014372	1499807.7019863	120.0	2.0	1499810.7952752
695.49658203125	0.0	40	1424377	46	97	60	1	1	1499796.4713802	1499796.4719104	80	1499799.8616858	1499799.8621594	40	1499802.969057	1499802.9695816	100	del	1499807.188312	1499807.7014372	1499807.7019863	120.0	2.0	1499810.7952752
698.603515625	0.0	100	1430740	46	97	60	1	1	1499796.4713802	1499796.4719104	80	1499799.8616858	1499799.8621594	40	1499802.969057	1499802.9695816	100	del	1499807.188312	1499807.7014372	1499807.7019863	120.0	2.0	1499810.7952752
703.3359375	0.0	120	1440432	46	97	60	1	1	1499796.4713802	1499796.4719104	80	1499799.8616858	1499799.8621594	40	1499802.969057	1499802.9695816	100	del	1499807.188312	1499807.7014372	1499807.7019863	120.0	2.0	1499810.7952752
708.5849609375	0.0	80	1451182	47	53	120	0	0	1499812.9503974	1499812.9506828	80	1499816.0032411	1499816.0040796	40	1499819.3053219	1499819.3058396	100	imm	1499820.2594774	nan	nan	nan	nan	nan
711.63720703125	0.0	40	1457433	47	53	120	0	0	1499812.9503974	1499812.9506828	80	1499816.0032411	1499816.0040796	40	1499819.3053219	1499819.3058396	100	imm	1499820.2594774	nan	nan	nan	nan	nan
714.939453125	0.0	100	1464196	47	53	120	0	0	1499812.9503974	1499812.9506828	80	1499816.0032411	1499816.0040796	40	1499819.3053219	1499819.3058396	100	imm	1499820.2594774	nan	nan	nan	nan	nan
718.75244140625	0.0	80	1472005	48	80	10	0	0	1499823.1182329	1499823.1187173	80	1499826.3990067	1499826.3994151	40	1499829.627295	1499829.6277378	100	imm	1499831.1875089	nan	nan	nan	nan	nan
722.033203125	0.0	40	1478724	48	80	10	0	0	1499823.1182329	1499823.1187173	80	1499826.3990067	1499826.3994151	40	1499829.627295	1499829.6277378	100	imm	1499831.1875089	nan	nan	nan	nan	nan
725.26123046875	0.0	100	1485335	48	80	10	0	0	1499823.1182329	1499823.1187173	80	1499826.3990067	1499826.3994151	40	1499829.627295	1499829.6277378	100	imm	1499831.1875089	nan	nan	nan	nan	nan
729.66259765625	0.0	80	1494349	49	70	60	1	0	1499834.0284823	1499834.028953	80	1499837.3599983	1499837.3604645	40	1499840.7126961	1499840.7131888	100	del	1499843.875803	1499844.3896189	1499844.390118	120.0	2.0	1499845.282921
732.99365234375	0.0	40	1501171	49	70	60	1	0	1499834.0284823	1499834.028953	80	1499837.3599983	1499837.3604645	40	1499840.7126961	1499840.7131888	100	del	1499843.875803	1499844.3896189	1499844.390118	120.0	2.0	1499845.282921
736.3466796875	0.0	100	1508038	49	70	60	1	0	1499834.0284823	1499834.028953	80	1499837.3599983	1499837.3604645	40	1499840.7126961	1499840.7131888	100	del	1499843.875803	1499844.3896189	1499844.390118	120.0	2.0	1499845.282921
740.0234375	0.0	120	1515568	49	70	60	1	0	1499834.0284823	1499834.028953	80	1499837.3599983	1499837.3604645	40	1499840.7126961	1499840.7131888	100	del	1499843.875803	1499844.3896189	1499844.390118	120.0	2.0	1499845.282921
743.25146484375	0.0	80	1522179	50	97	120	0	1	1499847.6180303	1499847.6185346	80	1499851.0981719	1499851.0986555	40	1499854.2165608	1499854.2170847	100	del	1499860.803615	nan	nan	nan	nan	nan
746.73193359375	0.0	40	1529307	50	97	120	0	1	1499847.6180303	1499847.6185346	80	1499851.0981719	1499851.0986555	40	1499854.2165608	1499854.2170847	100	del	1499860.803615	nan	nan	nan	nan	nan
749.85009765625	0.0	100	1535693	50	97	120	0	1	1499847.6180303	1499847.6185346	80	1499851.0981719	1499851.0986555	40	1499854.2165608	1499854.2170847	100	del	1499860.803615	nan	nan	nan	nan	nan
759.30908203125	0.0	80	1555065	51	57	510	0	0	1499863.6757591	1499863.6762519	80	1499866.8018635	1499866.8023257	40	1499869.8744635	1499869.8749344	100	imm	1499871.754845	nan	nan	nan	nan	nan
762.43505859375	0.0	40	1561467	51	57	510	0	0	1499863.6757591	1499863.6762519	80	1499866.8018635	1499866.8023257	40	1499869.8744635	1499869.8749344	100	imm	1499871.754845	nan	nan	nan	nan	nan
765.50732421875	0.0	100	1567759	51	57	510	0	0	1499863.6757591	1499863.6762519	80	1499866.8018635	1499866.8023257	40	1499869.8744635	1499869.8749344	100	imm	1499871.754845	nan	nan	nan	nan	nan
770.20703125	0.0	80	1577384	52	93	210	1	1	1499874.5740994	1499874.5743656	80	1499877.8051235	1499877.8054471	40	1499881.0473815	1499881.0479137	100	del	1499883.9716069	1499884.4853897	1499884.4858279	120.0	2.0	1499885.658823
773.43798828125	0.0	40	1584001	52	93	210	1	1	1499874.5740994	1499874.5743656	80	1499877.8051235	1499877.8054471	40	1499881.0473815	1499881.0479137	100	del	1499883.9716069	1499884.4853897	1499884.4858279	120.0	2.0	1499885.658823
776.68017578125	0.0	100	1590641	52	93	210	1	1	1499874.5740994	1499874.5743656	80	1499877.8051235	1499877.8054471	40	1499881.0473815	1499881.0479137	100	del	1499883.9716069	1499884.4853897	1499884.4858279	120.0	2.0	1499885.658823
780.1181640625	0.0	120	1597682	52	93	210	1	1	1499874.5740994	1499874.5743656	80	1499877.8051235	1499877.8054471	40	1499881.0473815	1499881.0479137	100	del	1499883.9716069	1499884.4853897	1499884.4858279	120.0	2.0	1499885.658823
783.6357421875	0.0	80	1604886	53	97	1	1	1	1499888.0033739	1499888.003808	80	1499891.3961826	1499891.3966534	40	1499894.5847426	1499894.585249	100	del	1499895.5806339	1499896.0931556	1499896.0936563	120.0	2.0	1499897.1472716
787.02880859375	0.0	40	1611835	53	97	1	1	1	1499888.0033739	1499888.003808	80	1499891.3961826	1499891.3966534	40	1499894.5847426	1499894.585249	100	del	1499895.5806339	1499896.0931556	1499896.0936563	120.0	2.0	1499897.1472716
790.21728515625	0.0	100	1618365	53	97	1	1	1	1499888.0033739	1499888.003808	80	1499891.3961826	1499891.3966534	40	1499894.5847426	1499894.585249	100	del	1499895.5806339	1499896.0931556	1499896.0936563	120.0	2.0	1499897.1472716
791.7255859375	0.0	120	1621454	53	97	1	1	1	1499888.0033739	1499888.003808	80	1499891.3961826	1499891.3966534	40	1499894.5847426	1499894.585249	100	del	1499895.5806339	1499896.0931556	1499896.0936563	120.0	2.0	1499897.1472716
795.12744140625	0.0	80	1628421	54	80	210	1	1	1499899.4949334	1499899.4954458	80	1499902.7114228	1499902.7119342	40	1499906.1455631	1499906.1460411	100	del	1499911.4274752	1499911.9379356	1499911.9382625	120.0	2.0	1499912.7152669
798.34375	0.0	40	1635008	54	80	210	1	1	1499899.4949334	1499899.4954458	80	1499902.7114228	1499902.7119342	40	1499906.1455631	1499906.1460411	100	del	1499911.4274752	1499911.9379356	1499911.9382625	120.0	2.0	1499912.7152669
801.77783203125	0.0	100	1642041	54	80	210	1	1	1499899.4949334	1499899.4954458	80	1499902.7114228	1499902.7119342	40	1499906.1455631	1499906.1460411	100	del	1499911.4274752	1499911.9379356	1499911.9382625	120.0	2.0	1499912.7152669
807.56982421875	0.0	120	1653903	54	80	210	1	1	1499899.4949334	1499899.4954458	80	1499902.7114228	1499902.7119342	40	1499906.1455631	1499906.1460411	100	del	1499911.4274752	1499911.9379356	1499911.9382625	120.0	2.0	1499912.7152669
810.7783203125	0.0	80	1660474	55	67	1	1	0	1499915.1463491	1499915.1468193	80	1499918.2820439	1499918.2825046	40	1499921.6017124	1499921.6022249	100	del	1499922.4748849	1499922.9839826	1499922.9843286	120.0	2.0	1499923.9875774
813.9140625	0.0	40	1666896	55	67	1	1	0	1499915.1463491	1499915.1468193	80	1499918.2820439	1499918.2825046	40	1499921.6017124	1499921.6022249	100	del	1499922.4748849	1499922.9839826	1499922.9843286	120.0	2.0	1499923.9875774
817.2333984375	0.0	100	1673694	55	67	1	1	0	1499915.1463491	1499915.1468193	80	1499918.2820439	1499918.2825046	40	1499921.6017124	1499921.6022249	100	del	1499922.4748849	1499922.9839826	1499922.9843286	120.0	2.0	1499923.9875774
818.61572265625	0.0	120	1676525	55	67	1	1	0	1499915.1463491	1499915.1468193	80	1499918.2820439	1499918.2825046	40	1499921.6017124	1499921.6022249	100	del	1499922.4748849	1499922.9839826	1499922.9843286	120.0	2.0	1499923.9875774
821.92529296875	0.0	80	1683303	56	90	10	0	1	1499926.2937493	1499926.2941686	80	1499929.5717074	1499929.5720967	40	1499933.0204006	1499933.021016	100	del	1499933.8273924	nan	nan	nan	nan	nan
825.203125	0.0	40	1690016	56	90	10	0	1	1499926.2937493	1499926.2941686	80	1499929.5717074	1499929.5720967	40	1499933.0204006	1499933.021016	100	del	1499933.8273924	nan	nan	nan	nan	nan
828.65185546875	0.0	100	1697079	56	90	10	0	1	1499926.2937493	1499926.2941686	80	1499929.5717074	1499929.5720967	40	1499933.0204006	1499933.021016	100	del	1499933.8273924	nan	nan	nan	nan	nan
832.10888671875	0.0	80	1704159	57	77	970	0	1	1499936.4773903	1499936.4778441	80	1499939.6438618	1499939.6443275	40	1499942.7164296	1499942.7169775	100	imm	1499943.8511151	nan	nan	nan	nan	nan
835.27490234375	0.0	40	1710643	57	77	970	0	1	1499936.4773903	1499936.4778441	80	1499939.6438618	1499939.6443275	40	1499942.7164296	1499942.7169775	100	imm	1499943.8511151	nan	nan	nan	nan	nan
838.34765625	0.0	100	1716936	57	77	970	0	1	1499936.4773903	1499936.4778441	80	1499939.6438618	1499939.6443275	40	1499942.7164296	1499942.7169775	100	imm	1499943.8511151	nan	nan	nan	nan	nan
842.470703125	0.0	80	1725380	58	77	280	0	1	1499946.8395785	1499946.8400538	80	1499950.1701827	1499950.170753	40	1499953.4234843	1499953.4240282	100	imm	1499956.2672013	nan	nan	nan	nan	nan
845.80126953125	0.0	40	1732201	58	77	280	0	1	1499946.8395785	1499946.8400538	80	1499950.1701827	1499950.170753	40	1499953.4234843	1499953.4240282	100	imm	1499956.2672013	nan	nan	nan	nan	nan
849.0546875	0.0	100	1738864	58	77	280	0	1	1499946.8395785	1499946.8400538	80	1499950.1701827	1499950.170753	40	1499953.4234843	1499953.4240282	100	imm	1499956.2672013	nan	nan	nan	nan	nan
854.73583984375	0.0	80	1750499	59	83	970	0	1	1499959.1049336	1499959.1054261	80	1499962.3849231	1499962.3855274	40	1499965.7227578	1499965.7232615	100	imm	1499966.8347274	nan	nan	nan	nan	nan
858.015625	0.0	40	1757216	59	83	970	0	1	1499959.1049336	1499959.1054261	80	1499962.3849231	1499962.3855274	40	1499965.7227578	1499965.7232615	100	imm	1499966.8347274	nan	nan	nan	nan	nan
861.353515625	0.0	100	1764052	59	83	970	0	1	1499959.1049336	1499959.1054261	80	1499962.3849231	1499962.3855274	40	1499965.7227578	1499965.7232615	100	imm	1499966.8347274	nan	nan	nan	nan	nan
865.25390625	0.0	80	1772040	60	83	120	0	1	1499969.6234766	1499969.6239619	80	1499972.9903861	1499972.9907281	40	1499976.2648269	1499976.2653101	100	del	1499979.7072454	nan	nan	nan	nan	nan
868.62060546875	0.0	40	1778935	60	83	120	0	1	1499969.6234766	1499969.6239619	80	1499972.9903861	1499972.9907281	40	1499976.2648269	1499976.2653101	100	del	1499979.7072454	nan	nan	nan	nan	nan
871.89501953125	0.0	100	1785641	60	83	120	0	1	1499969.6234766	1499969.6239619	80	1499972.9903861	1499972.9907281	40	1499976.2648269	1499976.2653101	100	del	1499979.7072454	nan	nan	nan	nan	nan
887.5751953125	0.0	80	1817754	61	87	970	0	0	1499991.9453	1499991.9456709	80	1499995.0633549	1499995.0638068	40	1499998.1301252	1499998.1305925	100	imm	1500000.3963451	nan	nan	nan	nan	nan
890.693359375	0.0	40	1824140	61	87	970	0	0	1499991.9453	1499991.9456709	80	1499995.0633549	1499995.0638068	40	1499998.1301252	1499998.1305925	100	imm	1500000.3963451	nan	nan	nan	nan	nan
893.759765625	0.0	100	1830420	61	87	970	0	0	1499991.9453	1499991.9456709	80	1499995.0633549	1499995.0638068	40	1499998.1301252	1499998.1305925	100	imm	1500000.3963451	nan	nan	nan	nan	nan
898.5986328125	0.0	80	1840330	62	100	60	1	0	1500002.9691043	1500002.9695641	80	1500006.0084009	1500006.0088992	40	1500009.2240423	1500009.2246138	100	del	1500011.9228445	1500012.4331069	1500012.4334857	120.0	2.0	1500013.1307171
901.63818359375	0.0	40	1846555	62	100	60	1	0	1500002.9691043	1500002.9695641	80	1500006.0084009	1500006.0088992	40	1500009.2240423	1500009.2246138	100	del	1500011.9228445	1500012.4331069	1500012.4334857	120.0	2.0	1500013.1307171
904.853515625	0.0	100	1853140	62	100	60	1	0	1500002.9691043	1500002.9695641	80	1500006.0084009	1500006.0088992	40	1500009.2240423	1500009.2246138	100	del	1500011.9228445	1500012.4331069	1500012.4334857	120.0	2.0	1500013.1307171
908.0625	0.0	120	1859712	62	100	60	1	0	1500002.9691043	1500002.9695641	80	1500006.0084009	1500006.0088992	40	1500009.2240423	1500009.2246138	100	del	1500011.9228445	1500012.4331069	1500012.4334857	120.0	2.0	1500013.1307171
910.99853515625	0.0	80	1865725	63	73	60	1	0	1500015.3688696	1500015.3693907	80	1500018.5579243	1500018.5581899	40	1500021.9528753	1500021.9534119	100	del	1500023.7562838	1500024.2662019	1500024.2665532	120.0	2.0	1500025.3147678
914.18701171875	0.0	40	1872255	63	73	60	1	0	1500015.3688696	1500015.3693907	80	1500018.5579243	1500018.5581899	40	1500021.9528753	1500021.9534119	100	del	1500023.7562838	1500024.2662019	1500024.2665532	120.0	2.0	1500025.3147678
917.58203125	0.0	100	1879208	63	73	60	1	0	1500015.3688696	1500015.3693907	80	1500018.5579243	1500018.5581899	40	1500021.9528753	1500021.9534119	100	del	1500023.7562838	1500024.2662019	1500024.2665532	120.0	2.0	1500025.3147678
919.8955078125	0.0	120	1883946	63	73	60	1	0	1500015.3688696	1500015.3693907	80	1500018.5579243	1500018.5581899	40	1500021.9528753	1500021.9534119	100	del	1500023.7562838	1500024.2662019	1500024.2665532	120.0	2.0	1500025.3147678
923.2724609375	0.0	80	1890862	64	93	970	0	1	1500027.6435627	1500027.644327	80	1500031.0374097	1500031.0378027	40	1500034.516183	1500034.5165734	100	imm	1500036.9554573	nan	nan	nan	nan	nan
926.66650390625	0.0	40	1897813	64	93	970	0	1	1500027.6435627	1500027.644327	80	1500031.0374097	1500031.0378027	40	1500034.516183	1500034.5165734	100	imm	1500036.9554573	nan	nan	nan	nan	nan
930.14501953125	0.0	100	1904937	64	93	970	0	1	1500027.6435627	1500027.644327	80	1500031.0374097	1500031.0378027	40	1500034.516183	1500034.5165734	100	imm	1500036.9554573	nan	nan	nan	nan	nan
935.58935546875	0.0	80	1916087	65	70	700	1	1	1500039.9604134	1500039.9610286	80	1500043.0642306	1500043.0647057	40	1500046.1479931	1500046.1484931	100	del	1500052.4111556	1500052.9208425	1500052.9211686	120.0	2.0	1500055.8504498
938.69287109375	0.0	40	1922443	65	70	700	1	1	1500039.9604134	1500039.9610286	80	1500043.0642306	1500043.0647057	40	1500046.1479931	1500046.1484931	100	del	1500052.4111556	1500052.9208425	1500052.9211686	120.0	2.0	1500055.8504498
941.77685546875	0.0	100	1928759	65	70	700	1	1	1500039.9604134	1500039.9610286	80	1500043.0642306	1500043.0647057	40	1500046.1479931	1500046.1484931	100	del	1500052.4111556	1500052.9208425	1500052.9211686	120.0	2.0	1500055.8504498
948.54931640625	0.0	120	1942629	65	70	700	1	1	1500039.9604134	1500039.9610286	80	1500043.0642306	1500043.0647057	40	1500046.1479931	1500046.1484931	100	del	1500052.4111556	1500052.9208425	1500052.9211686	120.0	2.0	1500055.8504498
953.84228515625	0.0	80	1953469	66	67	120	0	1	1500058.2138116	1500058.2143048	80	1500061.2670984	1500061.2674829	40	1500064.5428316	1500064.5433285	100	del	1500066.9144836	nan	nan	nan	nan	nan
956.8955078125	0.0	40	1959722	66	67	120	0	1	1500058.2138116	1500058.2143048	80	1500061.2670984	1500061.2674829	40	1500064.5428316	1500064.5433285	100	del	1500066.9144836	nan	nan	nan	nan	nan
960.1708984375	0.0	100	1966430	66	67	120	0	1	1500058.2138116	1500058.2143048	80	1500061.2670984	1500061.2674829	40	1500064.5428316	1500064.5433285	100	del	1500066.9144836	nan	nan	nan	nan	nan
965.3232421875	0.0	80	1976982	67	77	10	0	1	1500069.6952701	1500069.6956404	80	1500073.1332426	1500073.1337269	40	1500076.388763	1500076.3892838	100	imm	1500077.0984701	nan	nan	nan	nan	nan
968.76123046875	0.0	40	1984023	67	77	10	0	1	1500069.6952701	1500069.6956404	80	1500073.1332426	1500073.1337269	40	1500076.388763	1500076.3892838	100	imm	1500077.0984701	nan	nan	nan	nan	nan
972.0166015625	0.0	100	1990690	67	77	10	0	1	1500069.6952701	1500069.6956404	80	1500073.1332426	1500073.1337269	40	1500076.388763	1500076.3892838	100	imm	1500077.0984701	nan	nan	nan	nan	nan
975.44189453125	0.0	80	1997705	68	80	60	1	0	1500079.8142776	1500079.8147369	80	1500083.1581977	1500083.1586614	40	1500086.5430845	1500086.5436242	100	imm	1500087.1481993	1500087.6578391	1500087.6581604	120.0	2.0	1500088.715117
978.7861328125	0.0	40	2004554	68	80	60	1	0	1500079.8142776	1500079.8147369	80	1500083.1581977	1500083.1586614	40	1500086.5430845	1500086.5436242	100	imm	1500087.1481993	1500087.6578391	1500087.6581604	120.0	2.0	1500088.715117
982.1708984375	0.0	100	2011486	68	80	60	1	0	1500079.8142776	1500079.8147369	80	1500083.1581977	1500083.1586614	40	1500086.5430845	1500086.5436242	100	imm	1500087.1481993	1500087.6578391	1500087.6581604	120.0	2.0	1500088.715117
983.28515625	0.0	120	2013768	68	80	60	1	0	1500079.8142776	1500079.8147369	80	1500083.1581977	1500083.1586614	40	1500086.5430845	1500086.5436242	100	imm	1500087.1481993	1500087.6578391	1500087.6581604	120.0	2.0	1500088.715117
986.61669921875	0.0	80	2020591	69	80	1	1	1	1500090.9890787	1500090.9894669	80	1500094.1723917	1500094.1729219	40	1500097.2611118	1500097.2616506	100	del	1500097.8827339	1500098.392377	1500098.3926975	120.0	3.0	1500099.0104792
989.7998046875	0.0	40	2027110	69	80	1	1	1	1500090.9890787	1500090.9894669	80	1500094.1723917	1500094.1729219	40	1500097.2611118	1500097.2616506	100	del	1500097.8827339	1500098.392377	1500098.3926975	120.0	3.0	1500099.0104792
992.888671875	0.0	100	2033436	69	80	1	1	1	1500090.9890787	1500090.9894669	80	1500094.1723917	1500094.1729219	40	1500097.2611118	1500097.2616506	100	del	1500097.8827339	1500098.392377	1500098.3926975	120.0	3.0	1500099.0104792
994.01953125	0.0	120	2035752	69	80	1	1	1	1500090.9890787	1500090.9894669	80	1500094.1723917	1500094.1729219	40	1500097.2611118	1500097.2616506	100	del	1500097.8827339	1500098.392377	1500098.3926975	120.0	3.0	1500099.0104792
996.94482421875	0.0	80	2041743	70	53	10	0	0	1500101.3176936	1500101.3181667	80	1500104.4573765	1500104.4578291	40	1500107.4942075	1500107.4946653	100	del	1500108.690836	nan	nan	nan	nan	nan
1000.08447265625	0.0	40	2048173	70	53	10	0	0	1500101.3176936	1500101.3181667	80	1500104.4573765	1500104.4578291	40	1500107.4942075	1500107.4946653	100	del	1500108.690836	nan	nan	nan	nan	nan
1003.12158203125	0.0	100	2054393	70	53	10	0	0	1500101.3176936	1500101.3181667	80	1500104.4573765	1500104.4578291	40	1500107.4942075	1500107.4946653	100	del	1500108.690836	nan	nan	nan	nan	nan
1007.2119140625	0.0	80	2062770	71	67	970	0	1	1500111.5850317	1500111.5854696	80	1500114.7125772	1500114.712922	40	1500117.9463847	1500117.9468201	100	imm	1500118.7719412	nan	nan	nan	nan	nan
1010.33935546875	0.0	40	2069175	71	67	970	0	1	1500111.5850317	1500111.5854696	80	1500114.7125772	1500114.712922	40	1500117.9463847	1500117.9468201	100	imm	1500118.7719412	nan	nan	nan	nan	nan
1013.5732421875	0.0	100	2075798	71	67	970	0	1	1500111.5850317	1500111.5854696	80	1500114.7125772	1500114.712922	40	1500117.9463847	1500117.9468201	100	imm	1500118.7719412	nan	nan	nan	nan	nan
1017.2578125	0.0	80	2083344	72	63	280	0	0	1500121.6312221	1500121.6317348	80	1500124.8203331	1500124.8208208	40	1500128.2021875	1500128.2027237	100	imm	1500132.8591199	nan	nan	nan	nan	nan
1020.44677734375	0.0	40	2089875	72	63	280	0	0	1500121.6312221	1500121.6317348	80	1500124.8203331	1500124.8208208	40	1500128.2021875	1500128.2027237	100	imm	1500132.8591199	nan	nan	nan	nan	nan
1023.8291015625	0.0	100	2096802	72	63	280	0	0	1500121.6312221	1500121.6317348	80	1500124.8203331	1500124.8208208	40	1500128.2021875	1500128.2027237	100	imm	1500132.8591199	nan	nan	nan	nan	nan
1031.201171875	0.0	80	2111900	73	57	60	1	0	1500135.5748847	1500135.5754108	80	1500138.9242388	1500138.9246966	40	1500142.2895926	1500142.2900739	100	del	1500149.8183903	1500150.3328678	1500150.3334156	120.0	2.0	1500151.2671276
1034.55078125	0.0	40	2118760	73	57	60	1	0	1500135.5748847	1500135.5754108	80	1500138.9242388	1500138.9246966	40	1500142.2895926	1500142.2900739	100	del	1500149.8183903	1500150.3328678	1500150.3334156	120.0	2.0	1500151.2671276
1037.916015625	0.0	100	2125652	73	57	60	1	0	1500135.5748847	1500135.5754108	80	1500138.9242388	1500138.9246966	40	1500142.2895926	1500142.2900739	100	del	1500149.8183903	1500150.3328678	1500150.3334156	120.0	2.0	1500151.2671276
1045.958984375	0.0	120	2142124	73	57	60	1	0	1500135.5748847	1500135.5754108	80	1500138.9242388	1500138.9246966	40	1500142.2895926	1500142.2900739	100	del	1500149.8183903	1500150.3328678	1500150.3334156	120.0	2.0	1500151.2671276
1049.12890625	0.0	80	2148616	74	93	510	0	1	1500153.5027231	1500153.5031635	80	1500156.5199481	1500156.520337	40	1500159.6984858	1500159.698931	100	imm	1500161.1879747	nan	nan	nan	nan	nan
1052.14599609375	0.0	40	2154795	74	93	510	0	1	1500153.5027231	1500153.5031635	80	1500156.5199481	1500156.520337	40	1500159.6984858	1500159.698931	100	imm	1500161.1879747	nan	nan	nan	nan	nan
1055.32421875	0.0	100	2161304	74	93	510	0	1	1500153.5027231	1500153.5031635	80	1500156.5199481	1500156.520337	40	1500159.6984858	1500159.698931	100	imm	1500161.1879747	nan	nan	nan	nan	nan
1059.54443359375	0.0	80	2169947	75	67	510	0	0	1500163.9187481	1500163.9192232	80	1500167.0612904	1500167.0618469	40	1500170.1729912	1500170.1734903	100	imm	1500172.3960089	nan	nan	nan	nan	nan
1062.68701171875	0.0	40	2176383	75	67	510	0	0	1500163.9187481	1500163.9192232	80	1500167.0612904	1500167.0618469	40	1500170.1729912	1500170.1734903	100	imm	1500172.3960089	nan	nan	nan	nan	nan
1065.798828125	0.0	100	2182756	75	67	510	0	0	1500163.9187481	1500163.9192232	80	1500167.0612904	1500167.0618469	40	1500170.1729912	1500170.1734903	100	imm	1500172.3960089	nan	nan	nan	nan	nan
1070.9453125	0.0	80	2193296	76	77	1	1	1	1500175.3199519	1500175.3202276	80	1500178.5424007	1500178.5428721	40	1500181.9998697	1500182.0003888	100	del	1500183.148115	1500183.6606859	1500183.6611805	120.0	2.0	1500185.1065582
1074.16796875	0.0	40	2199896	76	77	1	1	1	1500175.3199519	1500175.3202276	80	1500178.5424007	1500178.5428721	40	1500181.9998697	1500182.0003888	100	del	1500183.148115	1500183.6606859	1500183.6611805	120.0	2.0	1500185.1065582
1077.625	0.0	100	2206976	76	77	1	1	1	1500175.3199519	1500175.3202276	80	1500178.5424007	1500178.5428721	40	1500181.9998697	1500182.0003888	100	del	1500183.148115	1500183.6606859	1500183.6611805	120.0	2.0	1500185.1065582
1079.2861328125	0.0	120	2210378	76	77	1	1	1	1500175.3199519	1500175.3202276	80	1500178.5424007	1500178.5428721	40	1500181.9998697	1500182.0003888	100	del	1500183.148115	1500183.6606859	1500183.6611805	120.0	2.0	1500185.1065582
1082.943359375	0.0	80	2217868	77	60	210	1	0	1500187.3182683	1500187.3187645	80	1500190.7109167	1500190.7113407	40	1500193.9221486	1500193.9226328	100	imm	1500208.2999906	1500208.8133654	1500208.8138262	120.0	2.0	1500209.8760454
1086.3359375	0.0	40	2224816	77	60	210	1	0	1500187.3182683	1500187.3187645	80	1500190.7109167	1500190.7113407	40	1500193.9221486	1500193.9226328	100	imm	1500208.2999906	1500208.8133654	1500208.8138262	120.0	2.0	1500209.8760454
1089.54736328125	0.0	100	2231393	77	60	210	1	0	1500187.3182683	1500187.3187645	80	1500190.7109167	1500190.7113407	40	1500193.9221486	1500193.9226328	100	imm	1500208.2999906	1500208.8133654	1500208.8138262	120.0	2.0	1500209.8760454
1104.43798828125	0.0	120	2261889	77	60	210	1	0	1500187.3182683	1500187.3187645	80	1500190.7109167	1500190.7113407	40	1500193.9221486	1500193.9226328	100	imm	1500208.2999906	1500208.8133654	1500208.8138262	120.0	2.0	1500209.8760454
1107.9208984375	0.0	80	2269022	78	73	210	1	0	1500212.2963927	1500212.2968385	80	1500215.6814734	1500215.6818987	40	1500218.8828242	1500218.8832596	100	na	1500220.5151434	1500221.0287601	1500221.0292037	120.0	2.0	1500223.3469302
1111.30615234375	0.0	40	2275955	78	73	210	1	0	1500212.2963927	1500212.2968385	80	1500215.6814734	1500215.6818987	40	1500218.8828242	1500218.8832596	100	na	1500220.5151434	1500221.0287601	1500221.0292037	120.0	2.0	1500223.3469302
1114.50732421875	0.0	100	2282511	78	73	210	1	0	1500212.2963927	1500212.2968385	80	1500215.6814734	1500215.6818987	40	1500218.8828242	1500218.8832596	100	na	1500220.5151434	1500221.0287601	1500221.0292037	120.0	2.0	1500223.3469302
1116.6533203125	0.0	120	2286906	78	73	210	1	0	1500212.2963927	1500212.2968385	80	1500215.6814734	1500215.6818987	40	1500218.8828242	1500218.8832596	100	na	1500220.5151434	1500221.0287601	1500221.0292037	120.0	2.0	1500223.3469302
1121.09423828125	0.0	80	2296001	79	87	365	1	1	1500225.4699916	1500225.4704751	80	1500228.8735499	1500228.8740649	40	1500232.361699	1500232.362202	100	del	1500234.6183899	1500235.1285769	1500235.1289024	120.0	3.0	1500235.8985631
1124.49755859375	0.0	40	2302971	79	87	365	1	1	1500225.4699916	1500225.4704751	80	1500228.8735499	1500228.8740649	40	1500232.361699	1500232.362202	100	del	1500234.6183899	1500235.1285769	1500235.1289024	120.0	3.0	1500235.8985631
1127.98583984375	0.0	100	2310115	79	87	365	1	1	1500225.4699916	1500225.4704751	80	1500228.8735499	1500228.8740649	40	1500232.361699	1500232.362202	100	del	1500234.6183899	1500235.1285769	1500235.1289024	120.0	3.0	1500235.8985631
1130.75244140625	0.0	120	2315781	79	87	365	1	1	1500225.4699916	1500225.4704751	80	1500228.8735499	1500228.8740649	40	1500232.361699	1500232.362202	100	del	1500234.6183899	1500235.1285769	1500235.1289024	120.0	3.0	1500235.8985631
1133.70263671875	0.0	80	2321823	80	50	365	1	1	1500238.0785542	1500238.0790217	80	1500241.4222164	1500241.4227118	40	1500244.6516955	1500244.6521027	100	imm	1500245.8995197	1500246.4108102	1500246.4111582	120.0	2.0	1500247.7222622
1137.0458984375	0.0	40	2328670	80	50	365	1	1	1500238.0785542	1500238.0790217	80	1500241.4222164	1500241.4227118	40	1500244.6516955	1500244.6521027	100	imm	1500245.8995197	1500246.4108102	1500246.4111582	120.0	2.0	1500247.7222622
1140.275390625	0.0	100	2335284	80	50	365	1	1	1500238.0785542	1500238.0790217	80	1500241.4222164	1500241.4227118	40	1500244.6516955	1500244.6521027	100	imm	1500245.8995197	1500246.4108102	1500246.4111582	120.0	2.0	1500247.7222622
1142.03466796875	0.0	120	2338887	80	50	365	1	1	1500238.0785542	1500238.0790217	80	1500241.4222164	1500241.4227118	40	1500244.6516955	1500244.6521027	100	imm	1500245.8995197	1500246.4108102	1500246.4111582	120.0	2.0	1500247.7222622
1148.36083984375	0.0	80	2351843	81	67	365	1	1	1500252.7373748	1500252.7378858	80	1500256.1296296	1500256.1301027	40	1500259.2267869	1500259.2272045	100	imm	1500261.8742734	1500262.387569	1500262.3880891	120.0	2.0	1500264.0350263
1151.7529296875	0.0	40	2358790	81	67	365	1	1	1500252.7373748	1500252.7378858	80	1500256.1296296	1500256.1301027	40	1500259.2267869	1500259.2272045	100	imm	1500261.8742734	1500262.387569	1500262.3880891	120.0	2.0	1500264.0350263
1154.85009765625	0.0	100	2365133	81	67	365	1	1	1500252.7373748	1500252.7378858	80	1500256.1296296	1500256.1301027	40	1500259.2267869	1500259.2272045	100	imm	1500261.8742734	1500262.387569	1500262.3880891	120.0	2.0	1500264.0350263
1158.0107421875	0.0	120	2371606	81	67	365	1	1	1500252.7373748	1500252.7378858	80	1500256.1296296	1500256.1301027	40	1500259.2267869	1500259.2272045	100	imm	1500261.8742734	1500262.387569	1500262.3880891	120.0	2.0	1500264.0350263
1162.1015625	0.0	80	2379984	82	93	365	1	0	1500266.4783832	1500266.4787378	80	1500269.9806595	1500269.9811745	40	1500273.2534541	1500273.2539593	100	del	1500274.723039	1500275.2365759	1500275.2369845	120.0	2.0	1500276.7625248
1165.60400390625	0.0	40	2387157	82	93	365	1	0	1500266.4783832	1500266.4787378	80	1500269.9806595	1500269.9811745	40	1500273.2534541	1500273.2539593	100	del	1500274.723039	1500275.2365759	1500275.2369845	120.0	2.0	1500276.7625248
1168.87646484375	0.0	100	2393859	82	93	365	1	0	1500266.4783832	1500266.4787378	80	1500269.9806595	1500269.9811745	40	1500273.2534541	1500273.2539593	100	del	1500274.723039	1500275.2365759	1500275.2369845	120.0	2.0	1500276.7625248
1170.859375	0.0	120	2397920	82	93	365	1	0	1500266.4783832	1500266.4787378	80	1500269.9806595	1500269.9811745	40	1500273.2534541	1500273.2539593	100	del	1500274.723039	1500275.2365759	1500275.2369845	120.0	2.0	1500276.7625248
1174.84228515625	0.0	80	2406077	83	100	120	0	1	1500279.2196598	1500279.2201514	80	1500282.5219835	1500282.5224136	40	1500285.6121779	1500285.6127024	100	del	1500291.3859968	nan	nan	nan	nan	nan
1178.14501953125	0.0	40	2412841	83	100	120	0	1	1500279.2196598	1500279.2201514	80	1500282.5219835	1500282.5224136	40	1500285.6121779	1500285.6127024	100	del	1500291.3859968	nan	nan	nan	nan	nan
1181.23486328125	0.0	100	2419169	83	100	120	0	1	1500279.2196598	1500279.2201514	80	1500282.5219835	1500282.5224136	40	1500285.6121779	1500285.6127024	100	del	1500291.3859968	nan	nan	nan	nan	nan
1189.62744140625	0.0	80	2436357	84	83	1	1	0	1500294.0047836	1500294.0052003	80	1500297.2158169	1500297.2163319	40	1500300.6037421	1500300.6041437	100	del	1500301.4344851	1500301.9433076	1500301.9435817	120.0	2.0	1500302.4758259
1192.83837890625	0.0	40	2442933	84	83	1	1	0	1500294.0047836	1500294.0052003	80	1500297.2158169	1500297.2163319	40	1500300.6037421	1500300.6041437	100	del	1500301.4344851	1500301.9433076	1500301.9435817	120.0	2.0	1500302.4758259
1196.22607421875	0.0	100	2449871	84	83	1	1	0	1500294.0047836	1500294.0052003	80	1500297.2158169	1500297.2163319	40	1500300.6037421	1500300.6041437	100	del	1500301.4344851	1500301.9433076	1500301.9435817	120.0	2.0	1500302.4758259
1197.5654296875	0.0	120	2452614	84	83	1	1	0	1500294.0047836	1500294.0052003	80	1500297.2158169	1500297.2163319	40	1500300.6037421	1500300.6041437	100	del	1500301.4344851	1500301.9433076	1500301.9435817	120.0	2.0	1500302.4758259
1200.52685546875	0.0	80	2458679	85	83	10	0	1	1500304.9045306	1500304.9050435	80	1500308.3070584	1500308.3074567	40	1500311.4797924	1500311.4802188	100	del	1500313.4349653	nan	nan	nan	nan	nan
1203.92919921875	0.0	40	2465647	85	83	10	0	1	1500304.9045306	1500304.9050435	80	1500308.3070584	1500308.3074567	40	1500311.4797924	1500311.4802188	100	del	1500313.4349653	nan	nan	nan	nan	nan
1207.10205078125	0.0	100	2472145	85	83	10	0	1	1500304.9045306	1500304.9050435	80	1500308.3070584	1500308.3074567	40	1500311.4797924	1500311.4802188	100	del	1500313.4349653	nan	nan	nan	nan	nan
1211.841796875	0.0	80	2481852	86	60	970	0	1	1500316.2199313	1500316.2203684	80	1500319.2699875	1500319.2701307	40	1500322.3344733	1500322.3347867	100	imm	1500324.3863383	nan	nan	nan	nan	nan
1214.89208984375	0.0	40	2488099	86	60	970	0	1	1500316.2199313	1500316.2203684	80	1500319.2699875	1500319.2701307	40	1500322.3344733	1500322.3347867	100	imm	1500324.3863383	nan	nan	nan	nan	nan
1217.9560546875	0.0	100	2494374	86	60	970	0	1	1500316.2199313	1500316.2203684	80	1500319.2699875	1500319.2701307	40	1500322.3344733	1500322.3347867	100	imm	1500324.3863383	nan	nan	nan	nan	nan
1222.59130859375	0.0	80	2503867	87	70	210	1	0	1500326.9697389	1500326.9701353	80	1500330.3164647	1500330.3169509	40	1500333.581032	1500333.5815471	100	del	1500338.3303448	1500338.8398222	1500338.8401532	120.0	2.0	1500339.626723
1225.93798828125	0.0	40	2510721	87	70	210	1	0	1500326.9697389	1500326.9701353	80	1500330.3164647	1500330.3169509	40	1500333.581032	1500333.5815471	100	del	1500338.3303448	1500338.8398222	1500338.8401532	120.0	2.0	1500339.626723
1229.20263671875	0.0	100	2517407	87	70	210	1	0	1500326.9697389	1500326.9701353	80	1500330.3164647	1500330.3169509	40	1500333.581032	1500333.5815471	100	del	1500338.3303448	1500338.8398222	1500338.8401532	120.0	2.0	1500339.626723
1234.4609375	0.0	120	2528176	87	70	210	1	0	1500326.9697389	1500326.9701353	80	1500330.3164647	1500330.3169509	40	1500333.581032	1500333.5815471	100	del	1500338.3303448	1500338.8398222	1500338.8401532	120.0	2.0	1500339.626723
1237.35986328125	0.0	80	2534113	88	50	700	1	1	1500341.7384183	1500341.7389457	80	1500344.9940911	1500344.9946159	40	1500348.0813745	1500348.0819267	100	imm	1500349.1938866	1500349.7054385	1500349.705915	120.0	2.0	1500350.6101367
1240.615234375	0.0	40	2540780	88	50	700	1	1	1500341.7384183	1500341.7389457	80	1500344.9940911	1500344.9946159	40	1500348.0813745	1500348.0819267	100	imm	1500349.1938866	1500349.7054385	1500349.705915	120.0	2.0	1500350.6101367
1243.70263671875	0.0	100	2547103	88	50	700	1	1	1500341.7384183	1500341.7389457	80	1500344.9940911	1500344.9946159	40	1500348.0813745	1500348.0819267	100	imm	1500349.1938866	1500349.7054385	1500349.705915	120.0	2.0	1500350.6101367
1245.32666015625	0.0	120	2550429	88	50	700	1	1	1500341.7384183	1500341.7389457	80	1500344.9940911	1500344.9946159	40	1500348.0813745	1500348.0819267	100	imm	1500349.1938866	1500349.7054385	1500349.705915	120.0	2.0	1500350.6101367
1248.2724609375	0.0	80	2556462	89	87	700	1	0	1500352.6513911	1500352.651889	80	1500356.0838859	1500356.0843146	40	1500359.380058	1500359.3807483	100	imm	1500360.9786581	1500361.4918385	1500361.4923152	120.0	2.0	1500362.0421776
1251.705078125	0.0	40	2563492	89	87	700	1	0	1500352.6513911	1500352.651889	80	1500356.0838859	1500356.0843146	40	1500359.380058	1500359.3807483	100	imm	1500360.9786581	1500361.4918385	1500361.4923152	120.0	2.0	1500362.0421776
1255.0009765625	0.0	100	2570242	89	87	700	1	0	1500352.6513911	1500352.651889	80	1500356.0838859	1500356.0843146	40	1500359.380058	1500359.3807483	100	imm	1500360.9786581	1500361.4918385	1500361.4923152	120.0	2.0	1500362.0421776
1257.11279296875	0.0	120	2574567	89	87	700	1	0	1500352.6513911	1500352.651889	80	1500356.0838859	1500356.0843146	40	1500359.380058	1500359.3807483	100	imm	1500360.9786581	1500361.4918385	1500361.4923152	120.0	2.0	1500362.0421776
1260.138671875	0.0	80	2580764	90	93	10	0	0	1500364.5182001	1500364.5185457	80	1500367.8731019	1500367.8734063	40	1500371.1781018	1500371.1786144	100	del	1500372.5066966	nan	nan	nan	nan	nan
1263.49365234375	0.0	40	2587635	90	93	10	0	0	1500364.5182001	1500364.5185457	80	1500367.8731019	1500367.8734063	40	1500371.1781018	1500371.1786144	100	del	1500372.5066966	nan	nan	nan	nan	nan
1266.798828125	0.0	100	2594404	90	93	10	0	0	1500364.5182001	1500364.5185457	80	1500367.8731019	1500367.8734063	40	1500371.1781018	1500371.1786144	100	del	1500372.5066966	nan	nan	nan	nan	nan
1271.05029296875	0.0	80	2603111	91	67	280	0	1	1500375.429695	1500375.4301191	80	1500378.8765819	1500378.8770487	40	1500382.3852141	1500382.3863379	100	imm	1500386.3945565	nan	nan	nan	nan	nan
1274.4970703125	0.0	40	2610170	91	67	280	0	1	1500375.429695	1500375.4301191	80	1500378.8765819	1500378.8770487	40	1500382.3852141	1500382.3863379	100	imm	1500386.3945565	nan	nan	nan	nan	nan
1278.005859375	0.0	100	2617356	91	67	280	0	1	1500375.429695	1500375.4301191	80	1500378.8765819	1500378.8770487	40	1500382.3852141	1500382.3863379	100	imm	1500386.3945565	nan	nan	nan	nan	nan
1284.53271484375	0.0	80	2630723	92	57	1	1	0	1500388.9127249	1500388.9132204	80	1500392.3538319	1500392.3543432	40	1500395.6735319	1500395.6740226	100	del	1500398.9947601	1500399.5086349	1500399.5091907	120.0	2.0	1500400.129825
1287.97412109375	0.0	40	2637771	92	57	1	1	0	1500388.9127249	1500388.9132204	80	1500392.3538319	1500392.3543432	40	1500395.6735319	1500395.6740226	100	del	1500398.9947601	1500399.5086349	1500399.5091907	120.0	2.0	1500400.129825
1291.29345703125	0.0	100	2644569	92	57	1	1	0	1500388.9127249	1500388.9132204	80	1500392.3538319	1500392.3543432	40	1500395.6735319	1500395.6740226	100	del	1500398.9947601	1500399.5086349	1500399.5091907	120.0	2.0	1500400.129825
1295.12841796875	0.0	120	2652423	92	57	1	1	0	1500388.9127249	1500388.9132204	80	1500392.3538319	1500392.3543432	40	1500395.6735319	1500395.6740226	100	del	1500398.9947601	1500399.5086349	1500399.5091907	120.0	2.0	1500400.129825
1298.26123046875	0.0	80	2658839	93	100	10	0	0	1500402.6412997	1500402.6418255	80	1500405.9127153	1500405.9131913	40	1500409.1653884	1500409.1658268	100	del	1500409.8023526	nan	nan	nan	nan	nan
1301.5322265625	0.0	40	2665538	93	100	10	0	0	1500402.6412997	1500402.6418255	80	1500405.9127153	1500405.9131913	40	1500409.1653884	1500409.1658268	100	del	1500409.8023526	nan	nan	nan	nan	nan
1304.78515625	0.0	100	2672200	93	100	10	0	0	1500402.6412997	1500402.6418255	80	1500405.9127153	1500405.9131913	40	1500409.1653884	1500409.1658268	100	del	1500409.8023526	nan	nan	nan	nan	nan
1308.33837890625	0.0	80	2679477	94	77	510	0	0	1500412.7190352	1500412.7195467	80	1500415.8405462	1500415.8409064	40	1500419.1028504	1500419.1033424	100	imm	1500419.675702	nan	nan	nan	nan	nan
1311.4599609375	0.0	40	2685870	94	77	510	0	0	1500412.7190352	1500412.7195467	80	1500415.8405462	1500415.8409064	40	1500419.1028504	1500419.1033424	100	imm	1500419.675702	nan	nan	nan	nan	nan
1314.72216796875	0.0	100	2692551	94	77	510	0	0	1500412.7190352	1500412.7195467	80	1500415.8405462	1500415.8409064	40	1500419.1028504	1500419.1033424	100	imm	1500419.675702	nan	nan	nan	nan	nan
1318.259765625	0.0	80	2699796	95	60	280	0	0	1500422.6407321	1500422.6410908	80	1500425.9357494	1500425.9362487	40	1500429.3710902	1500429.3715375	100	imm	1500430.0260771	nan	nan	nan	nan	nan
1321.55517578125	0.0	40	2706545	95	60	280	0	0	1500422.6407321	1500422.6410908	80	1500425.9357494	1500425.9362487	40	1500429.3710902	1500429.3715375	100	imm	1500430.0260771	nan	nan	nan	nan	nan
1324.990234375	0.0	100	2713580	95	60	280	0	0	1500422.6407321	1500422.6410908	80	1500425.9357494	1500425.9362487	40	1500429.3710902	1500429.3715375	100	imm	1500430.0260771	nan	nan	nan	nan	nan
1328.5302734375	0.0	80	2720830	96	50	120	0	0	1500432.911397	1500432.9118993	80	1500436.2127585	1500436.2132371	40	1500439.3493326	1500439.3497889	100	imm	1500440.2117272	nan	nan	nan	nan	nan
1331.83154296875	0.0	40	2727591	96	50	120	0	0	1500432.911397	1500432.9118993	80	1500436.2127585	1500436.2132371	40	1500439.3493326	1500439.3497889	100	imm	1500440.2117272	nan	nan	nan	nan	nan
1334.96826171875	0.0	100	2734015	96	50	120	0	0	1500432.911397	1500432.9118993	80	1500436.2127585	1500436.2132371	40	1500439.3493326	1500439.3497889	100	imm	1500440.2117272	nan	nan	nan	nan	nan
1338.68115234375	0.0	80	2741619	97	87	60	1	0	1500443.0620355	1500443.0626185	80	1500446.1101818	1500446.1105592	40	1500449.4386206	1500449.4390656	100	del	1500450.3058667	1500450.8195141	1500450.820033	120.0	2.0	1500451.6353782
1341.72900390625	0.0	40	2747861	97	87	60	1	0	1500443.0620355	1500443.0626185	80	1500446.1101818	1500446.1105592	40	1500449.4386206	1500449.4390656	100	del	1500450.3058667	1500450.8195141	1500450.820033	120.0	2.0	1500451.6353782
1345.05712890625	0.0	100	2754677	97	87	60	1	0	1500443.0620355	1500443.0626185	80	1500446.1101818	1500446.1105592	40	1500449.4386206	1500449.4390656	100	del	1500450.3058667	1500450.8195141	1500450.820033	120.0	2.0	1500451.6353782
1346.43798828125	0.0	120	2757505	97	87	60	1	0	1500443.0620355	1500443.0626185	80	1500446.1101818	1500446.1105592	40	1500449.4386206	1500449.4390656	100	del	1500450.3058667	1500450.8195141	1500450.820033	120.0	2.0	1500451.6353782
1349.59814453125	0.0	80	2763977	98	90	60	1	0	1500453.9796601	1500453.9802038	80	1500457.3524476	1500457.3530303	40	1500460.810834	1500460.8113847	100	del	1500461.745964	1500462.2587869	1500462.2591962	120.0	2.0	1500465.2664487
1352.97119140625	0.0	40	2770885	98	90	60	1	0	1500453.9796601	1500453.9802038	80	1500457.3524476	1500457.3530303	40	1500460.810834	1500460.8113847	100	del	1500461.745964	1500462.2587869	1500462.2591962	120.0	2.0	1500465.2664487
1356.42919921875	0.0	100	2777967	98	90	60	1	0	1500453.9796601	1500453.9802038	80	1500457.3524476	1500457.3530303	40	1500460.810834	1500460.8113847	100	del	1500461.745964	1500462.2587869	1500462.2591962	120.0	2.0	1500465.2664487
1357.876953125	0.0	120	2780932	98	90	60	1	0	1500453.9796601	1500453.9802038	80	1500457.3524476	1500457.3530303	40	1500460.810834	1500460.8113847	100	del	1500461.745964	1500462.2587869	1500462.2591962	120.0	2.0	1500465.2664487
1363.3916015625	0.0	80	2792226	99	70	510	0	0	1500467.7736424	1500467.7741094	80	1500471.165764	1500471.1662661	40	1500474.4673878	1500474.4678014	100	imm	1500478.6019902	nan	nan	nan	nan	nan
1366.78369140625	0.0	40	2799173	99	70	510	0	0	1500467.7736424	1500467.7741094	80	1500471.165764	1500471.1662661	40	1500474.4673878	1500474.4678014	100	imm	1500478.6019902	nan	nan	nan	nan	nan
1370.08544921875	0.0	100	2805935	99	70	510	0	0	1500467.7736424	1500467.7741094	80	1500471.165764	1500471.1662661	40	1500474.4673878	1500474.4678014	100	imm	1500478.6019902	nan	nan	nan	nan	nan
1377.201171875	0.0	80	2820508	100	73	365	1	1	1500481.5831962	1500481.5836346	80	1500484.880776	1500484.8812579	40	1500487.9025861	1500487.9030763	100	del	1500493.3304605	1500493.8414498	1500493.8418685	120.0	2.0	1500495.0743484
1380.49853515625	0.0	40	2827261	100	73	365	1	1	1500481.5831962	1500481.5836346	80	1500484.880776	1500484.8812579	40	1500487.9025861	1500487.9030763	100	del	1500493.3304605	1500493.8414498	1500493.8418685	120.0	2.0	1500495.0743484
1383.5205078125	0.0	100	2833450	100	73	365	1	1	1500481.5831962	1500481.5836346	80	1500484.880776	1500484.8812579	40	1500487.9025861	1500487.9030763	100	del	1500493.3304605	1500493.8414498	1500493.8418685	120.0	2.0	1500495.0743484
1389.458984375	0.0	120	2845612	100	73	365	1	1	1500481.5831962	1500481.5836346	80	1500484.880776	1500484.8812579	40	1500487.9025861	1500487.9030763	100	del	1500493.3304605	1500493.8414498	1500493.8418685	120.0	2.0	1500495.0743484
1414.52001953125	0.0	80	2896937	101	50	60	1	0	1500518.9029704	1500518.9033254	80	1500522.3418963	1500522.3423424	40	1500525.5967632	1500525.5973029	100	imm	1500526.4496774	1500526.9632784	1500526.9637444	120.0	2.0	1500527.5696047
1417.95849609375	0.0	40	2903979	101	50	60	1	0	1500518.9029704	1500518.9033254	80	1500522.3418963	1500522.3423424	40	1500525.5967632	1500525.5973029	100	imm	1500526.4496774	1500526.9632784	1500526.9637444	120.0	2.0	1500527.5696047
1421.21337890625	0.0	100	2910645	101	50	60	1	0	1500518.9029704	1500518.9033254	80	1500522.3418963	1500522.3423424	40	1500525.5967632	1500525.5973029	100	imm	1500526.4496774	1500526.9632784	1500526.9637444	120.0	2.0	1500527.5696047
1422.580078125	0.0	120	2913444	101	50	60	1	0	1500518.9029704	1500518.9033254	80	1500522.3418963	1500522.3423424	40	1500525.5967632	1500525.5973029	100	imm	1500526.4496774	1500526.9632784	1500526.9637444	120.0	2.0	1500527.5696047
1425.623046875	0.0	80	2919676	102	73	280	0	1	1500530.0064833	1500530.0068158	80	1500533.1198219	1500533.1205315	40	1500536.4094334	1500536.4099261	100	imm	1500537.9301722	nan	nan	nan	nan	nan
1428.73681640625	0.0	40	2926053	102	73	280	0	1	1500530.0064833	1500530.0068158	80	1500533.1198219	1500533.1205315	40	1500536.4094334	1500536.4099261	100	imm	1500537.9301722	nan	nan	nan	nan	nan
1432.02587890625	0.0	100	2932789	102	73	280	0	1	1500530.0064833	1500530.0068158	80	1500533.1198219	1500533.1205315	40	1500536.4094334	1500536.4099261	100	imm	1500537.9301722	nan	nan	nan	nan	nan
1436.3759765625	0.0	80	2941698	103	67	10	0	1	1500540.7599101	1500540.760233	80	1500543.7817114	1500543.7820735	40	1500547.1027896	1500547.1032968	100	del	1500547.6432625	nan	nan	nan	nan	nan
1439.39794921875	0.0	40	2947887	103	67	10	0	1	1500540.7599101	1500540.760233	80	1500543.7817114	1500543.7820735	40	1500547.1027896	1500547.1032968	100	del	1500547.6432625	nan	nan	nan	nan	nan
1442.71923828125	0.0	100	2954689	103	67	10	0	1	1500540.7599101	1500540.760233	80	1500543.7817114	1500543.7820735	40	1500547.1027896	1500547.1032968	100	del	1500547.6432625	nan	nan	nan	nan	nan
1445.95654296875	0.0	80	2961319	104	90	970	0	1	1500550.3404241	1500550.3408178	80	1500553.3726569	1500553.3731046	40	1500556.6302776	1500556.6308061	100	imm	1500557.2101782	nan	nan	nan	nan	nan
1448.98876953125	0.0	40	2967529	104	90	970	0	1	1500550.3404241	1500550.3408178	80	1500553.3726569	1500553.3731046	40	1500556.6302776	1500556.6308061	100	imm	1500557.2101782	nan	nan	nan	nan	nan
1452.24609375	0.0	100	2974200	104	90	970	0	1	1500550.3404241	1500550.3408178	80	1500553.3726569	1500553.3731046	40	1500556.6302776	1500556.6308061	100	imm	1500557.2101782	nan	nan	nan	nan	nan
1455.43896484375	0.0	80	2980739	105	90	1	1	1	1500559.8232069	1500559.8235692	80	1500562.8920988	1500562.8925271	40	1500566.0083496	1500566.0088387	100	del	1500570.0258326	1500570.536392	1500570.5367642	120.0	2.0	1500571.2262917
1458.5078125	0.0	40	2987024	105	90	1	1	1	1500559.8232069	1500559.8235692	80	1500562.8920988	1500562.8925271	40	1500566.0083496	1500566.0088387	100	del	1500570.0258326	1500570.536392	1500570.5367642	120.0	2.0	1500571.2262917
1461.6240234375	0.0	100	2993406	105	90	1	1	1	1500559.8232069	1500559.8235692	80	1500562.8920988	1500562.8925271	40	1500566.0083496	1500566.0088387	100	del	1500570.0258326	1500570.536392	1500570.5367642	120.0	2.0	1500571.2262917
1466.15185546875	0.0	120	3002679	105	90	1	1	1	1500559.8232069	1500559.8235692	80	1500562.8920988	1500562.8925271	40	1500566.0083496	1500566.0088387	100	del	1500570.0258326	1500570.536392	1500570.5367642	120.0	2.0	1500571.2262917
1468.9267578125	0.0	80	3008362	106	53	1	1	0	1500573.311339	1500573.3116625	80	1500576.4131114	1500576.4135615	40	1500579.4473296	1500579.4480457	100	del	1500584.2418612	1500584.7512997	1500584.7515962	120.0	2.0	1500585.4016674
1472.02880859375	0.0	40	3014715	106	53	1	1	0	1500573.311339	1500573.3116625	80	1500576.4131114	1500576.4135615	40	1500579.4473296	1500579.4480457	100	del	1500584.2418612	1500584.7512997	1500584.7515962	120.0	2.0	1500585.4016674
1475.06298828125	0.0	100	3020929	106	53	1	1	0	1500573.311339	1500573.3116625	80	1500576.4131114	1500576.4135615	40	1500579.4473296	1500579.4480457	100	del	1500584.2418612	1500584.7512997	1500584.7515962	120.0	2.0	1500585.4016674
1480.36669921875	0.0	120	3031791	106	53	1	1	0	1500573.311339	1500573.3116625	80	1500576.4131114	1500576.4135615	40	1500579.4473296	1500579.4480457	100	del	1500584.2418612	1500584.7512997	1500584.7515962	120.0	2.0	1500585.4016674
1483.3486328125	0.0	80	3037898	107	63	970	0	0	1500587.7334999	1500587.7338521	80	1500590.8821307	1500590.8825394	40	1500594.1609983	1500594.1614093	100	imm	1500594.7857136	nan	nan	nan	nan	nan
1486.4970703125	0.0	40	3044346	107	63	970	0	0	1500587.7334999	1500587.7338521	80	1500590.8821307	1500590.8825394	40	1500594.1609983	1500594.1614093	100	imm	1500594.7857136	nan	nan	nan	nan	nan
1489.77587890625	0.0	100	3051061	107	63	970	0	0	1500587.7334999	1500587.7338521	80	1500590.8821307	1500590.8825394	40	1500594.1609983	1500594.1614093	100	imm	1500594.7857136	nan	nan	nan	nan	nan
1493.267578125	0.0	80	3058212	108	50	1	1	1	1500597.6523913	1500597.6529001	80	1500600.9096358	1500600.9100722	40	1500604.1907042	1500604.1911538	100	del	1500606.081741	1500606.5936229	1500606.5941535	120.0	2.0	1500607.377453
1496.5244140625	0.0	40	3064882	108	50	1	1	1	1500597.6523913	1500597.6529001	80	1500600.9096358	1500600.9100722	40	1500604.1907042	1500604.1911538	100	del	1500606.081741	1500606.5936229	1500606.5941535	120.0	2.0	1500607.377453
1499.8056640625	0.0	100	3071602	108	50	1	1	1	1500597.6523913	1500597.6529001	80	1500600.9096358	1500600.9100722	40	1500604.1907042	1500604.1911538	100	del	1500606.081741	1500606.5936229	1500606.5941535	120.0	2.0	1500607.377453
1502.20849609375	0.0	120	3076523	108	50	1	1	1	1500597.6523913	1500597.6529001	80	1500600.9096358	1500600.9100722	40	1500604.1907042	1500604.1911538	100	del	1500606.081741	1500606.5936229	1500606.5941535	120.0	2.0	1500607.377453
1505.228515625	0.0	80	3082708	109	100	280	0	1	1500609.6137854	1500609.6142436	80	1500612.6830088	1500612.6834594	40	1500615.9410968	1500615.9415634	100	imm	1500617.8578492	nan	nan	nan	nan	nan
1508.29736328125	0.0	40	3088993	109	100	280	0	1	1500609.6137854	1500609.6142436	80	1500612.6830088	1500612.6834594	40	1500615.9410968	1500615.9415634	100	imm	1500617.8578492	nan	nan	nan	nan	nan
1511.5556640625	0.0	100	3095666	109	100	280	0	1	1500609.6137854	1500609.6142436	80	1500612.6830088	1500612.6834594	40	1500615.9410968	1500615.9415634	100	imm	1500617.8578492	nan	nan	nan	nan	nan
1516.41162109375	0.0	80	3105611	110	90	700	1	0	1500620.7974026	1500620.7976994	80	1500624.2425414	1500624.2430847	40	1500627.3908298	1500627.3912943	100	imm	1500629.2494594	1500629.7631179	1500629.7636271	120.0	1.0	1500631.5373187
1519.85693359375	0.0	40	3112667	110	90	700	1	0	1500620.7974026	1500620.7976994	80	1500624.2425414	1500624.2430847	40	1500627.3908298	1500627.3912943	100	imm	1500629.2494594	1500629.7631179	1500629.7636271	120.0	1.0	1500631.5373187
1523.0048828125	0.0	100	3119114	110	90	700	1	0	1500620.7974026	1500620.7976994	80	1500624.2425414	1500624.2430847	40	1500627.3908298	1500627.3912943	100	imm	1500629.2494594	1500629.7631179	1500629.7636271	120.0	1.0	1500631.5373187
1525.37744140625	0.0	120	3123973	110	90	700	1	0	1500620.7974026	1500620.7976994	80	1500624.2425414	1500624.2430847	40	1500627.3908298	1500627.3912943	100	imm	1500629.2494594	1500629.7631179	1500629.7636271	120.0	1.0	1500631.5373187
1529.2734375	0.0	80	3131952	111	60	700	1	1	1500633.6594792	1500633.6599078	80	1500636.9493389	1500636.9498059	40	1500640.2826092	1500640.2830838	100	imm	1500641.3774387	1500641.8881437	1500641.8884903	120.0	1.0	1500642.1538088
1532.5634765625	0.0	40	3138690	111	60	700	1	1	1500633.6594792	1500633.6599078	80	1500636.9493389	1500636.9498059	40	1500640.2826092	1500640.2830838	100	imm	1500641.3774387	1500641.8881437	1500641.8884903	120.0	1.0	1500642.1538088
1535.896484375	0.0	100	3145516	111	60	700	1	1	1500633.6594792	1500633.6599078	80	1500636.9493389	1500636.9498059	40	1500640.2826092	1500640.2830838	100	imm	1500641.3774387	1500641.8881437	1500641.8884903	120.0	1.0	1500642.1538088
1537.501953125	0.0	120	3148804	111	60	700	1	1	1500633.6594792	1500633.6599078	80	1500636.9493389	1500636.9498059	40	1500640.2826092	1500640.2830838	100	imm	1500641.3774387	1500641.8881437	1500641.8884903	120.0	1.0	1500642.1538088
1539.9921875	0.0	80	3153904	112	77	210	1	0	1500644.3784943	1500644.3789146	80	1500647.4889233	1500647.4893595	40	1500650.9763839	1500650.9768497	100	imm	1500658.6494579	1500659.1610383	1500659.1614212	120.0	1.0	1500661.6574472
1543.1025390625	0.0	40	3160274	112	77	210	1	0	1500644.3784943	1500644.3789146	80	1500647.4889233	1500647.4893595	40	1500650.9763839	1500650.9768497	100	imm	1500658.6494579	1500659.1610383	1500659.1614212	120.0	1.0	1500661.6574472
1546.58984375	0.0	100	3167416	112	77	210	1	0	1500644.3784943	1500644.3789146	80	1500647.4889233	1500647.4893595	40	1500650.9763839	1500650.9768497	100	imm	1500658.6494579	1500659.1610383	1500659.1614212	120.0	1.0	1500661.6574472
1554.7744140625	0.0	120	3184178	112	77	210	1	0	1500644.3784943	1500644.3789146	80	1500647.4889233	1500647.4893595	40	1500650.9763839	1500650.9768497	100	imm	1500658.6494579	1500659.1610383	1500659.1614212	120.0	1.0	1500661.6574472
1559.330078125	0.0	80	3193508	113	93	280	0	0	1500663.716579	1500663.7170083	80	1500666.7769709	1500666.7774711	40	1500669.8586265	1500669.8589864	100	imm	1500677.4740862	nan	nan	nan	nan	nan
1562.39013671875	0.0	40	3199775	113	93	280	0	0	1500663.716579	1500663.7170083	80	1500666.7769709	1500666.7774711	40	1500669.8586265	1500669.8589864	100	imm	1500677.4740862	nan	nan	nan	nan	nan
1565.4716796875	0.0	100	3206086	113	93	280	0	0	1500663.716579	1500663.7170083	80	1500666.7769709	1500666.7774711	40	1500669.8586265	1500669.8589864	100	imm	1500677.4740862	nan	nan	nan	nan	nan
1575.68603515625	0.0	80	3227005	114	97	510	0	0	1500680.0733261	1500680.0737649	80	1500683.3904126	1500683.3908069	40	1500686.6884479	1500686.6887951	100	imm	1500687.8255298	nan	nan	nan	nan	nan
1579.00341796875	0.0	40	3233799	114	97	510	0	0	1500680.0733261	1500680.0737649	80	1500683.3904126	1500683.3908069	40	1500686.6884479	1500686.6887951	100	imm	1500687.8255298	nan	nan	nan	nan	nan
1582.30126953125	0.0	100	3240553	114	97	510	0	0	1500680.0733261	1500680.0737649	80	1500683.3904126	1500683.3908069	40	1500686.6884479	1500686.6887951	100	imm	1500687.8255298	nan	nan	nan	nan	nan
1585.97998046875	0.0	80	3248087	115	63	1	1	0	1500690.367251	1500690.3677751	80	1500693.8404346	1500693.8408665	40	1500697.2186476	1500697.2191811	100	del	1500698.2494516	1500698.7602783	1500698.7606416	120.0	2.0	1500700.8099785
1589.453125	0.0	40	3255200	115	63	1	1	0	1500690.367251	1500690.3677751	80	1500693.8404346	1500693.8408665	40	1500697.2186476	1500697.2191811	100	del	1500698.2494516	1500698.7602783	1500698.7606416	120.0	2.0	1500700.8099785
1592.8310546875	0.0	100	3262118	115	63	1	1	0	1500690.367251	1500690.3677751	80	1500693.8404346	1500693.8408665	40	1500697.2186476	1500697.2191811	100	del	1500698.2494516	1500698.7602783	1500698.7606416	120.0	2.0	1500700.8099785
1594.37255859375	0.0	120	3265275	115	63	1	1	0	1500690.367251	1500690.3677751	80	1500693.8404346	1500693.8408665	40	1500697.2186476	1500697.2191811	100	del	1500698.2494516	1500698.7602783	1500698.7606416	120.0	2.0	1500700.8099785
1598.8056640625	0.0	80	3274354	116	60	365	1	1	1500703.1931942	1500703.1936503	80	1500706.233162	1500706.2348613	40	1500709.6775256	1500709.6780515	100	imm	1500717.3379804	1500717.8494572	1500717.849915	120.0	1.0	1500719.0655059
1601.845703125	0.0	40	3280580	116	60	365	1	1	1500703.1931942	1500703.1936503	80	1500706.233162	1500706.2348613	40	1500709.6775256	1500709.6780515	100	imm	1500717.3379804	1500717.8494572	1500717.849915	120.0	1.0	1500719.0655059
1605.28955078125	0.0	100	3287633	116	60	365	1	1	1500703.1931942	1500703.1936503	80	1500706.233162	1500706.2348613	40	1500709.6775256	1500709.6780515	100	imm	1500717.3379804	1500717.8494572	1500717.849915	120.0	1.0	1500719.0655059
1613.46142578125	0.0	120	3304369	116	60	365	1	1	1500703.1931942	1500703.1936503	80	1500706.233162	1500706.2348613	40	1500709.6775256	1500709.6780515	100	imm	1500717.3379804	1500717.8494572	1500717.849915	120.0	1.0	1500719.0655059
1617.15869140625	0.0	80	3311941	117	90	120	0	1	1500721.5465091	1500721.5471233	80	1500725.0484423	1500725.0489665	40	1500728.4908247	1500728.4913559	100	del	1500729.5213559	nan	nan	nan	nan	nan
1620.66015625	0.0	40	3319112	117	90	120	0	1	1500721.5465091	1500721.5471233	80	1500725.0484423	1500725.0489665	40	1500728.4908247	1500728.4913559	100	del	1500729.5213559	nan	nan	nan	nan	nan
1624.1025390625	0.0	100	3326162	117	90	120	0	1	1500721.5465091	1500721.5471233	80	1500725.0484423	1500725.0489665	40	1500728.4908247	1500728.4913559	100	del	1500729.5213559	nan	nan	nan	nan	nan
1628.04296875	0.0	80	3334232	118	90	510	0	0	1500732.4312861	1500732.4318193	80	1500735.6962669	1500735.6967351	40	1500738.7983488	1500738.7988293	100	imm	1500742.1454383	nan	nan	nan	nan	nan
1631.3076171875	0.0	40	3340918	118	90	510	0	0	1500732.4312861	1500732.4318193	80	1500735.6962669	1500735.6967351	40	1500738.7983488	1500738.7988293	100	imm	1500742.1454383	nan	nan	nan	nan	nan
1634.40966796875	0.0	100	3347271	118	90	510	0	0	1500732.4312861	1500732.4318193	80	1500735.6962669	1500735.6967351	40	1500738.7983488	1500738.7988293	100	imm	1500742.1454383	nan	nan	nan	nan	nan
1640.47412109375	0.0	80	3359691	119	53	365	1	1	1500744.8625634	1500744.8630553	80	1500747.9370381	1500747.9374889	40	1500750.9674419	1500750.967968	100	imm	1500753.8891793	1500754.3995636	1500754.3998946	120.0	2.0	1500755.91367
1643.54833984375	0.0	40	3365987	119	53	365	1	1	1500744.8625634	1500744.8630553	80	1500747.9370381	1500747.9374889	40	1500750.9674419	1500750.967968	100	imm	1500753.8891793	1500754.3995636	1500754.3998946	120.0	2.0	1500755.91367
1646.57861328125	0.0	100	3372193	119	53	365	1	1	1500744.8625634	1500744.8630553	80	1500747.9370381	1500747.9374889	40	1500750.9674419	1500750.967968	100	imm	1500753.8891793	1500754.3995636	1500754.3998946	120.0	2.0	1500755.91367
1650.0107421875	0.0	120	3379222	119	53	365	1	1	1500744.8625634	1500744.8630553	80	1500747.9370381	1500747.9374889	40	1500750.9674419	1500750.967968	100	imm	1500753.8891793	1500754.3995636	1500754.3998946	120.0	2.0	1500755.91367
1654.00732421875	0.0	80	3387407	120	97	280	0	0	1500758.3963587	1500758.3967279	80	1500761.5543871	1500761.5549054	40	1500764.7158811	1500764.7163572	100	imm	1500766.1212568	nan	nan	nan	nan	nan
1657.16552734375	0.0	40	3393875	120	97	280	0	0	1500758.3963587	1500758.3967279	80	1500761.5543871	1500761.5549054	40	1500764.7158811	1500764.7163572	100	imm	1500766.1212568	nan	nan	nan	nan	nan
1660.32666015625	0.0	100	3400349	120	97	280	0	0	1500758.3963587	1500758.3967279	80	1500761.5543871	1500761.5549054	40	1500764.7158811	1500764.7163572	100	imm	1500766.1212568	nan	nan	nan	nan	nan
1669.00390625	0.0	80	3418120	121	57	700	1	1	1500773.3934943	1500773.3939597	80	1500776.63452	1500776.6350543	40	1500779.9715662	1500779.9720392	100	imm	1500781.8571946	1500782.3663131	1500782.3666682	120.0	2.0	1500783.7131572
1672.2451171875	0.0	40	3424758	121	57	700	1	1	1500773.3934943	1500773.3939597	80	1500776.63452	1500776.6350543	40	1500779.9715662	1500779.9720392	100	imm	1500781.8571946	1500782.3663131	1500782.3666682	120.0	2.0	1500783.7131572
1675.58203125	0.0	100	3431592	121	57	700	1	1	1500773.3934943	1500773.3939597	80	1500776.63452	1500776.6350543	40	1500779.9715662	1500779.9720392	100	imm	1500781.8571946	1500782.3663131	1500782.3666682	120.0	2.0	1500783.7131572
1677.9765625	0.0	120	3436496	121	57	700	1	1	1500773.3934943	1500773.3939597	80	1500776.63452	1500776.6350543	40	1500779.9715662	1500779.9720392	100	imm	1500781.8571946	1500782.3663131	1500782.3666682	120.0	2.0	1500783.7131572
1681.34765625	0.0	80	3443400	122	57	280	0	1	1500785.7370695	1500785.7372801	80	1500789.1639914	1500789.1643248	40	1500792.4574687	1500792.458013	100	imm	1500793.4100144	nan	nan	nan	nan	nan
1684.77392578125	0.0	40	3450417	122	57	280	0	1	1500785.7370695	1500785.7372801	80	1500789.1639914	1500789.1643248	40	1500792.4574687	1500792.458013	100	imm	1500793.4100144	nan	nan	nan	nan	nan
1688.06787109375	0.0	100	3457163	122	57	280	0	1	1500785.7370695	1500785.7372801	80	1500789.1639914	1500789.1643248	40	1500792.4574687	1500792.458013	100	imm	1500793.4100144	nan	nan	nan	nan	nan
1691.9638671875	0.0	80	3465142	123	50	10	0	0	1500796.3538169	1500796.3542646	80	1500799.5354311	1500799.5359207	40	1500802.774064	1500802.7743878	100	del	1500806.145305	nan	nan	nan	nan	nan
1695.1455078125	0.0	40	3471658	123	50	10	0	0	1500796.3538169	1500796.3542646	80	1500799.5354311	1500799.5359207	40	1500802.774064	1500802.7743878	100	del	1500806.145305	nan	nan	nan	nan	nan
1698.3837890625	0.0	100	3478290	123	50	10	0	0	1500796.3538169	1500796.3542646	80	1500799.5354311	1500799.5359207	40	1500802.774064	1500802.7743878	100	del	1500806.145305	nan	nan	nan	nan	nan
1704.30029296875	0.0	80	3490407	124	63	510	0	0	1500808.6908519	1500808.691277	80	1500811.7858937	1500811.7862893	40	1500815.1301495	1500815.1306502	100	imm	1500815.7451733	nan	nan	nan	nan	nan
1707.3955078125	0.0	40	3496746	124	63	510	0	0	1500808.6908519	1500808.691277	80	1500811.7858937	1500811.7862893	40	1500815.1301495	1500815.1306502	100	imm	1500815.7451733	nan	nan	nan	nan	nan
1710.73974609375	0.0	100	3503595	124	63	510	0	0	1500808.6908519	1500808.691277	80	1500811.7858937	1500811.7862893	40	1500815.1301495	1500815.1306502	100	imm	1500815.7451733	nan	nan	nan	nan	nan
1714.04052734375	0.0	80	3510355	125	60	1	1	0	1500818.4308554	1500818.4313604	80	1500821.8881282	1500821.8885787	40	1500824.9605157	1500824.9609981	100	del	1500826.5298202	1500827.0396658	1500827.0400059	120.0	1.0	1500828.4973606
1717.49755859375	0.0	40	3517435	125	60	1	1	0	1500818.4308554	1500818.4313604	80	1500821.8881282	1500821.8885787	40	1500824.9605157	1500824.9609981	100	del	1500826.5298202	1500827.0396658	1500827.0400059	120.0	1.0	1500828.4973606
1720.56982421875	0.0	100	3523727	125	60	1	1	0	1500818.4308554	1500818.4313604	80	1500821.8881282	1500821.8885787	40	1500824.9605157	1500824.9609981	100	del	1500826.5298202	1500827.0396658	1500827.0400059	120.0	1.0	1500828.4973606
1722.64892578125	0.0	120	3527985	125	60	1	1	0	1500818.4308554	1500818.4313604	80	1500821.8881282	1500821.8885787	40	1500824.9605157	1500824.9609981	100	del	1500826.5298202	1500827.0396658	1500827.0400059	120.0	1.0	1500828.4973606
1726.61669921875	0.0	80	3536111	126	73	10	0	1	1500831.0077371	1500831.0082129	80	1500834.2841952	1500834.2845739	40	1500837.6498602	1500837.6503136	100	del	1500838.5136952	nan	nan	nan	nan	nan
1729.89306640625	0.0	40	3542821	126	73	10	0	1	1500831.0077371	1500831.0082129	80	1500834.2841952	1500834.2845739	40	1500837.6498602	1500837.6503136	100	del	1500838.5136952	nan	nan	nan	nan	nan
1733.2587890625	0.0	100	3549714	126	73	10	0	1	1500831.0077371	1500831.0082129	80	1500834.2841952	1500834.2845739	40	1500837.6498602	1500837.6503136	100	del	1500838.5136952	nan	nan	nan	nan	nan
1737.1376953125	0.0	80	3557658	127	50	510	0	0	1500841.5289827	1500841.5294334	80	1500844.6797291	1500844.680098	40	1500847.9009223	1500847.9014343	100	imm	1500852.8495238	nan	nan	nan	nan	nan
1740.28857421875	0.0	40	3564111	127	50	510	0	0	1500841.5289827	1500841.5294334	80	1500844.6797291	1500844.680098	40	1500847.9009223	1500847.9014343	100	imm	1500852.8495238	nan	nan	nan	nan	nan
1743.509765625	0.0	100	3570708	127	50	510	0	0	1500841.5289827	1500841.5294334	80	1500844.6797291	1500844.680098	40	1500847.9009223	1500847.9014343	100	imm	1500852.8495238	nan	nan	nan	nan	nan
1751.20849609375	0.0	80	3586475	128	70	1	1	0	1500855.5998921	1500855.6004106	80	1500858.9893881	1500858.9899037	40	1500862.4116537	1500862.4121723	100	del	1500867.5068332	1500868.0203598	1500868.0209082	120.0	2.0	1500868.7053689
1754.59765625	0.0	40	3593416	128	70	1	1	0	1500855.5998921	1500855.6004106	80	1500858.9893881	1500858.9899037	40	1500862.4116537	1500862.4121723	100	del	1500867.5068332	1500868.0203598	1500868.0209082	120.0	2.0	1500868.7053689
1758.02001953125	0.0	100	3600425	128	70	1	1	0	1500855.5998921	1500855.6004106	80	1500858.9893881	1500858.9899037	40	1500862.4116537	1500862.4121723	100	del	1500867.5068332	1500868.0203598	1500868.0209082	120.0	2.0	1500868.7053689
1763.62841796875	0.0	120	3611911	128	70	1	1	0	1500855.5998921	1500855.6004106	80	1500858.9893881	1500858.9899037	40	1500862.4116537	1500862.4121723	100	del	1500867.5068332	1500868.0203598	1500868.0209082	120.0	2.0	1500868.7053689
1766.37548828125	0.0	80	3617537	129	87	10	0	1	1500870.7672946	1500870.7676479	80	1500873.8641138	1500873.8645363	40	1500877.0525213	1500877.0527802	100	del	1500877.4903222	nan	nan	nan	nan	nan
1769.47216796875	0.0	40	3623879	129	87	10	0	1	1500870.7672946	1500870.7676479	80	1500873.8641138	1500873.8645363	40	1500877.0525213	1500877.0527802	100	del	1500877.4903222	nan	nan	nan	nan	nan
1772.66064453125	0.0	100	3630409	129	87	10	0	1	1500870.7672946	1500870.7676479	80	1500873.8641138	1500873.8645363	40	1500877.0525213	1500877.0527802	100	del	1500877.4903222	nan	nan	nan	nan	nan
1775.6416015625	0.0	80	3636514	130	87	280	0	0	1500880.0337837	1500880.0341714	80	1500883.3019645	1500883.3024556	40	1500886.4834132	1500886.4838766	100	imm	1500887.0014395	nan	nan	nan	nan	nan
1778.90966796875	0.0	40	3643207	130	87	280	0	0	1500880.0337837	1500880.0341714	80	1500883.3019645	1500883.3024556	40	1500886.4834132	1500886.4838766	100	imm	1500887.0014395	nan	nan	nan	nan	nan
1782.09130859375	0.0	100	3649723	130	87	280	0	0	1500880.0337837	1500880.0341714	80	1500883.3019645	1500883.3024556	40	1500886.4834132	1500886.4838766	100	imm	1500887.0014395	nan	nan	nan	nan	nan
1785.21142578125	0.0	80	3656113	131	67	700	1	1	1500889.6035849	1500889.6039459	80	1500892.7153554	1500892.7158546	40	1500896.1812468	1500896.1817669	100	imm	1500896.8171786	1500897.3273161	1500897.3277286	120.0	1.0	1500897.9290999
1788.32275390625	0.0	40	3662485	131	67	700	1	1	1500889.6035849	1500889.6039459	80	1500892.7153554	1500892.7158546	40	1500896.1812468	1500896.1817669	100	imm	1500896.8171786	1500897.3273161	1500897.3277286	120.0	1.0	1500897.9290999
1791.78857421875	0.0	100	3669583	131	67	700	1	1	1500889.6035849	1500889.6039459	80	1500892.7153554	1500892.7158546	40	1500896.1812468	1500896.1817669	100	imm	1500896.8171786	1500897.3273161	1500897.3277286	120.0	1.0	1500897.9290999
1792.93505859375	0.0	120	3671931	131	67	700	1	1	1500889.6035849	1500889.6039459	80	1500892.7153554	1500892.7158546	40	1500896.1812468	1500896.1817669	100	imm	1500896.8171786	1500897.3273161	1500897.3277286	120.0	1.0	1500897.9290999
1795.89013671875	0.0	80	3677983	132	53	210	1	0	1500900.2825525	1500900.2830378	80	1500903.524184	1500903.5245895	40	1500906.9943686	1500906.9949174	100	imm	1500907.5853721	1500908.0959491	1500908.0963121	120.0	1.0	1500908.7695997
1799.13134765625	0.0	40	3684621	132	53	210	1	0	1500900.2825525	1500900.2830378	80	1500903.524184	1500903.5245895	40	1500906.9943686	1500906.9949174	100	imm	1500907.5853721	1500908.0959491	1500908.0963121	120.0	1.0	1500908.7695997
1802.6015625	0.0	100	3691728	132	53	210	1	0	1500900.2825525	1500900.2830378	80	1500903.524184	1500903.5245895	40	1500906.9943686	1500906.9949174	100	imm	1500907.5853721	1500908.0959491	1500908.0963121	120.0	1.0	1500908.7695997
1803.703125	0.0	120	3693984	132	53	210	1	0	1500900.2825525	1500900.2830378	80	1500903.524184	1500903.5245895	40	1500906.9943686	1500906.9949174	100	imm	1500907.5853721	1500908.0959491	1500908.0963121	120.0	1.0	1500908.7695997
1806.44140625	0.0	80	3699592	133	80	970	0	1	1500910.8341331	1500910.8344563	80	1500914.2144401	1500914.2149268	40	1500917.5959059	1500917.5964071	100	imm	1500919.0014574	nan	nan	nan	nan	nan
1809.8212890625	0.0	40	3706514	133	80	970	0	1	1500910.8341331	1500910.8344563	80	1500914.2144401	1500914.2149268	40	1500917.5959059	1500917.5964071	100	imm	1500919.0014574	nan	nan	nan	nan	nan
1813.203125	0.0	100	3713440	133	80	970	0	1	1500910.8341331	1500910.8344563	80	1500914.2144401	1500914.2149268	40	1500917.5959059	1500917.5964071	100	imm	1500919.0014574	nan	nan	nan	nan	nan
1817.408203125	0.0	80	3722052	134	77	365	1	1	1500921.8013824	1500921.8018571	80	1500924.9011562	1500924.9015492	40	1500928.2132584	1500928.2137222	100	del	1500930.6010672	1500931.1132755	1500931.1137355	120.0	2.0	1500931.7775241
1820.5078125	0.0	40	3728400	134	77	365	1	1	1500921.8013824	1500921.8018571	80	1500924.9011562	1500924.9015492	40	1500928.2132584	1500928.2137222	100	del	1500930.6010672	1500931.1132755	1500931.1137355	120.0	2.0	1500931.7775241
1823.81982421875	0.0	100	3735183	134	77	365	1	1	1500921.8013824	1500921.8018571	80	1500924.9011562	1500924.9015492	40	1500928.2132584	1500928.2137222	100	del	1500930.6010672	1500931.1132755	1500931.1137355	120.0	2.0	1500931.7775241
1826.7197265625	0.0	120	3741122	134	77	365	1	1	1500921.8013824	1500921.8018571	80	1500924.9011562	1500924.9015492	40	1500928.2132584	1500928.2137222	100	del	1500930.6010672	1500931.1132755	1500931.1137355	120.0	2.0	1500931.7775241
1829.5478515625	0.0	80	3746914	135	93	1	1	0	1500933.9410653	1500933.9413993	80	1500937.0154441	1500937.0158988	40	1500940.1344968	1500940.1349821	100	del	1500940.8015623	1500941.3129502	1500941.3133165	120.0	2.0	1500944.3776134
1832.6220703125	0.0	40	3753210	135	93	1	1	0	1500933.9410653	1500933.9413993	80	1500937.0154441	1500937.0158988	40	1500940.1344968	1500940.1349821	100	del	1500940.8015623	1500941.3129502	1500941.3133165	120.0	2.0	1500944.3776134
1835.7412109375	0.0	100	3759598	135	93	1	1	0	1500933.9410653	1500933.9413993	80	1500937.0154441	1500937.0158988	40	1500940.1344968	1500940.1349821	100	del	1500940.8015623	1500941.3129502	1500941.3133165	120.0	2.0	1500944.3776134
1836.91943359375	0.0	120	3762011	135	93	1	1	0	1500933.9410653	1500933.9413993	80	1500937.0154441	1500937.0158988	40	1500940.1344968	1500940.1349821	100	del	1500940.8015623	1500941.3129502	1500941.3133165	120.0	2.0	1500944.3776134
1842.44580078125	0.0	80	3773329	136	53	970	0	1	1500946.8397426	1500946.840193	80	1500949.8823895	1500949.8828254	40	1500953.0151832	1500953.0155506	100	imm	1500954.2813027	nan	nan	nan	nan	nan
