onset	duration	value	sample	trial_idx	val	del	is_cued	rev_opts	del_pres_displaytime	del_pres_triggertime	del_pres_triggercode	val_pres_displaytime	val_pres_triggertime	val_pres_triggercode	choice_displaytime	choice_triggertime	choice_triggercode	choice	choice_time	viv_displaytime	viv_triggertime	viv_triggercode	viv	viv_time
28.609375	0.0	80	58592	1	73	365	1	0	907713.5842335	907713.585968	80	907716.774682	907716.7763877	40	907720.275734	907720.2776079	100	del	907721.8866959	907722.4026846	907722.4040058	120.0	3.0	907726.9660513
31.80029296875	0.0	40	65127	1	73	365	1	0	907713.5842335	907713.585968	80	907716.774682	907716.7763877	40	907720.275734	907720.2776079	100	del	907721.8866959	907722.4026846	907722.4040058	120.0	3.0	907726.9660513
35.30126953125	0.0	100	72297	1	73	365	1	0	907713.5842335	907713.585968	80	907716.774682	907716.7763877	40	907720.275734	907720.2776079	100	del	907721.8866959	907722.4026846	907722.4040058	120.0	3.0	907726.9660513
37.42822265625	0.0	120	76653	1	73	365	1	0	907713.5842335	907713.585968	80	907716.774682	907716.7763877	40	907720.275734	907720.2776079	100	del	907721.8866959	907722.4026846	907722.4040058	120.0	3.0	907726.9660513
44.0693359375	0.0	80	90254	2	97	110	0	1	907729.0440216	907729.0444958	80	907732.4184043	907732.4189093	40	907735.7559014	907735.7563903	100	imm	907737.9816963	nan	nan	nan	nan	nan
47.443359375	0.0	40	97164	2	97	110	0	1	907729.0440216	907729.0444958	80	907732.4184043	907732.4189093	40	907735.7559014	907735.7563903	100	imm	907737.9816963	nan	nan	nan	nan	nan
50.78076171875	0.0	100	103999	2	97	110	0	1	907729.0440216	907729.0444958	80	907732.4184043	907732.4189093	40	907735.7559014	907735.7563903	100	imm	907737.9816963	nan	nan	nan	nan	nan
55.94140625	0.0	80	114568	3	60	110	0	1	907740.9163728	907740.9168066	80	907744.1240408	907744.1245382	40	907747.5129847	907747.513498	100	del	907749.9258004	nan	nan	nan	nan	nan
59.14892578125	0.0	40	121137	3	60	110	0	1	907740.9163728	907740.9168066	80	907744.1240408	907744.1245382	40	907747.5129847	907747.513498	100	del	907749.9258004	nan	nan	nan	nan	nan
62.53759765625	0.0	100	128077	3	60	110	0	1	907740.9163728	907740.9168066	80	907744.1240408	907744.1245382	40	907747.5129847	907747.513498	100	del	907749.9258004	nan	nan	nan	nan	nan
67.884765625	0.0	80	139028	4	77	7	1	1	907752.8600192	907752.8605192	80	907756.0288794	907756.0293624	40	907759.3182631	907759.3189152	100	del	907760.8874728	907761.3974299	907761.3976986	120.0	2.0	907765.7264012
71.05322265625	0.0	40	145517	4	77	7	1	1	907752.8600192	907752.8605192	80	907756.0288794	907756.0293624	40	907759.3182631	907759.3189152	100	del	907760.8874728	907761.3974299	907761.3976986	120.0	2.0	907765.7264012
74.3427734375	0.0	100	152254	4	77	7	1	1	907752.8600192	907752.8605192	80	907756.0288794	907756.0293624	40	907759.3182631	907759.3189152	100	del	907760.8874728	907761.3974299	907761.3976986	120.0	2.0	907765.7264012
76.421875	0.0	120	156512	4	77	7	1	1	907752.8600192	907752.8605192	80	907756.0288794	907756.0293624	40	907759.3182631	907759.3189152	100	del	907760.8874728	907761.3974299	907761.3976986	120.0	2.0	907765.7264012
83.25439453125	0.0	80	170505	5	87	60	1	1	907768.2299487	907768.2303224	80	907771.5120811	907771.5125777	40	907774.6908903	907774.6914001	100	del	907777.0220339	907777.5308707	907777.5311697	120.0	3.0	907786.3102247
86.5361328125	0.0	40	177226	5	87	60	1	1	907768.2299487	907768.2303224	80	907771.5120811	907771.5125777	40	907774.6908903	907774.6914001	100	del	907777.0220339	907777.5308707	907777.5311697	120.0	3.0	907786.3102247
89.71484375	0.0	100	183736	5	87	60	1	1	907768.2299487	907768.2303224	80	907771.5120811	907771.5125777	40	907774.6908903	907774.6914001	100	del	907777.0220339	907777.5308707	907777.5311697	120.0	3.0	907786.3102247
92.5546875	0.0	120	189552	5	87	60	1	1	907768.2299487	907768.2303224	80	907771.5120811	907771.5125777	40	907774.6908903	907774.6914001	100	del	907777.0220339	907777.5308707	907777.5311697	120.0	3.0	907786.3102247
103.65966796875	0.0	80	212295	6	60	280	0	1	907788.6359266	907788.6364017	80	907791.8238281	907791.8243118	40	907795.2158261	907795.2162998	100	del	907800.2861894	nan	nan	nan	nan	nan
106.84765625	0.0	40	218824	6	60	280	0	1	907788.6359266	907788.6364017	80	907791.8238281	907791.8243118	40	907795.2158261	907795.2162998	100	del	907800.2861894	nan	nan	nan	nan	nan
110.2392578125	0.0	100	225770	6	60	280	0	1	907788.6359266	907788.6364017	80	907791.8238281	907791.8243118	40	907795.2158261	907795.2162998	100	del	907800.2861894	nan	nan	nan	nan	nan
118.0341796875	0.0	80	241734	7	80	365	1	1	907803.0105447	907803.0109536	80	907806.2656125	907806.2661046	40	907809.6262461	907809.6267056	100	del	907816.3103258	907816.8197496	907816.8200299	120.0	1.0	907820.4221643
121.2890625	0.0	40	248400	7	80	365	1	1	907803.0105447	907803.0109536	80	907806.2656125	907806.2661046	40	907809.6262461	907809.6267056	100	del	907816.3103258	907816.8197496	907816.8200299	120.0	1.0	907820.4221643
124.6494140625	0.0	100	255282	7	80	365	1	1	907803.0105447	907803.0109536	80	907806.2656125	907806.2661046	40	907809.6262461	907809.6267056	100	del	907816.3103258	907816.8197496	907816.8200299	120.0	1.0	907820.4221643
131.8427734375	0.0	120	270014	7	80	365	1	1	907803.0105447	907803.0109536	80	907806.2656125	907806.2661046	40	907809.6262461	907809.6267056	100	del	907816.3103258	907816.8197496	907816.8200299	120.0	1.0	907820.4221643
137.943359375	0.0	80	282508	8	60	1030	0	1	907822.9205428	907822.9208526	80	907826.091859	907826.09252	40	907829.5243361	907829.5247869	100	imm	907831.838338	nan	nan	nan	nan	nan
141.11474609375	0.0	40	289003	8	60	1030	0	1	907822.9205428	907822.9208526	80	907826.091859	907826.09252	40	907829.5243361	907829.5247869	100	imm	907831.838338	nan	nan	nan	nan	nan
144.546875	0.0	100	296032	8	60	1030	0	1	907822.9205428	907822.9208526	80	907826.091859	907826.09252	40	907829.5243361	907829.5247869	100	imm	907831.838338	nan	nan	nan	nan	nan
149.74951171875	0.0	80	306687	9	50	110	0	1	907834.7268953	907834.7275069	80	907838.2119062	907838.2123148	40	907841.2406946	907841.2411641	100	imm	907843.063242	nan	nan	nan	nan	nan
153.234375	0.0	40	313824	9	50	110	0	1	907834.7268953	907834.7275069	80	907838.2119062	907838.2123148	40	907841.2406946	907841.2411641	100	imm	907843.063242	nan	nan	nan	nan	nan
156.26318359375	0.0	100	320027	9	50	110	0	1	907834.7268953	907834.7275069	80	907838.2119062	907838.2123148	40	907841.2406946	907841.2411641	100	imm	907843.063242	nan	nan	nan	nan	nan
160.77685546875	0.0	80	329271	10	80	1030	0	1	907845.7548455	907845.7551983	80	907849.0938874	907849.094327	40	907852.2441481	907852.2444506	100	imm	907854.2782679	nan	nan	nan	nan	nan
164.1162109375	0.0	40	336110	10	80	1030	0	1	907845.7548455	907845.7551983	80	907849.0938874	907849.094327	40	907852.2441481	907852.2444506	100	imm	907854.2782679	nan	nan	nan	nan	nan
167.26611328125	0.0	100	342561	10	80	1030	0	1	907845.7548455	907845.7551983	80	907849.0938874	907849.094327	40	907852.2441481	907852.2444506	100	imm	907854.2782679	nan	nan	nan	nan	nan
171.9287109375	0.0	80	352110	11	60	7	1	1	907856.9065427	907856.9068882	80	907860.269667	907860.2701919	40	907863.5965518	907863.5970812	100	del	907867.5738595	907868.0831967	907868.0834566	120.0	2.0	907871.1820218
175.29150390625	0.0	40	358997	11	60	7	1	1	907856.9065427	907856.9068882	80	907860.269667	907860.2701919	40	907863.5965518	907863.5970812	100	del	907867.5738595	907868.0831967	907868.0834566	120.0	2.0	907871.1820218
178.61865234375	0.0	100	365811	11	60	7	1	1	907856.9065427	907856.9068882	80	907860.269667	907860.2701919	40	907863.5965518	907863.5970812	100	del	907867.5738595	907868.0831967	907868.0834566	120.0	2.0	907871.1820218
183.10498046875	0.0	120	374999	11	60	7	1	1	907856.9065427	907856.9068882	80	907860.269667	907860.2701919	40	907863.5965518	907863.5970812	100	del	907867.5738595	907868.0831967	907868.0834566	120.0	2.0	907871.1820218
188.51318359375	0.0	80	386075	12	93	110	0	1	907873.4917489	907873.4921332	80	907876.8296715	907876.8301527	40	907879.8665116	907879.867024	100	imm	907881.8536532	nan	nan	nan	nan	nan
191.85107421875	0.0	40	392911	12	93	110	0	1	907873.4917489	907873.4921332	80	907876.8296715	907876.8301527	40	907879.8665116	907879.867024	100	imm	907881.8536532	nan	nan	nan	nan	nan
194.88818359375	0.0	100	399131	12	93	110	0	1	907873.4917489	907873.4921332	80	907876.8296715	907876.8301527	40	907879.8665116	907879.867024	100	imm	907881.8536532	nan	nan	nan	nan	nan
199.5673828125	0.0	80	408714	13	100	280	0	0	907884.5458577	907884.546361	80	907887.7790884	907887.7795527	40	907890.9137757	907890.9142052	100	del	907892.1988677	nan	nan	nan	nan	nan
202.80029296875	0.0	40	415335	13	100	280	0	0	907884.5458577	907884.546361	80	907887.7790884	907887.7795527	40	907890.9137757	907890.9142052	100	del	907892.1988677	nan	nan	nan	nan	nan
205.93505859375	0.0	100	421755	13	100	280	0	0	907884.5458577	907884.546361	80	907887.7790884	907887.7795527	40	907890.9137757	907890.9142052	100	del	907892.1988677	nan	nan	nan	nan	nan
210.09228515625	0.0	80	430269	14	90	60	1	0	907895.0712202	907895.0715979	80	907898.5066543	907898.5071593	40	907901.6613324	907901.6618476	100	del	907903.4152214	907903.925513	907903.9259059	120.0	2.0	907915.5335215
213.52783203125	0.0	40	437305	14	90	60	1	0	907895.0712202	907895.0715979	80	907898.5066543	907898.5071593	40	907901.6613324	907901.6618476	100	del	907903.4152214	907903.925513	907903.9259059	120.0	2.0	907915.5335215
216.68212890625	0.0	100	443765	14	90	60	1	0	907895.0712202	907895.0715979	80	907898.5066543	907898.5071593	40	907901.6613324	907901.6618476	100	del	907903.4152214	907903.925513	907903.9259059	120.0	2.0	907915.5335215
218.9462890625	0.0	120	448402	14	90	60	1	0	907895.0712202	907895.0715979	80	907898.5066543	907898.5071593	40	907901.6613324	907901.6618476	100	del	907903.4152214	907903.925513	907903.9259059	120.0	2.0	907915.5335215
232.93359375	0.0	80	477048	15	100	7	1	1	907917.9128506	907917.9133479	80	907920.9897264	907920.9901449	40	907924.4218099	907924.4223207	100	imm	907926.6461955	907927.1570908	907927.1574714	120.0	2.0	907932.38213
236.01025390625	0.0	40	483349	15	100	7	1	1	907917.9128506	907917.9133479	80	907920.9897264	907920.9901449	40	907924.4218099	907924.4223207	100	imm	907926.6461955	907927.1570908	907927.1574714	120.0	2.0	907932.38213
239.4423828125	0.0	100	490378	15	100	7	1	1	907917.9128506	907917.9133479	80	907920.9897264	907920.9901449	40	907924.4218099	907924.4223207	100	imm	907926.6461955	907927.1570908	907927.1574714	120.0	2.0	907932.38213
242.17724609375	0.0	120	495979	15	100	7	1	1	907917.9128506	907917.9133479	80	907920.9897264	907920.9901449	40	907924.4218099	907924.4223207	100	imm	907926.6461955	907927.1570908	907927.1574714	120.0	2.0	907932.38213
249.4873046875	0.0	80	510950	16	60	730	1	1	907934.4671648	907934.4677017	80	907937.7689237	907937.769349	40	907940.9653778	907940.9658926	100	imm	907943.8618332	907944.3720284	907944.3723835	120.0	3.0	907946.8779333
252.7890625	0.0	40	517712	16	60	730	1	1	907934.4671648	907934.4677017	80	907937.7689237	907937.769349	40	907940.9653778	907940.9658926	100	imm	907943.8618332	907944.3720284	907944.3723835	120.0	3.0	907946.8779333
255.9853515625	0.0	100	524258	16	60	730	1	1	907934.4671648	907934.4677017	80	907937.7689237	907937.769349	40	907940.9653778	907940.9658926	100	imm	907943.8618332	907944.3720284	907944.3723835	120.0	3.0	907946.8779333
259.39208984375	0.0	120	531235	16	60	730	1	1	907934.4671648	907934.4677017	80	907937.7689237	907937.769349	40	907940.9653778	907940.9658926	100	imm	907943.8618332	907944.3720284	907944.3723835	120.0	3.0	907946.8779333
264.3173828125	0.0	80	541322	17	53	730	1	1	907949.2975081	907949.29802	80	907952.5571589	907952.5576711	40	907955.8153429	907955.8158277	100	imm	907960.3893638	907960.9011065	907960.901519	120.0	2.0	907964.2856711
267.57666015625	0.0	40	547997	17	53	730	1	1	907949.2975081	907949.29802	80	907952.5571589	907952.5576711	40	907955.8153429	907955.8158277	100	imm	907960.3893638	907960.9011065	907960.901519	120.0	2.0	907964.2856711
270.8349609375	0.0	100	554670	17	53	730	1	1	907949.2975081	907949.29802	80	907952.5571589	907952.5576711	40	907955.8153429	907955.8158277	100	imm	907960.3893638	907960.9011065	907960.901519	120.0	2.0	907964.2856711
275.92041015625	0.0	120	565085	17	53	730	1	1	907949.2975081	907949.29802	80	907952.5571589	907952.5576711	40	907955.8153429	907955.8158277	100	imm	907960.3893638	907960.9011065	907960.901519	120.0	2.0	907964.2856711
281.75537109375	0.0	80	577035	18	77	1030	0	0	907966.7362983	907966.736619	80	907969.9203177	907969.9207632	40	907973.1578153	907973.1582571	100	imm	907974.1268524	nan	nan	nan	nan	nan
284.939453125	0.0	40	583556	18	77	1030	0	0	907966.7362983	907966.736619	80	907969.9203177	907969.9207632	40	907973.1578153	907973.1582571	100	imm	907974.1268524	nan	nan	nan	nan	nan
288.17724609375	0.0	100	590187	18	77	1030	0	0	907966.7362983	907966.736619	80	907969.9203177	907969.9207632	40	907973.1578153	907973.1582571	100	imm	907974.1268524	nan	nan	nan	nan	nan
292.14306640625	0.0	80	598309	19	63	200	1	1	907977.1241351	907977.1244933	80	907980.1534219	907980.1539189	40	907983.6527719	907983.6532765	100	del	907987.1255166	907987.6356474	907987.6359724	120.0	2.0	907996.9417061
295.17236328125	0.0	40	604513	19	63	200	1	1	907977.1241351	907977.1244933	80	907980.1534219	907980.1539189	40	907983.6527719	907983.6532765	100	del	907987.1255166	907987.6356474	907987.6359724	120.0	2.0	907996.9417061
298.671875	0.0	100	611680	19	63	200	1	1	907977.1241351	907977.1244933	80	907980.1534219	907980.1539189	40	907983.6527719	907983.6532765	100	del	907987.1255166	907987.6356474	907987.6359724	120.0	2.0	907996.9417061
302.654296875	0.0	120	619836	19	63	200	1	1	907977.1241351	907977.1244933	80	907980.1534219	907980.1539189	40	907983.6527719	907983.6532765	100	del	907987.1255166	907987.6356474	907987.6359724	120.0	2.0	907996.9417061
314.06640625	0.0	80	643208	20	50	730	1	0	907999.0477229	907999.0480458	80	908002.3888281	908002.3893036	40	908005.6955997	908005.6961574	100	imm	908006.6215112	908007.1316479	908007.132015	120.0	2.0	908010.0541701
317.4072265625	0.0	40	650050	20	50	730	1	0	907999.0477229	907999.0480458	80	908002.3888281	908002.3893036	40	908005.6955997	908005.6961574	100	imm	908006.6215112	908007.1316479	908007.132015	120.0	2.0	908010.0541701
320.7138671875	0.0	100	656822	20	50	730	1	0	907999.0477229	907999.0480458	80	908002.3888281	908002.3893036	40	908005.6955997	908005.6961574	100	imm	908006.6215112	908007.1316479	908007.132015	120.0	2.0	908010.0541701
322.14990234375	0.0	120	659763	20	50	730	1	0	907999.0477229	907999.0480458	80	908002.3888281	908002.3893036	40	908005.6955997	908005.6961574	100	imm	908006.6215112	908007.1316479	908007.132015	120.0	2.0	908010.0541701
344.552734375	0.0	80	705644	21	63	520	0	1	908029.534892	908029.5356138	80	908032.7238596	908032.7243527	40	908036.0469204	908036.0473876	100	imm	908039.5260444	nan	nan	nan	nan	nan
347.74169921875	0.0	40	712175	21	63	520	0	1	908029.534892	908029.5356138	80	908032.7238596	908032.7243527	40	908036.0469204	908036.0473876	100	imm	908039.5260444	nan	nan	nan	nan	nan
351.064453125	0.0	100	718980	21	63	520	0	1	908029.534892	908029.5356138	80	908032.7238596	908032.7243527	40	908036.0469204	908036.0473876	100	imm	908039.5260444	nan	nan	nan	nan	nan
357.46484375	0.0	80	732088	22	93	730	1	0	908042.4471818	908042.447612	80	908045.4643678	908045.4648647	40	908048.5199573	908048.520576	100	del	908051.4450342	908051.9594781	908051.9600671	120.0	2.0	908055.3987721
360.48193359375	0.0	40	738267	22	93	730	1	0	908042.4471818	908042.447612	80	908045.4643678	908045.4648647	40	908048.5199573	908048.520576	100	del	908051.4450342	908051.9594781	908051.9600671	120.0	2.0	908055.3987721
363.53759765625	0.0	100	744525	22	93	730	1	0	908042.4471818	908042.447612	80	908045.4643678	908045.4648647	40	908048.5199573	908048.520576	100	del	908051.4450342	908051.9594781	908051.9600671	120.0	2.0	908055.3987721
366.97705078125	0.0	120	751569	22	93	730	1	0	908042.4471818	908042.447612	80	908045.4643678	908045.4648647	40	908048.5199573	908048.520576	100	del	908051.4450342	908051.9594781	908051.9600671	120.0	2.0	908055.3987721
372.91796875	0.0	80	763736	23	57	200	1	0	908057.9008784	908057.901401	80	908061.2344042	908061.2348988	40	908064.362892	908064.3634039	100	del	908067.1892673	908067.7025881	908067.7030805	120.0	3.0	908071.0611672
376.25146484375	0.0	40	770563	23	57	200	1	0	908057.9008784	908057.901401	80	908061.2344042	908061.2348988	40	908064.362892	908064.3634039	100	del	908067.1892673	908067.7025881	908067.7030805	120.0	3.0	908071.0611672
379.3798828125	0.0	100	776970	23	57	200	1	0	908057.9008784	908057.901401	80	908061.2344042	908061.2348988	40	908064.362892	908064.3634039	100	del	908067.1892673	908067.7025881	908067.7030805	120.0	3.0	908071.0611672
382.71923828125	0.0	120	783809	23	57	200	1	0	908057.9008784	908057.901401	80	908061.2344042	908061.2348988	40	908064.362892	908064.3634039	100	del	908067.1892673	908067.7025881	908067.7030805	120.0	3.0	908071.0611672
388.2958984375	0.0	80	795230	24	73	30	0	0	908073.279196	908073.2796919	80	908076.3462251	908076.346529	40	908079.4934937	908079.4940299	100	del	908081.5813954	nan	nan	nan	nan	nan
391.36279296875	0.0	40	801511	24	73	30	0	0	908073.279196	908073.2796919	80	908076.3462251	908076.346529	40	908079.4934937	908079.4940299	100	del	908081.5813954	nan	nan	nan	nan	nan
394.51025390625	0.0	100	807957	24	73	30	0	0	908073.279196	908073.2796919	80	908076.3462251	908076.346529	40	908079.4934937	908079.4940299	100	del	908081.5813954	nan	nan	nan	nan	nan
399.24365234375	0.0	80	817651	25	90	7	1	0	908084.2270146	908084.2275005	80	908087.401079	908087.4015628	40	908090.4904235	908090.4909853	100	del	908093.4855223	908093.9956187	908093.9960353	120.0	3.0	908095.8455237
402.41748046875	0.0	40	824151	25	90	7	1	0	908084.2270146	908084.2275005	80	908087.401079	908087.4015628	40	908090.4904235	908090.4909853	100	del	908093.4855223	908093.9956187	908093.9960353	120.0	3.0	908095.8455237
405.5068359375	0.0	100	830478	25	90	7	1	0	908084.2270146	908084.2275005	80	908087.401079	908087.4015628	40	908090.4904235	908090.4909853	100	del	908093.4855223	908093.9956187	908093.9960353	120.0	3.0	908095.8455237
409.01171875	0.0	120	837656	25	90	7	1	0	908084.2270146	908084.2275005	80	908087.401079	908087.4015628	40	908090.4904235	908090.4909853	100	del	908093.4855223	908093.9956187	908093.9960353	120.0	3.0	908095.8455237
413.052734375	0.0	80	845932	26	97	365	1	0	908098.0368002	908098.0372894	80	908101.1047967	908101.1052978	40	908104.5602186	908104.5607484	100	del	908106.0056848	908106.5168264	908106.5171809	120.0	3.0	908108.0612611
416.12060546875	0.0	40	852215	26	97	365	1	0	908098.0368002	908098.0372894	80	908101.1047967	908101.1052978	40	908104.5602186	908104.5607484	100	del	908106.0056848	908106.5168264	908106.5171809	120.0	3.0	908108.0612611
419.576171875	0.0	100	859292	26	97	365	1	0	908098.0368002	908098.0372894	80	908101.1047967	908101.1052978	40	908104.5602186	908104.5607484	100	del	908106.0056848	908106.5168264	908106.5171809	120.0	3.0	908108.0612611
421.53271484375	0.0	120	863299	26	97	365	1	0	908098.0368002	908098.0372894	80	908101.1047967	908101.1052978	40	908104.5602186	908104.5607484	100	del	908106.0056848	908106.5168264	908106.5171809	120.0	3.0	908108.0612611
425.1376953125	0.0	80	870682	27	67	1030	0	0	908110.1221106	908110.122617	80	908113.5949218	908113.5954416	40	908116.8074897	908116.8080091	100	imm	908118.4297414	nan	nan	nan	nan	nan
428.61083984375	0.0	40	877795	27	67	1030	0	0	908110.1221106	908110.122617	80	908113.5949218	908113.5954416	40	908116.8074897	908116.8080091	100	imm	908118.4297414	nan	nan	nan	nan	nan
431.8232421875	0.0	100	884374	27	67	1030	0	0	908110.1221106	908110.122617	80	908113.5949218	908113.5954416	40	908116.8074897	908116.8080091	100	imm	908118.4297414	nan	nan	nan	nan	nan
435.982421875	0.0	80	892892	28	50	60	1	1	908120.9669916	908120.9673474	80	908124.1460985	908124.1465418	40	908127.5280839	908127.5285524	100	imm	908131.5253109	908132.035955	908132.0362792	120.0	3.0	908136.9813537
439.16162109375	0.0	40	899403	28	50	60	1	1	908120.9669916	908120.9673474	80	908124.1460985	908124.1465418	40	908127.5280839	908127.5285524	100	imm	908131.5253109	908132.035955	908132.0362792	120.0	3.0	908136.9813537
442.54345703125	0.0	100	906329	28	50	60	1	1	908120.9669916	908120.9673474	80	908124.1460985	908124.1465418	40	908127.5280839	908127.5285524	100	imm	908131.5253109	908132.035955	908132.0362792	120.0	3.0	908136.9813537
447.05126953125	0.0	120	915561	28	50	60	1	1	908120.9669916	908120.9673474	80	908124.1460985	908124.1465418	40	908127.5280839	908127.5285524	100	imm	908131.5253109	908132.035955	908132.0362792	120.0	3.0	908136.9813537
454.41015625	0.0	80	930632	29	60	200	1	1	908139.3950203	908139.3955633	80	908142.6754183	908142.6758381	40	908146.0318911	908146.0324002	100	del	908149.8134767	908150.3239148	908150.324311	120.0	3.0	908154.2929215
457.6904296875	0.0	40	937350	29	60	200	1	1	908139.3950203	908139.3955633	80	908142.6754183	908142.6758381	40	908146.0318911	908146.0324002	100	del	908149.8134767	908150.3239148	908150.324311	120.0	3.0	908154.2929215
461.046875	0.0	100	944224	29	60	200	1	1	908139.3950203	908139.3955633	80	908142.6754183	908142.6758381	40	908146.0318911	908146.0324002	100	del	908149.8134767	908150.3239148	908150.324311	120.0	3.0	908154.2929215
465.3388671875	0.0	120	953014	29	60	200	1	1	908139.3950203	908139.3955633	80	908142.6754183	908142.6758381	40	908146.0318911	908146.0324002	100	del	908149.8134767	908150.3239148	908150.324311	120.0	3.0	908154.2929215
471.7646484375	0.0	80	966174	30	50	1030	0	0	908156.7494953	908156.7497245	80	908159.7840278	908159.7844966	40	908162.9430463	908162.94332	100	imm	908166.4612826	nan	nan	nan	nan	nan
474.798828125	0.0	40	972388	30	50	1030	0	0	908156.7494953	908156.7497245	80	908159.7840278	908159.7844966	40	908162.9430463	908162.94332	100	imm	908166.4612826	nan	nan	nan	nan	nan
477.95751953125	0.0	100	978857	30	50	1030	0	0	908156.7494953	908156.7497245	80	908159.7840278	908159.7844966	40	908162.9430463	908162.94332	100	imm	908166.4612826	nan	nan	nan	nan	nan
484.01171875	0.0	80	991256	31	80	7	1	1	908168.9970616	908168.9972726	80	908172.0995742	908172.0998571	40	908175.4662212	908175.4664485	100	del	908177.9265303	908178.4414577	908178.4420027	120.0	3.0	908180.2375401
487.11376953125	0.0	40	997609	31	80	7	1	1	908168.9970616	908168.9972726	80	908172.0995742	908172.0998571	40	908175.4662212	908175.4664485	100	del	908177.9265303	908178.4414577	908178.4420027	120.0	3.0	908180.2375401
490.48095703125	0.0	100	1004505	31	80	7	1	1	908168.9970616	908168.9972726	80	908172.0995742	908172.0998571	40	908175.4662212	908175.4664485	100	del	908177.9265303	908178.4414577	908178.4420027	120.0	3.0	908180.2375401
493.45556640625	0.0	120	1010597	31	80	7	1	1	908168.9970616	908168.9972726	80	908172.0995742	908172.0998571	40	908175.4662212	908175.4664485	100	del	908177.9265303	908178.4414577	908178.4420027	120.0	3.0	908180.2375401
497.6279296875	0.0	80	1019142	32	57	730	1	1	908182.6139024	908182.6143855	80	908186.0606567	908186.0610862	40	908189.3648955	908189.3654007	100	del	908191.4376348	908191.9465014	908191.9468371	120.0	2.0	908194.4456287
501.07470703125	0.0	40	1026201	32	57	730	1	1	908182.6139024	908182.6143855	80	908186.0606567	908186.0610862	40	908189.3648955	908189.3654007	100	del	908191.4376348	908191.9465014	908191.9468371	120.0	2.0	908194.4456287
504.37890625	0.0	100	1032968	32	57	730	1	1	908182.6139024	908182.6143855	80	908186.0606567	908186.0610862	40	908189.3648955	908189.3654007	100	del	908191.4376348	908191.9465014	908191.9468371	120.0	2.0	908194.4456287
506.9599609375	0.0	120	1038254	32	57	730	1	1	908182.6139024	908182.6143855	80	908186.0606567	908186.0610862	40	908189.3648955	908189.3654007	100	del	908191.4376348	908191.9465014	908191.9468371	120.0	2.0	908194.4456287
511.50439453125	0.0	80	1047561	33	70	1030	0	0	908196.4905628	908196.4907567	80	908199.9561191	908199.9563164	40	908203.3623616	908203.3626368	100	imm	908206.6291701	nan	nan	nan	nan	nan
514.97021484375	0.0	40	1054659	33	70	1030	0	0	908196.4905628	908196.4907567	80	908199.9561191	908199.9563164	40	908203.3623616	908203.3626368	100	imm	908206.6291701	nan	nan	nan	nan	nan
518.3759765625	0.0	100	1061634	33	70	1030	0	0	908196.4905628	908196.4907567	80	908199.9561191	908199.9563164	40	908203.3623616	908203.3626368	100	imm	908206.6291701	nan	nan	nan	nan	nan
524.2978515625	0.0	80	1073762	34	63	365	1	0	908209.284022	908209.2842151	80	908212.5604008	908212.5605954	40	908216.0588773	908216.0591534	100	del	908217.2450794	908217.7521361	908217.7522933	120.0	3.0	908219.1889122
527.57421875	0.0	40	1080472	34	63	365	1	0	908209.284022	908209.2842151	80	908212.5604008	908212.5605954	40	908216.0588773	908216.0591534	100	del	908217.2450794	908217.7521361	908217.7522933	120.0	3.0	908219.1889122
531.07177734375	0.0	100	1087635	34	63	365	1	0	908209.284022	908209.2842151	80	908212.5604008	908212.5605954	40	908216.0588773	908216.0591534	100	del	908217.2450794	908217.7521361	908217.7522933	120.0	3.0	908219.1889122
532.765625	0.0	120	1091104	34	63	365	1	0	908209.284022	908209.2842151	80	908212.5604008	908212.5605954	40	908216.0588773	908216.0591534	100	del	908217.2450794	908217.7521361	908217.7522933	120.0	3.0	908219.1889122
536.5693359375	0.0	80	1098894	35	57	280	0	1	908221.5557275	908221.5559022	80	908224.9796883	908224.9799985	40	908228.2025684	908228.2028172	100	del	908233.3332124	nan	nan	nan	nan	nan
539.99267578125	0.0	40	1105905	35	57	280	0	1	908221.5557275	908221.5559022	80	908224.9796883	908224.9799985	40	908228.2025684	908228.2028172	100	del	908233.3332124	nan	nan	nan	nan	nan
543.21533203125	0.0	100	1112505	35	57	280	0	1	908221.5557275	908221.5559022	80	908224.9796883	908224.9799985	40	908228.2025684	908228.2028172	100	del	908233.3332124	nan	nan	nan	nan	nan
551.09326171875	0.0	80	1128639	36	97	7	1	0	908236.0805845	908236.0808657	80	908239.3654924	908239.3657032	40	908242.5061728	908242.5063659	100	del	908243.5015024	908244.0086323	908244.008875	120.0	4.0	908245.7492046
554.37841796875	0.0	40	1135367	36	97	7	1	0	908236.0805845	908236.0808657	80	908239.3654924	908239.3657032	40	908242.5061728	908242.5063659	100	del	908243.5015024	908244.0086323	908244.008875	120.0	4.0	908245.7492046
557.51904296875	0.0	100	1141799	36	97	7	1	0	908236.0805845	908236.0808657	80	908239.3654924	908239.3657032	40	908242.5061728	908242.5063659	100	del	908243.5015024	908244.0086323	908244.008875	120.0	4.0	908245.7492046
559.021484375	0.0	120	1144876	36	97	7	1	0	908236.0805845	908236.0808657	80	908239.3654924	908239.3657032	40	908242.5061728	908242.5063659	100	del	908243.5015024	908244.0086323	908244.008875	120.0	4.0	908245.7492046
563.14599609375	0.0	80	1153323	37	67	30	0	0	908248.1331563	908248.1333791	80	908251.3913308	908251.3917777	40	908254.7279105	908254.7283984	100	del	908256.1895723	nan	nan	nan	nan	nan
566.40380859375	0.0	40	1159995	37	67	30	0	0	908248.1331563	908248.1333791	80	908251.3913308	908251.3917777	40	908254.7279105	908254.7283984	100	del	908256.1895723	nan	nan	nan	nan	nan
569.740234375	0.0	100	1166828	37	67	30	0	0	908248.1331563	908248.1333791	80	908251.3913308	908251.3917777	40	908254.7279105	908254.7283984	100	del	908256.1895723	nan	nan	nan	nan	nan
573.87353515625	0.0	80	1175293	38	87	365	1	1	908258.861172	908258.8617291	80	908261.9382401	908261.9387354	40	908265.1892563	908265.1897729	100	del	908268.0048451	908268.5192273	908268.5197527	120.0	4.0	908270.1090095
576.9501953125	0.0	40	1181594	38	87	365	1	1	908258.861172	908258.8617291	80	908261.9382401	908261.9387354	40	908265.1892563	908265.1897729	100	del	908268.0048451	908268.5192273	908268.5197527	120.0	4.0	908270.1090095
580.201171875	0.0	100	1188252	38	87	365	1	1	908258.861172	908258.8617291	80	908261.9382401	908261.9387354	40	908265.1892563	908265.1897729	100	del	908268.0048451	908268.5192273	908268.5197527	120.0	4.0	908270.1090095
583.53125	0.0	120	1195072	38	87	365	1	1	908258.861172	908258.8617291	80	908261.9382401	908261.9387354	40	908265.1892563	908265.1897729	100	del	908268.0048451	908268.5192273	908268.5197527	120.0	4.0	908270.1090095
587.31494140625	0.0	80	1202821	39	80	110	0	1	908272.3030031	908272.3033277	80	908275.7041377	908275.7046401	40	908279.1086598	908279.1091483	100	del	908282.676554	nan	nan	nan	nan	nan
590.7158203125	0.0	40	1209786	39	80	110	0	1	908272.3030031	908272.3033277	80	908275.7041377	908275.7046401	40	908279.1086598	908279.1091483	100	del	908282.676554	nan	nan	nan	nan	nan
594.1201171875	0.0	100	1216758	39	80	110	0	1	908272.3030031	908272.3033277	80	908275.7041377	908275.7046401	40	908279.1086598	908279.1091483	100	del	908282.676554	nan	nan	nan	nan	nan
600.53662109375	0.0	80	1229899	40	93	520	0	1	908285.5252779	908285.5256862	80	908288.5993306	908288.5998105	40	908291.6242538	908291.6247872	100	del	908299.5647661	nan	nan	nan	nan	nan
603.61083984375	0.0	40	1236195	40	93	520	0	1	908285.5252779	908285.5256862	80	908288.5993306	908288.5998105	40	908291.6242538	908291.6247872	100	del	908299.5647661	nan	nan	nan	nan	nan
606.6357421875	0.0	100	1242390	40	93	520	0	1	908285.5252779	908285.5256862	80	908288.5993306	908288.5998105	40	908291.6242538	908291.6247872	100	del	908299.5647661	nan	nan	nan	nan	nan
634.1728515625	0.0	80	1298786	41	83	200	1	0	908319.1624774	908319.1629023	80	908322.3206295	908322.3211531	40	908325.8036022	908325.8040904	100	del	908333.1254539	908333.6356299	908333.6360421	120.0	3.0	908334.9008126
637.3310546875	0.0	40	1305254	41	83	200	1	0	908319.1624774	908319.1629023	80	908322.3206295	908322.3211531	40	908325.8036022	908325.8040904	100	del	908333.1254539	908333.6356299	908333.6360421	120.0	3.0	908334.9008126
640.81396484375	0.0	100	1312387	41	83	200	1	0	908319.1624774	908319.1629023	80	908322.3206295	908322.3211531	40	908325.8036022	908325.8040904	100	del	908333.1254539	908333.6356299	908333.6360421	120.0	3.0	908334.9008126
648.64599609375	0.0	120	1328427	41	83	200	1	0	908319.1624774	908319.1629023	80	908322.3206295	908322.3211531	40	908325.8036022	908325.8040904	100	del	908333.1254539	908333.6356299	908333.6360421	120.0	3.0	908334.9008126
652.416015625	0.0	80	1336148	42	77	110	0	1	908337.4056074	908337.4060872	80	908340.5557491	908340.5562539	40	908343.969975	908343.9704918	100	imm	908345.9567485	nan	nan	nan	nan	nan
655.56591796875	0.0	40	1342599	42	77	110	0	1	908337.4056074	908337.4060872	80	908340.5557491	908340.5562539	40	908343.969975	908343.9704918	100	imm	908345.9567485	nan	nan	nan	nan	nan
658.97998046875	0.0	100	1349591	42	77	110	0	1	908337.4056074	908337.4060872	80	908340.5557491	908340.5562539	40	908343.969975	908343.9704918	100	imm	908345.9567485	nan	nan	nan	nan	nan
663.9296875	0.0	80	1359728	43	93	7	1	1	908348.9198475	908348.9202314	80	908352.2259828	908352.2264397	40	908355.6813785	908355.6823188	100	del	908358.1328725	908358.6426953	908358.6430087	120.0	3.0	908361.0378657
667.23583984375	0.0	40	1366499	43	93	7	1	1	908348.9198475	908348.9202314	80	908352.2259828	908352.2264397	40	908355.6813785	908355.6823188	100	del	908358.1328725	908358.6426953	908358.6430087	120.0	3.0	908361.0378657
670.69091796875	0.0	100	1373575	43	93	7	1	1	908348.9198475	908348.9202314	80	908352.2259828	908352.2264397	40	908355.6813785	908355.6823188	100	del	908358.1328725	908358.6426953	908358.6430087	120.0	3.0	908361.0378657
673.65234375	0.0	120	1379640	43	93	7	1	1	908348.9198475	908348.9202314	80	908352.2259828	908352.2264397	40	908355.6813785	908355.6823188	100	del	908358.1328725	908358.6426953	908358.6430087	120.0	3.0	908361.0378657
678.53271484375	0.0	80	1389635	44	87	520	0	0	908363.5231468	908363.5235588	80	908366.8051931	908366.8056902	40	908370.182765	908370.1832837	100	del	908372.8209231	nan	nan	nan	nan	nan
681.814453125	0.0	40	1396356	44	87	520	0	0	908363.5231468	908363.5235588	80	908366.8051931	908366.8056902	40	908370.182765	908370.1832837	100	del	908372.8209231	nan	nan	nan	nan	nan
685.1923828125	0.0	100	1403274	44	87	520	0	0	908363.5231468	908363.5235588	80	908366.8051931	908366.8056902	40	908370.182765	908370.1832837	100	del	908372.8209231	nan	nan	nan	nan	nan
690.6357421875	0.0	80	1414422	45	77	60	1	1	908375.6262483	908375.6267519	80	908378.6467618	908378.6471753	40	908381.8836826	908381.8841883	100	del	908382.8692183	908383.3790099	908383.3793102	120.0	3.0	908392.3567246
693.65576171875	0.0	40	1420607	45	77	60	1	1	908375.6262483	908375.6267519	80	908378.6467618	908378.6471753	40	908381.8836826	908381.8841883	100	del	908382.8692183	908383.3790099	908383.3793102	120.0	3.0	908392.3567246
696.892578125	0.0	100	1427236	45	77	60	1	1	908375.6262483	908375.6267519	80	908378.6467618	908378.6471753	40	908381.8836826	908381.8841883	100	del	908382.8692183	908383.3790099	908383.3793102	120.0	3.0	908392.3567246
698.38818359375	0.0	120	1430299	45	77	60	1	1	908375.6262483	908375.6267519	80	908378.6467618	908378.6471753	40	908381.8836826	908381.8841883	100	del	908382.8692183	908383.3790099	908383.3793102	120.0	3.0	908392.3567246
709.701171875	0.0	80	1453468	46	83	280	0	1	908394.6922015	908394.6926067	80	908397.9575803	908397.9577692	40	908401.1577571	908401.158328	100	imm	908407.99787	nan	nan	nan	nan	nan
712.966796875	0.0	40	1460156	46	83	280	0	1	908394.6922015	908394.6926067	80	908397.9575803	908397.9577692	40	908401.1577571	908401.158328	100	imm	908407.99787	nan	nan	nan	nan	nan
716.16650390625	0.0	100	1466709	46	83	280	0	1	908394.6922015	908394.6926067	80	908397.9575803	908397.9577692	40	908401.1577571	908401.158328	100	imm	908407.99787	nan	nan	nan	nan	nan
725.9892578125	0.0	80	1486826	47	67	365	1	1	908410.9808501	908410.9811225	80	908414.4029843	908414.4034281	40	908417.8439638	908417.8444689	100	del	908420.7729409	908421.2827194	908421.2830835	120.0	3.0	908422.5571083
729.4111328125	0.0	40	1493834	47	67	365	1	1	908410.9808501	908410.9811225	80	908414.4029843	908414.4034281	40	908417.8439638	908417.8444689	100	del	908420.7729409	908421.2827194	908421.2830835	120.0	3.0	908422.5571083
732.85205078125	0.0	100	1500881	47	67	365	1	1	908410.9808501	908410.9811225	80	908414.4029843	908414.4034281	40	908417.8439638	908417.8444689	100	del	908420.7729409	908421.2827194	908421.2830835	120.0	3.0	908422.5571083
736.291015625	0.0	120	1507924	47	67	365	1	1	908410.9808501	908410.9811225	80	908414.4029843	908414.4034281	40	908417.8439638	908417.8444689	100	del	908420.7729409	908421.2827194	908421.2830835	120.0	3.0	908422.5571083
739.76611328125	0.0	80	1515041	48	67	730	1	1	908424.7581398	908424.7587368	80	908428.0623053	908428.0627686	40	908431.5120441	908431.5125542	100	del	908437.6284938	908438.1380992	908438.1384741	120.0	3.0	908439.6926755
743.0703125	0.0	40	1521808	48	67	730	1	1	908424.7581398	908424.7587368	80	908428.0623053	908428.0627686	40	908431.5120441	908431.5125542	100	del	908437.6284938	908438.1380992	908438.1384741	120.0	3.0	908439.6926755
746.52001953125	0.0	100	1528873	48	67	730	1	1	908424.7581398	908424.7587368	80	908428.0623053	908428.0627686	40	908431.5120441	908431.5125542	100	del	908437.6284938	908438.1380992	908438.1384741	120.0	3.0	908439.6926755
753.14599609375	0.0	120	1542443	48	67	730	1	1	908424.7581398	908424.7587368	80	908428.0623053	908428.0627686	40	908431.5120441	908431.5125542	100	del	908437.6284938	908438.1380992	908438.1384741	120.0	3.0	908439.6926755
757.1826171875	0.0	80	1550710	49	80	200	1	0	908442.1749745	908442.1754357	80	908445.5167719	908445.5172675	40	908448.6313113	908448.6317217	100	del	908449.5889333	908450.0982568	908450.0985752	120.0	3.0	908453.7502275
760.5244140625	0.0	40	1557554	49	80	200	1	0	908442.1749745	908442.1754357	80	908445.5167719	908445.5172675	40	908448.6313113	908448.6317217	100	del	908449.5889333	908450.0982568	908450.0985752	120.0	3.0	908453.7502275
763.638671875	0.0	100	1563932	49	80	200	1	0	908442.1749745	908442.1754357	80	908445.5167719	908445.5172675	40	908448.6313113	908448.6317217	100	del	908449.5889333	908450.0982568	908450.0985752	120.0	3.0	908453.7502275
765.10546875	0.0	120	1566936	49	80	200	1	0	908442.1749745	908442.1754357	80	908445.5167719	908445.5172675	40	908448.6313113	908448.6317217	100	del	908449.5889333	908450.0982568	908450.0985752	120.0	3.0	908453.7502275
771.099609375	0.0	80	1579212	50	70	730	1	0	908456.0924594	908456.0928976	80	908459.1346923	908459.1351423	40	908462.3482088	908462.3487159	100	del	908463.7885145	908464.2990374	908464.2995311	120.0	3.0	908466.6290007
774.1416015625	0.0	40	1585442	50	70	730	1	0	908456.0924594	908456.0928976	80	908459.1346923	908459.1351423	40	908462.3482088	908462.3487159	100	del	908463.7885145	908464.2990374	908464.2995311	120.0	3.0	908466.6290007
777.35546875	0.0	100	1592024	50	70	730	1	0	908456.0924594	908456.0928976	80	908459.1346923	908459.1351423	40	908462.3482088	908462.3487159	100	del	908463.7885145	908464.2990374	908464.2995311	120.0	3.0	908466.6290007
779.30615234375	0.0	120	1596019	50	70	730	1	0	908456.0924594	908456.0928976	80	908459.1346923	908459.1351423	40	908462.3482088	908462.3487159	100	del	908463.7885145	908464.2990374	908464.2995311	120.0	3.0	908466.6290007
783.9833984375	0.0	80	1605598	51	57	365	1	1	908468.9766359	908468.9770466	80	908472.452202	908472.4527176	40	908475.8712129	908475.8717016	100	imm	908479.1801301	908479.6923405	908479.692771	120.0	3.0	908482.4844076
787.458984375	0.0	40	1612716	51	57	365	1	1	908468.9766359	908468.9770466	80	908472.452202	908472.4527176	40	908475.8712129	908475.8717016	100	imm	908479.1801301	908479.6923405	908479.692771	120.0	3.0	908482.4844076
790.8779296875	0.0	100	1619718	51	57	365	1	1	908468.9766359	908468.9770466	80	908472.452202	908472.4527176	40	908475.8712129	908475.8717016	100	imm	908479.1801301	908479.6923405	908479.692771	120.0	3.0	908482.4844076
794.69921875	0.0	120	1627544	51	57	365	1	1	908468.9766359	908468.9770466	80	908472.452202	908472.4527176	40	908475.8712129	908475.8717016	100	imm	908479.1801301	908479.6923405	908479.692771	120.0	3.0	908482.4844076
799.74560546875	0.0	80	1637879	52	53	110	0	0	908484.7393235	908484.7396163	80	908488.1249846	908488.1254982	40	908491.3469389	908491.3474297	100	imm	908493.5969941	nan	nan	nan	nan	nan
803.13134765625	0.0	40	1644813	52	53	110	0	0	908484.7393235	908484.7396163	80	908488.1249846	908488.1254982	40	908491.3469389	908491.3474297	100	imm	908493.5969941	nan	nan	nan	nan	nan
806.353515625	0.0	100	1651412	52	53	110	0	0	908484.7393235	908484.7396163	80	908488.1249846	908488.1254982	40	908491.3469389	908491.3474297	100	imm	908493.5969941	nan	nan	nan	nan	nan
811.607421875	0.0	80	1662172	53	67	280	0	0	908496.6009814	908496.6014647	80	908500.102622	908500.1031499	40	908503.5476817	908503.5483688	100	del	908507.3809	nan	nan	nan	nan	nan
815.10888671875	0.0	40	1669343	53	67	280	0	0	908496.6009814	908496.6014647	80	908500.102622	908500.1031499	40	908503.5476817	908503.5483688	100	del	908507.3809	nan	nan	nan	nan	nan
818.5537109375	0.0	100	1676398	53	67	280	0	0	908496.6009814	908496.6014647	80	908500.102622	908500.1031499	40	908503.5476817	908503.5483688	100	del	908507.3809	nan	nan	nan	nan	nan
825.09619140625	0.0	80	1689797	54	53	365	1	1	908510.0904684	908510.0909262	80	908513.324086	908513.3244338	40	908516.454772	908516.4549629	100	imm	908520.0775744	908520.5893517	908520.5898102	120.0	2.0	908527.57234
828.330078125	0.0	40	1696420	54	53	365	1	1	908510.0904684	908510.0909262	80	908513.324086	908513.3244338	40	908516.454772	908516.4549629	100	imm	908520.0775744	908520.5893517	908520.5898102	120.0	2.0	908527.57234
831.4609375	0.0	100	1702832	54	53	365	1	1	908510.0904684	908510.0909262	80	908513.324086	908513.3244338	40	908516.454772	908516.4549629	100	imm	908520.0775744	908520.5893517	908520.5898102	120.0	2.0	908527.57234
835.59521484375	0.0	120	1711299	54	53	365	1	1	908510.0904684	908510.0909262	80	908513.324086	908513.3244338	40	908516.454772	908516.4549629	100	imm	908520.0775744	908520.5893517	908520.5898102	120.0	2.0	908527.57234
844.986328125	0.0	80	1730532	55	63	30	0	0	908529.9808803	908529.9813819	80	908533.4305357	908533.4310949	40	908536.901187	908536.9016529	100	del	908539.9084721	nan	nan	nan	nan	nan
848.43603515625	0.0	40	1737597	55	63	30	0	0	908529.9808803	908529.9813819	80	908533.4305357	908533.4310949	40	908536.901187	908536.9016529	100	del	908539.9084721	nan	nan	nan	nan	nan
851.90625	0.0	100	1744704	55	63	30	0	0	908529.9808803	908529.9813819	80	908533.4305357	908533.4310949	40	908536.901187	908536.9016529	100	del	908539.9084721	nan	nan	nan	nan	nan
857.70556640625	0.0	80	1756581	56	83	7	1	1	908542.700691	908542.7010391	80	908546.0074928	908546.0080346	40	908549.0956889	908549.0961958	100	del	908551.4123939	908551.9214903	908551.9217411	120.0	3.0	908553.5410119
861.0126953125	0.0	40	1763354	56	83	7	1	1	908542.700691	908542.7010391	80	908546.0074928	908546.0080346	40	908549.0956889	908549.0961958	100	del	908551.4123939	908551.9214903	908551.9217411	120.0	3.0	908553.5410119
864.1005859375	0.0	100	1769678	56	83	7	1	1	908542.700691	908542.7010391	80	908546.0074928	908546.0080346	40	908549.0956889	908549.0961958	100	del	908551.4123939	908551.9214903	908551.9217411	120.0	3.0	908553.5410119
866.92626953125	0.0	120	1775465	56	83	7	1	1	908542.700691	908542.7010391	80	908546.0074928	908546.0080346	40	908549.0956889	908549.0961958	100	del	908551.4123939	908551.9214903	908551.9217411	120.0	3.0	908553.5410119
871.009765625	0.0	80	1783828	57	97	30	0	1	908556.0047613	908556.0051372	80	908559.2375296	908559.2380603	40	908562.3535957	908562.3540542	100	del	908565.108468	nan	nan	nan	nan	nan
874.2421875	0.0	40	1790448	57	97	30	0	1	908556.0047613	908556.0051372	80	908559.2375296	908559.2380603	40	908562.3535957	908562.3540542	100	del	908565.108468	nan	nan	nan	nan	nan
877.3583984375	0.0	100	1796830	57	97	30	0	1	908556.0047613	908556.0051372	80	908559.2375296	908559.2380603	40	908562.3535957	908562.3540542	100	del	908565.108468	nan	nan	nan	nan	nan
883.0791015625	0.0	80	1808546	58	80	520	0	1	908568.0748546	908568.0753055	80	908571.4636432	908571.4641298	40	908574.9177817	908574.9182664	100	imm	908578.3248693	nan	nan	nan	nan	nan
886.46826171875	0.0	40	1815487	58	80	520	0	1	908568.0748546	908568.0753055	80	908571.4636432	908571.4641298	40	908574.9177817	908574.9182664	100	imm	908578.3248693	nan	nan	nan	nan	nan
889.92236328125	0.0	100	1822561	58	80	520	0	1	908568.0748546	908568.0753055	80	908571.4636432	908571.4641298	40	908574.9177817	908574.9182664	100	imm	908578.3248693	nan	nan	nan	nan	nan
895.9873046875	0.0	80	1834982	59	70	60	1	1	908580.9829547	908580.9833036	80	908584.3274171	908584.3279384	40	908587.6733384	908587.6738865	100	del	908589.6685412	908590.1792863	908590.1796086	120.0	3.0	908591.6936183
899.33154296875	0.0	40	1841831	59	70	60	1	1	908580.9829547	908580.9833036	80	908584.3274171	908584.3279384	40	908587.6733384	908587.6738865	100	del	908589.6685412	908590.1792863	908590.1796086	120.0	3.0	908591.6936183
902.67724609375	0.0	100	1848683	59	70	60	1	1	908580.9829547	908580.9833036	80	908584.3274171	908584.3279384	40	908587.6733384	908587.6738865	100	del	908589.6685412	908590.1792863	908590.1796086	120.0	3.0	908591.6936183
905.18310546875	0.0	120	1853815	59	70	60	1	1	908580.9829547	908580.9833036	80	908584.3274171	908584.3279384	40	908587.6733384	908587.6738865	100	del	908589.6685412	908590.1792863	908590.1796086	120.0	3.0	908591.6936183
908.771484375	0.0	80	1861164	60	57	110	0	1	908593.767746	908593.7681584	80	908596.9802348	908596.9806911	40	908600.1312459	908600.1317646	100	del	908609.2614154	nan	nan	nan	nan	nan
911.98388671875	0.0	40	1867743	60	57	110	0	1	908593.767746	908593.7681584	80	908596.9802348	908596.9806911	40	908600.1312459	908600.1317646	100	del	908609.2614154	nan	nan	nan	nan	nan
915.134765625	0.0	100	1874196	60	57	110	0	1	908593.767746	908593.7681584	80	908596.9802348	908596.9806911	40	908600.1312459	908600.1317646	100	del	908609.2614154	nan	nan	nan	nan	nan
964.94677734375	0.0	80	1976211	61	73	7	1	0	908649.9442861	908649.9446608	80	908653.0958982	908653.096405	40	908656.5572722	908656.5577401	100	del	908657.8038935	908658.3144193	908658.3147746	120.0	4.0	908659.5493058
968.09814453125	0.0	40	1982665	61	73	7	1	0	908649.9442861	908649.9446608	80	908653.0958982	908653.096405	40	908656.5572722	908656.5577401	100	del	908657.8038935	908658.3144193	908658.3147746	120.0	4.0	908659.5493058
971.5595703125	0.0	100	1989754	61	73	7	1	0	908649.9442861	908649.9446608	80	908653.0958982	908653.096405	40	908656.5572722	908656.5577401	100	del	908657.8038935	908658.3144193	908658.3147746	120.0	4.0	908659.5493058
973.31640625	0.0	120	1993352	61	73	7	1	0	908649.9442861	908649.9446608	80	908653.0958982	908653.096405	40	908656.5572722	908656.5577401	100	del	908657.8038935	908658.3144193	908658.3147746	120.0	4.0	908659.5493058
976.97998046875	0.0	80	2000855	62	93	1030	0	1	908661.9778016	908661.9782956	80	908665.1807353	908665.1812181	40	908668.4410765	908668.4414982	100	imm	908673.8294115	nan	nan	nan	nan	nan
980.18310546875	0.0	40	2007415	62	93	1030	0	1	908661.9778016	908661.9782956	80	908665.1807353	908665.1812181	40	908668.4410765	908668.4414982	100	imm	908673.8294115	nan	nan	nan	nan	nan
983.44287109375	0.0	100	2014091	62	93	1030	0	1	908661.9778016	908661.9782956	80	908665.1807353	908665.1812181	40	908668.4410765	908668.4414982	100	imm	908673.8294115	nan	nan	nan	nan	nan
991.6953125	0.0	80	2030992	63	80	730	1	1	908676.6936192	908676.6941022	80	908680.1172338	908680.1175683	40	908683.4371073	908683.4376719	100	del	908694.836278	908695.3463379	908695.3467386	120.0	3.0	908696.7160775
995.119140625	0.0	40	2038004	63	80	730	1	1	908676.6936192	908676.6941022	80	908680.1172338	908680.1175683	40	908683.4371073	908683.4376719	100	del	908694.836278	908695.3463379	908695.3467386	120.0	3.0	908696.7160775
998.43896484375	0.0	100	2044803	63	80	730	1	1	908676.6936192	908676.6941022	80	908680.1172338	908680.1175683	40	908683.4371073	908683.4376719	100	del	908694.836278	908695.3463379	908695.3467386	120.0	3.0	908696.7160775
1010.34765625	0.0	120	2069192	63	80	730	1	1	908676.6936192	908676.6941022	80	908680.1172338	908680.1175683	40	908683.4371073	908683.4376719	100	del	908694.836278	908695.3463379	908695.3467386	120.0	3.0	908696.7160775
1014.01708984375	0.0	80	2076707	64	70	200	1	1	908699.0155962	908699.0160592	80	908702.1863174	908702.1868253	40	908705.4280772	908705.4285738	100	del	908707.1482853	908707.6605421	908707.6609615	120.0	4.0	908709.0605459
1017.1875	0.0	40	2083200	64	70	200	1	1	908699.0155962	908699.0160592	80	908702.1863174	908702.1868253	40	908705.4280772	908705.4285738	100	del	908707.1482853	908707.6605421	908707.6609615	120.0	4.0	908709.0605459
1020.42919921875	0.0	100	2089839	64	70	200	1	1	908699.0155962	908699.0160592	80	908702.1863174	908702.1868253	40	908705.4280772	908705.4285738	100	del	908707.1482853	908707.6605421	908707.6609615	120.0	4.0	908709.0605459
1022.66162109375	0.0	120	2094411	64	70	200	1	1	908699.0155962	908699.0160592	80	908702.1863174	908702.1868253	40	908705.4280772	908705.4285738	100	del	908707.1482853	908707.6605421	908707.6609615	120.0	4.0	908709.0605459
1026.4326171875	0.0	80	2102134	65	90	200	1	0	908711.4310411	908711.4312739	80	908714.8805148	908714.8809579	40	908718.2540714	908718.2546963	100	del	908719.2360544	908719.7469268	908719.74743	120.0	3.0	908720.6845088
1029.88134765625	0.0	40	2109197	65	90	200	1	0	908711.4310411	908711.4312739	80	908714.8805148	908714.8809579	40	908718.2540714	908718.2546963	100	del	908719.2360544	908719.7469268	908719.74743	120.0	3.0	908720.6845088
1033.2548828125	0.0	100	2116106	65	90	200	1	0	908711.4310411	908711.4312739	80	908714.8805148	908714.8809579	40	908718.2540714	908718.2546963	100	del	908719.2360544	908719.7469268	908719.74743	120.0	3.0	908720.6845088
1034.74755859375	0.0	120	2119163	65	90	200	1	0	908711.4310411	908711.4312739	80	908714.8805148	908714.8809579	40	908718.2540714	908718.2546963	100	del	908719.2360544	908719.7469268	908719.74743	120.0	3.0	908720.6845088
1037.70703125	0.0	80	2125224	66	60	520	0	0	908722.7062953	908722.706671	80	908726.0511801	908726.0516664	40	908729.283412	908729.2838479	100	imm	908736.3082154	nan	nan	nan	nan	nan
1041.0517578125	0.0	40	2132074	66	60	520	0	0	908722.7062953	908722.706671	80	908726.0511801	908726.0516664	40	908729.283412	908729.2838479	100	imm	908736.3082154	nan	nan	nan	nan	nan
1044.2841796875	0.0	100	2138694	66	60	520	0	0	908722.7062953	908722.706671	80	908726.0511801	908726.0516664	40	908729.283412	908729.2838479	100	imm	908736.3082154	nan	nan	nan	nan	nan
1054.0458984375	0.0	80	2158686	67	77	30	0	0	908739.0455573	908739.0460545	80	908742.1115903	908742.1120417	40	908745.5319774	908745.5324839	100	del	908747.7319378	nan	nan	nan	nan	nan
1057.11181640625	0.0	40	2164965	67	77	30	0	0	908739.0455573	908739.0460545	80	908742.1115903	908742.1120417	40	908745.5319774	908745.5324839	100	del	908747.7319378	nan	nan	nan	nan	nan
1060.5322265625	0.0	100	2171970	67	77	30	0	0	908739.0455573	908739.0460545	80	908742.1115903	908742.1120417	40	908745.5319774	908745.5324839	100	del	908747.7319378	nan	nan	nan	nan	nan
1065.40771484375	0.0	80	2181955	68	83	1030	0	1	908750.4078832	908750.4081903	80	908753.5386096	908753.5390885	40	908756.7199094	908756.7202941	100	del	908763.5557832	nan	nan	nan	nan	nan
1068.53857421875	0.0	40	2188367	68	83	1030	0	1	908750.4078832	908750.4081903	80	908753.5386096	908753.5390885	40	908756.7199094	908756.7202941	100	del	908763.5557832	nan	nan	nan	nan	nan
1071.7197265625	0.0	100	2194882	68	83	1030	0	1	908750.4078832	908750.4081903	80	908753.5386096	908753.5390885	40	908756.7199094	908756.7202941	100	del	908763.5557832	nan	nan	nan	nan	nan
1081.25927734375	0.0	80	2214419	69	57	30	0	1	908766.2596371	908766.2600229	80	908769.5403457	908769.5407693	40	908772.8344839	908772.8350549	100	del	908776.1323204	nan	nan	nan	nan	nan
1084.5400390625	0.0	40	2221138	69	57	30	0	1	908766.2596371	908766.2600229	80	908769.5403457	908769.5407693	40	908772.8344839	908772.8350549	100	del	908776.1323204	nan	nan	nan	nan	nan
1087.833984375	0.0	100	2227884	69	57	30	0	1	908766.2596371	908766.2600229	80	908769.5403457	908769.5407693	40	908772.8344839	908772.8350549	100	del	908776.1323204	nan	nan	nan	nan	nan
1093.8466796875	0.0	80	2240198	70	80	60	1	1	908778.8474147	908778.8479105	80	908782.0542826	908782.0547823	40	908785.3247449	908785.3252504	100	del	908788.5173889	908789.0277642	908789.0281082	120.0	3.0	908790.4693556
1097.0537109375	0.0	40	2246766	70	80	60	1	1	908778.8474147	908778.8479105	80	908782.0542826	908782.0547823	40	908785.3247449	908785.3252504	100	del	908788.5173889	908789.0277642	908789.0281082	120.0	3.0	908790.4693556
1100.32373046875	0.0	100	2253463	70	80	60	1	1	908778.8474147	908778.8479105	80	908782.0542826	908782.0547823	40	908785.3247449	908785.3252504	100	del	908788.5173889	908789.0277642	908789.0281082	120.0	3.0	908790.4693556
1104.02685546875	0.0	120	2261047	70	80	60	1	1	908778.8474147	908778.8479105	80	908782.0542826	908782.0547823	40	908785.3247449	908785.3252504	100	del	908788.5173889	908789.0277642	908789.0281082	120.0	3.0	908790.4693556
1107.8125	0.0	80	2268800	71	60	365	1	0	908792.8135315	908792.8141997	80	908796.2975233	908796.2980194	40	908799.6718703	908799.6723645	100	del	908803.0036778	908803.5156995	908803.5160842	120.0	3.0	908804.5080704
1111.29638671875	0.0	40	2275935	71	60	365	1	0	908792.8135315	908792.8141997	80	908796.2975233	908796.2980194	40	908799.6718703	908799.6723645	100	del	908803.0036778	908803.5156995	908803.5160842	120.0	3.0	908804.5080704
1114.6708984375	0.0	100	2282846	71	60	365	1	0	908792.8135315	908792.8141997	80	908796.2975233	908796.2980194	40	908799.6718703	908799.6723645	100	del	908803.0036778	908803.5156995	908803.5160842	120.0	3.0	908804.5080704
1118.51416015625	0.0	120	2290717	71	60	365	1	0	908792.8135315	908792.8141997	80	908796.2975233	908796.2980194	40	908799.6718703	908799.6723645	100	del	908803.0036778	908803.5156995	908803.5160842	120.0	3.0	908804.5080704
1121.72021484375	0.0	80	2297283	72	90	520	0	0	908806.7215887	908806.7218957	80	908810.1430539	908810.1433229	40	908813.2225267	908813.2230392	100	del	908814.796151	nan	nan	nan	nan	nan
1125.1416015625	0.0	40	2304290	72	90	520	0	0	908806.7215887	908806.7218957	80	908810.1430539	908810.1433229	40	908813.2225267	908813.2230392	100	del	908814.796151	nan	nan	nan	nan	nan
1128.22119140625	0.0	100	2310597	72	90	520	0	0	908806.7215887	908806.7218957	80	908810.1430539	908810.1433229	40	908813.2225267	908813.2230392	100	del	908814.796151	nan	nan	nan	nan	nan
1132.34326171875	0.0	80	2319039	73	90	730	1	0	908817.3447678	908817.3452782	80	908820.3953398	908820.3958499	40	908823.4902224	908823.4907462	100	del	908824.2919902	908824.8034627	908824.8038703	120.0	3.0	908825.3080308
1135.3935546875	0.0	40	2325286	73	90	730	1	0	908817.3447678	908817.3452782	80	908820.3953398	908820.3958499	40	908823.4902224	908823.4907462	100	del	908824.2919902	908824.8034627	908824.8038703	120.0	3.0	908825.3080308
1138.48828125	0.0	100	2331624	73	90	730	1	0	908817.3447678	908817.3452782	80	908820.3953398	908820.3958499	40	908823.4902224	908823.4907462	100	del	908824.2919902	908824.8034627	908824.8038703	120.0	3.0	908825.3080308
1139.8017578125	0.0	120	2334314	73	90	730	1	0	908817.3447678	908817.3452782	80	908820.3953398	908820.3958499	40	908823.4902224	908823.4907462	100	del	908824.2919902	908824.8034627	908824.8038703	120.0	3.0	908825.3080308
1142.4853515625	0.0	80	2339810	74	53	1030	0	0	908827.4871146	908827.4876106	80	908830.646034	908830.6465008	40	908833.6652649	908833.6657479	100	imm	908834.6841479	nan	nan	nan	nan	nan
1145.64404296875	0.0	40	2346279	74	53	1030	0	0	908827.4871146	908827.4876106	80	908830.646034	908830.6465008	40	908833.6652649	908833.6657479	100	imm	908834.6841479	nan	nan	nan	nan	nan
1148.6630859375	0.0	100	2352462	74	53	1030	0	0	908827.4871146	908827.4876106	80	908830.646034	908830.6465008	40	908833.6652649	908833.6657479	100	imm	908834.6841479	nan	nan	nan	nan	nan
1152.46923828125	0.0	80	2360257	75	83	730	1	0	908837.4712799	908837.4717615	80	908840.5270329	908840.5275368	40	908843.613652	908843.6141214	100	del	908853.6281133	908854.1377096	908854.1380159	120.0	3.0	908855.5649552
1155.52490234375	0.0	40	2366515	75	83	730	1	0	908837.4712799	908837.4717615	80	908840.5270329	908840.5275368	40	908843.613652	908843.6141214	100	del	908853.6281133	908854.1377096	908854.1380159	120.0	3.0	908855.5649552
1158.611328125	0.0	100	2372836	75	83	730	1	0	908837.4712799	908837.4717615	80	908840.5270329	908840.5275368	40	908843.613652	908843.6141214	100	del	908853.6281133	908854.1377096	908854.1380159	120.0	3.0	908855.5649552
1169.13525390625	0.0	120	2394389	75	83	730	1	0	908837.4712799	908837.4717615	80	908840.5270329	908840.5275368	40	908843.613652	908843.6141214	100	del	908853.6281133	908854.1377096	908854.1380159	120.0	3.0	908855.5649552
1172.890625	0.0	80	2402080	76	53	7	1	1	908857.8934935	908857.8938291	80	908861.3305001	908861.3309523	40	908864.8311667	908864.8316421	100	del	908872.4913595	908873.0041879	908873.0046175	120.0	2.0	908874.3716587
1176.32763671875	0.0	40	2409119	76	53	7	1	1	908857.8934935	908857.8938291	80	908861.3305001	908861.3309523	40	908864.8311667	908864.8316421	100	del	908872.4913595	908873.0041879	908873.0046175	120.0	2.0	908874.3716587
1179.82861328125	0.0	100	2416289	76	53	7	1	1	908857.8934935	908857.8938291	80	908861.3305001	908861.3309523	40	908864.8311667	908864.8316421	100	del	908872.4913595	908873.0041879	908873.0046175	120.0	2.0	908874.3716587
1188.0009765625	0.0	120	2433026	76	53	7	1	1	908857.8934935	908857.8938291	80	908861.3305001	908861.3309523	40	908864.8311667	908864.8316421	100	del	908872.4913595	908873.0041879	908873.0046175	120.0	2.0	908874.3716587
1191.66943359375	0.0	80	2440539	77	73	730	1	1	908876.6723973	908876.6729315	80	908880.1784306	908880.1788666	40	908883.4678946	908883.4683503	100	imm	908885.2037104	908885.7147041	908885.7151203	120.0	3.0	908886.5954947
1195.17529296875	0.0	40	2447719	77	73	730	1	1	908876.6723973	908876.6729315	80	908880.1784306	908880.1788666	40	908883.4678946	908883.4683503	100	imm	908885.2037104	908885.7147041	908885.7151203	120.0	3.0	908886.5954947
1198.46484375	0.0	100	2454456	77	73	730	1	1	908876.6723973	908876.6729315	80	908880.1784306	908880.1788666	40	908883.4678946	908883.4683503	100	imm	908885.2037104	908885.7147041	908885.7151203	120.0	3.0	908886.5954947
1200.71142578125	0.0	120	2459057	77	73	730	1	1	908876.6723973	908876.6729315	80	908880.1784306	908880.1788666	40	908883.4678946	908883.4683503	100	imm	908885.2037104	908885.7147041	908885.7151203	120.0	3.0	908886.5954947
1203.8642578125	0.0	80	2465514	78	100	200	1	0	908888.8676527	908888.8682653	80	908892.0403396	908892.0407905	40	908895.2690415	908895.2695775	100	del	908897.5714669	908898.0816006	908898.0818901	120.0	2.0	908900.8042581
1207.037109375	0.0	40	2472012	78	100	200	1	0	908888.8676527	908888.8682653	80	908892.0403396	908892.0407905	40	908895.2690415	908895.2695775	100	del	908897.5714669	908898.0816006	908898.0818901	120.0	2.0	908900.8042581
1210.265625	0.0	100	2478624	78	100	200	1	0	908888.8676527	908888.8682653	80	908892.0403396	908892.0407905	40	908895.2690415	908895.2695775	100	del	908897.5714669	908898.0816006	908898.0818901	120.0	2.0	908900.8042581
1213.078125	0.0	120	2484384	78	100	200	1	0	908888.8676527	908888.8682653	80	908892.0403396	908892.0407905	40	908895.2690415	908895.2695775	100	del	908897.5714669	908898.0816006	908898.0818901	120.0	2.0	908900.8042581
1218.06201171875	0.0	80	2494591	79	87	280	0	0	908903.0657082	908903.0661928	80	908906.10889	908906.109394	40	908909.5659409	908909.5664516	100	del	908913.5562607	nan	nan	nan	nan	nan
1221.10498046875	0.0	40	2500823	79	87	280	0	0	908903.0657082	908903.0661928	80	908906.10889	908906.109394	40	908909.5659409	908909.5664516	100	del	908913.5562607	nan	nan	nan	nan	nan
1224.56201171875	0.0	100	2507903	79	87	280	0	0	908903.0657082	908903.0661928	80	908906.10889	908906.109394	40	908909.5659409	908909.5664516	100	del	908913.5562607	nan	nan	nan	nan	nan
1231.09814453125	0.0	80	2521289	80	73	110	0	1	908916.1024588	908916.1028227	80	908919.3280523	908919.3284795	40	908922.7548166	908922.7553087	100	del	908925.4676121	nan	nan	nan	nan	nan
1234.32373046875	0.0	40	2527895	80	73	110	0	1	908916.1024588	908916.1028227	80	908919.3280523	908919.3284795	40	908922.7548166	908922.7553087	100	del	908925.4676121	nan	nan	nan	nan	nan
1237.75048828125	0.0	100	2534913	80	73	110	0	1	908916.1024588	908916.1028227	80	908919.3280523	908919.3284795	40	908922.7548166	908922.7553087	100	del	908925.4676121	nan	nan	nan	nan	nan
1284.7265625	0.0	80	2631120	81	50	200	1	0	908969.7317364	908969.7322601	80	908973.0463399	908973.0468299	40	908976.46914	908976.4696541	100	del	908978.6995131	908979.2102206	908979.2112584	120.0	3.0	908979.9410304
1288.041015625	0.0	40	2637908	81	50	200	1	0	908969.7317364	908969.7322601	80	908973.0463399	908973.0468299	40	908976.46914	908976.4696541	100	del	908978.6995131	908979.2102206	908979.2112584	120.0	3.0	908979.9410304
1291.46337890625	0.0	100	2644917	81	50	200	1	0	908969.7317364	908969.7322601	80	908973.0463399	908973.0468299	40	908976.46914	908976.4696541	100	del	908978.6995131	908979.2102206	908979.2112584	120.0	3.0	908979.9410304
1294.20458984375	0.0	120	2650531	81	50	200	1	0	908969.7317364	908969.7322601	80	908973.0463399	908973.0468299	40	908976.46914	908976.4696541	100	del	908978.6995131	908979.2102206	908979.2112584	120.0	3.0	908979.9410304
1297.39453125	0.0	80	2657064	82	87	110	0	1	908982.4000691	908982.4005342	80	908985.8732093	908985.8736886	40	908988.9822008	908988.982695	100	del	908991.6593455	nan	nan	nan	nan	nan
1300.86767578125	0.0	40	2664177	82	87	110	0	1	908982.4000691	908982.4005342	80	908985.8732093	908985.8736886	40	908988.9822008	908988.982695	100	del	908991.6593455	nan	nan	nan	nan	nan
1303.9765625	0.0	100	2670544	82	87	110	0	1	908982.4000691	908982.4005342	80	908985.8732093	908985.8736886	40	908988.9822008	908988.982695	100	del	908991.6593455	nan	nan	nan	nan	nan
1309.30029296875	0.0	80	2681447	83	97	200	1	1	908994.3064399	908994.3069646	80	908997.7631249	908997.7635809	40	909001.0729376	909001.0734892	100	del	909008.3632969	909008.8744501	909008.8748214	120.0	3.0	909010.8118512
1312.7568359375	0.0	40	2688526	83	97	200	1	1	908994.3064399	908994.3069646	80	908997.7631249	908997.7635809	40	909001.0729376	909001.0734892	100	del	909008.3632969	909008.8744501	909008.8748214	120.0	3.0	909010.8118512
1316.06689453125	0.0	100	2695305	83	97	200	1	1	908994.3064399	908994.3069646	80	908997.7631249	908997.7635809	40	909001.0729376	909001.0734892	100	del	909008.3632969	909008.8744501	909008.8748214	120.0	3.0	909010.8118512
1323.8681640625	0.0	120	2711282	83	97	200	1	1	908994.3064399	908994.3069646	80	908997.7631249	908997.7635809	40	909001.0729376	909001.0734892	100	del	909008.3632969	909008.8744501	909008.8748214	120.0	3.0	909010.8118512
1328.07275390625	0.0	80	2719893	84	63	730	1	1	909013.079164	909013.0796615	80	909016.3930272	909016.3935211	40	909019.8158667	909019.8163861	100	del	909022.2593241	909022.7726836	909022.773194	120.0	3.0	909023.3954292
1331.38671875	0.0	40	2726680	84	63	730	1	1	909013.079164	909013.0796615	80	909016.3930272	909016.3935211	40	909019.8158667	909019.8163861	100	del	909022.2593241	909022.7726836	909022.773194	120.0	3.0	909023.3954292
1334.80908203125	0.0	100	2733689	84	63	730	1	1	909013.079164	909013.0796615	80	909016.3930272	909016.3935211	40	909019.8158667	909019.8163861	100	del	909022.2593241	909022.7726836	909022.773194	120.0	3.0	909023.3954292
1337.76611328125	0.0	120	2739745	84	63	730	1	1	909013.079164	909013.0796615	80	909016.3930272	909016.3935211	40	909019.8158667	909019.8163861	100	del	909022.2593241	909022.7726836	909022.773194	120.0	3.0	909023.3954292
1340.67138671875	0.0	80	2745695	85	87	30	0	1	909025.6779489	909025.6784198	80	909028.7875538	909028.788114	40	909032.028168	909032.0286588	100	del	909035.5479215	nan	nan	nan	nan	nan
1343.78076171875	0.0	40	2752063	85	87	30	0	1	909025.6779489	909025.6784198	80	909028.7875538	909028.788114	40	909032.028168	909032.0286588	100	del	909035.5479215	nan	nan	nan	nan	nan
1347.021484375	0.0	100	2758700	85	87	30	0	1	909025.6779489	909025.6784198	80	909028.7875538	909028.788114	40	909032.028168	909032.0286588	100	del	909035.5479215	nan	nan	nan	nan	nan
1353.27099609375	0.0	80	2771499	86	73	60	1	1	909038.2780854	909038.2785835	80	909041.7701926	909041.7706342	40	909045.0931338	909045.0936386	100	del	909052.3964733	909052.9065916	909052.9069271	120.0	2.0	909053.8525765
1356.76318359375	0.0	40	2778651	86	73	60	1	1	909038.2780854	909038.2785835	80	909041.7701926	909041.7706342	40	909045.0931338	909045.0936386	100	del	909052.3964733	909052.9065916	909052.9069271	120.0	2.0	909053.8525765
1360.0859375	0.0	100	2785456	86	73	60	1	1	909038.2780854	909038.2785835	80	909041.7701926	909041.7706342	40	909045.0931338	909045.0936386	100	del	909052.3964733	909052.9065916	909052.9069271	120.0	2.0	909053.8525765
1367.89892578125	0.0	120	2801457	86	73	60	1	1	909038.2780854	909038.2785835	80	909041.7701926	909041.7706342	40	909045.0931338	909045.0936386	100	del	909052.3964733	909052.9065916	909052.9069271	120.0	2.0	909053.8525765
1371.2041015625	0.0	80	2808226	87	93	280	0	1	909056.211756	909056.2120956	80	909059.5791752	909059.5795919	40	909062.7666454	909062.7672509	100	del	909063.5009549	nan	nan	nan	nan	nan
1374.57177734375	0.0	40	2815123	87	93	280	0	1	909056.211756	909056.2120956	80	909059.5791752	909059.5795919	40	909062.7666454	909062.7672509	100	del	909063.5009549	nan	nan	nan	nan	nan
1377.7587890625	0.0	100	2821650	87	93	280	0	1	909056.211756	909056.2120956	80	909059.5791752	909059.5795919	40	909062.7666454	909062.7672509	100	del	909063.5009549	nan	nan	nan	nan	nan
1381.26806640625	0.0	80	2828837	88	97	280	0	1	909066.2759853	909066.2764168	80	909069.5617817	909069.5622144	40	909072.6555274	909072.6560906	100	del	909074.7069444	nan	nan	nan	nan	nan
1384.5537109375	0.0	40	2835566	88	97	280	0	1	909066.2759853	909066.2764168	80	909069.5617817	909069.5622144	40	909072.6555274	909072.6560906	100	del	909074.7069444	nan	nan	nan	nan	nan
1387.64794921875	0.0	100	2841903	88	97	280	0	1	909066.2759853	909066.2764168	80	909069.5617817	909069.5622144	40	909072.6555274	909072.6560906	100	del	909074.7069444	nan	nan	nan	nan	nan
1392.49853515625	0.0	80	2851837	89	90	280	0	1	909077.5063787	909077.5068656	80	909080.8616257	909080.8623508	40	909084.0881109	909084.088617	100	del	909086.4594925	nan	nan	nan	nan	nan
1395.853515625	0.0	40	2858708	89	90	280	0	1	909077.5063787	909077.5068656	80	909080.8616257	909080.8623508	40	909084.0881109	909084.088617	100	del	909086.4594925	nan	nan	nan	nan	nan
1399.080078125	0.0	100	2865316	89	90	280	0	1	909077.5063787	909077.5068656	80	909080.8616257	909080.8623508	40	909084.0881109	909084.088617	100	del	909086.4594925	nan	nan	nan	nan	nan
1404.38671875	0.0	80	2876184	90	70	30	0	1	909089.3951802	909089.3956873	80	909092.7683862	909092.768825	40	909095.9573501	909095.9576017	100	del	909100.5950711	nan	nan	nan	nan	nan
1407.759765625	0.0	40	2883092	90	70	30	0	1	909089.3951802	909089.3956873	80	909092.7683862	909092.768825	40	909095.9573501	909095.9576017	100	del	909100.5950711	nan	nan	nan	nan	nan
1410.94873046875	0.0	100	2889623	90	70	30	0	1	909089.3951802	909089.3956873	80	909092.7683862	909092.768825	40	909095.9573501	909095.9576017	100	del	909100.5950711	nan	nan	nan	nan	nan
1418.33056640625	0.0	80	2904741	91	63	280	0	0	909103.3391096	909103.3396144	80	909106.5402227	909106.540726	40	909109.9409539	909109.9414591	100	del	909111.8272767	nan	nan	nan	nan	nan
1421.53125	0.0	40	2911296	91	63	280	0	0	909103.3391096	909103.3396144	80	909106.5402227	909106.540726	40	909109.9409539	909109.9414591	100	del	909111.8272767	nan	nan	nan	nan	nan
1424.93212890625	0.0	100	2918261	91	63	280	0	0	909103.3391096	909103.3396144	80	909106.5402227	909106.540726	40	909109.9409539	909109.9414591	100	del	909111.8272767	nan	nan	nan	nan	nan
1429.7001953125	0.0	80	2928026	92	70	110	0	0	909114.7092133	909114.7099099	80	909117.9319798	909117.9324308	40	909121.2918001	909121.292368	100	del	909122.5312723	nan	nan	nan	nan	nan
1432.9228515625	0.0	40	2934626	92	70	110	0	0	909114.7092133	909114.7099099	80	909117.9319798	909117.9324308	40	909121.2918001	909121.292368	100	del	909122.5312723	nan	nan	nan	nan	nan
1436.28271484375	0.0	100	2941507	92	70	110	0	0	909114.7092133	909114.7099099	80	909117.9319798	909117.9324308	40	909121.2918001	909121.292368	100	del	909122.5312723	nan	nan	nan	nan	nan
1440.5107421875	0.0	80	2950166	93	100	1030	0	0	909125.5198768	909125.520269	80	909128.9194706	909128.9199277	40	909132.2850371	909132.2855805	100	del	909135.4035992	nan	nan	nan	nan	nan
1443.91015625	0.0	40	2957128	93	100	1030	0	0	909125.5198768	909125.520269	80	909128.9194706	909128.9199277	40	909132.2850371	909132.2855805	100	del	909135.4035992	nan	nan	nan	nan	nan
1447.27587890625	0.0	100	2964021	93	100	1030	0	0	909125.5198768	909125.520269	80	909128.9194706	909128.9199277	40	909132.2850371	909132.2855805	100	del	909135.4035992	nan	nan	nan	nan	nan
1452.966796875	0.0	80	2975676	94	93	365	1	0	909137.9764857	909137.9770221	80	909141.1791219	909141.179564	40	909144.4886862	909144.4892384	100	del	909156.6352737	909157.1462213	909157.1466322	120.0	3.0	909158.1550758
1456.16943359375	0.0	40	2982235	94	93	365	1	0	909137.9764857	909137.9770221	80	909141.1791219	909141.179564	40	909144.4886862	909144.4892384	100	del	909156.6352737	909157.1462213	909157.1466322	120.0	3.0	909158.1550758
1459.47900390625	0.0	100	2989013	94	93	365	1	0	909137.9764857	909137.9770221	80	909141.1791219	909141.179564	40	909144.4886862	909144.4892384	100	del	909156.6352737	909157.1462213	909157.1466322	120.0	3.0	909158.1550758
1472.13623046875	0.0	120	3014935	94	93	365	1	0	909137.9764857	909137.9770221	80	909141.1791219	909141.179564	40	909144.4886862	909144.4892384	100	del	909156.6352737	909157.1462213	909157.1466322	120.0	3.0	909158.1550758
1475.38916015625	0.0	80	3021597	95	53	280	0	0	909160.3992756	909160.399846	80	909163.432384	909163.4328247	40	909166.5611988	909166.5617173	100	del	909169.0750623	nan	nan	nan	nan	nan
1478.42236328125	0.0	40	3027809	95	53	280	0	0	909160.3992756	909160.399846	80	909163.432384	909163.4328247	40	909166.5611988	909166.5617173	100	del	909169.0750623	nan	nan	nan	nan	nan
1481.55078125	0.0	100	3034216	95	53	280	0	0	909160.3992756	909160.399846	80	909163.432384	909163.4328247	40	909166.5611988	909166.5617173	100	del	909169.0750623	nan	nan	nan	nan	nan
1486.9990234375	0.0	80	3045374	96	60	60	1	1	909172.0091958	909172.009831	80	909175.024665	909175.0250783	40	909178.4702153	909178.4708048	100	del	909180.7476462	909181.2568212	909181.2571925	120.0	2.0	909182.242788
1490.01416015625	0.0	40	3051549	96	60	60	1	1	909172.0091958	909172.009831	80	909175.024665	909175.0250783	40	909178.4702153	909178.4708048	100	del	909180.7476462	909181.2568212	909181.2571925	120.0	2.0	909182.242788
1493.4599609375	0.0	100	3058606	96	60	60	1	1	909172.0091958	909172.009831	80	909175.024665	909175.0250783	40	909178.4702153	909178.4708048	100	del	909180.7476462	909181.2568212	909181.2571925	120.0	2.0	909182.242788
1496.24609375	0.0	120	3064312	96	60	60	1	1	909172.0091958	909172.009831	80	909175.024665	909175.0250783	40	909178.4702153	909178.4708048	100	del	909180.7476462	909181.2568212	909181.2571925	120.0	2.0	909182.242788
1499.283203125	0.0	80	3070532	97	77	730	1	0	909184.2937583	909184.2940685	80	909187.635344	909187.6358648	40	909190.8983851	909190.8989413	100	del	909191.9869217	909192.496362	909192.4967299	120.0	3.0	909193.0915341
1502.62451171875	0.0	40	3077375	97	77	730	1	0	909184.2937583	909184.2940685	80	909187.635344	909187.6358648	40	909190.8983851	909190.8989413	100	del	909191.9869217	909192.496362	909192.4967299	120.0	3.0	909193.0915341
1505.8876953125	0.0	100	3084058	97	77	730	1	0	909184.2937583	909184.2940685	80	909187.635344	909187.6358648	40	909190.8983851	909190.8989413	100	del	909191.9869217	909192.496362	909192.4967299	120.0	3.0	909193.0915341
1507.4853515625	0.0	120	3087330	97	77	730	1	0	909184.2937583	909184.2940685	80	909187.635344	909187.6358648	40	909190.8983851	909190.8989413	100	del	909191.9869217	909192.496362	909192.4967299	120.0	3.0	909193.0915341
1510.20556640625	0.0	80	3092901	98	63	7	1	1	909195.2162009	909195.2167724	80	909198.5097955	909198.5102494	40	909201.5842077	909201.5847516	100	imm	909203.2995851	909203.8120488	909203.8125177	120.0	3.0	909204.8346801
1513.49853515625	0.0	40	3099645	98	63	7	1	1	909195.2162009	909195.2167724	80	909198.5097955	909198.5102494	40	909201.5842077	909201.5847516	100	imm	909203.2995851	909203.8120488	909203.8125177	120.0	3.0	909204.8346801
1516.5732421875	0.0	100	3105942	98	63	7	1	1	909195.2162009	909195.2167724	80	909198.5097955	909198.5102494	40	909201.5842077	909201.5847516	100	imm	909203.2995851	909203.8120488	909203.8125177	120.0	3.0	909204.8346801
1518.80078125	0.0	120	3110504	98	63	7	1	1	909195.2162009	909195.2167724	80	909198.5097955	909198.5102494	40	909201.5842077	909201.5847516	100	imm	909203.2995851	909203.8120488	909203.8125177	120.0	3.0	909204.8346801
1522.17236328125	0.0	80	3117409	99	53	30	0	1	909207.183538	909207.1838262	80	909210.4906706	909210.4911581	40	909213.5326505	909213.5331418	100	del	909215.7796391	nan	nan	nan	nan	nan
1525.4794921875	0.0	40	3124182	99	53	30	0	1	909207.183538	909207.1838262	80	909210.4906706	909210.4911581	40	909213.5326505	909213.5331418	100	del	909215.7796391	nan	nan	nan	nan	nan
1528.521484375	0.0	100	3130412	99	53	30	0	1	909207.183538	909207.1838262	80	909210.4906706	909210.4911581	40	909213.5326505	909213.5331418	100	del	909215.7796391	nan	nan	nan	nan	nan
1533.31396484375	0.0	80	3140227	100	100	30	0	0	909218.3254097	909218.3258764	80	909221.4092591	909221.4096895	40	909224.43249	909224.433006	100	del	909227.4033523	nan	nan	nan	nan	nan
1536.3974609375	0.0	40	3146542	100	100	30	0	0	909218.3254097	909218.3258764	80	909221.4092591	909221.4096895	40	909224.43249	909224.433006	100	del	909227.4033523	nan	nan	nan	nan	nan
1539.4208984375	0.0	100	3152734	100	100	30	0	0	909218.3254097	909218.3258764	80	909221.4092591	909221.4096895	40	909224.43249	909224.433006	100	del	909227.4033523	nan	nan	nan	nan	nan
1620.08642578125	0.0	80	3317937	101	70	7	1	0	909305.1000491	909305.1005618	80	909308.5244053	909308.5248686	40	909311.8464492	909311.846926	100	del	909312.7625617	909313.2734275	909313.2737514	120.0	2.0	909315.6268152
1623.5107421875	0.0	40	3324950	101	70	7	1	0	909305.1000491	909305.1005618	80	909308.5244053	909308.5248686	40	909311.8464492	909311.846926	100	del	909312.7625617	909313.2734275	909313.2737514	120.0	2.0	909315.6268152
1626.83251953125	0.0	100	3331753	101	70	7	1	0	909305.1000491	909305.1005618	80	909308.5244053	909308.5248686	40	909311.8464492	909311.846926	100	del	909312.7625617	909313.2734275	909313.2737514	120.0	2.0	909315.6268152
1628.25927734375	0.0	120	3334675	101	70	7	1	0	909305.1000491	909305.1005618	80	909308.5244053	909308.5248686	40	909311.8464492	909311.846926	100	del	909312.7625617	909313.2734275	909313.2737514	120.0	2.0	909315.6268152
1632.88525390625	0.0	80	3344149	102	57	60	1	1	909317.8994704	909317.8997594	80	909321.3404353	909321.3409339	40	909324.4030681	909324.403599	100	del	909327.2362373	909327.7455827	909327.7459291	120.0	2.0	909328.5789781
1636.326171875	0.0	40	3351196	102	57	60	1	1	909317.8994704	909317.8997594	80	909321.3404353	909321.3409339	40	909324.4030681	909324.403599	100	del	909327.2362373	909327.7455827	909327.7459291	120.0	2.0	909328.5789781
1639.38916015625	0.0	100	3357469	102	57	60	1	1	909317.8994704	909317.8997594	80	909321.3404353	909321.3409339	40	909324.4030681	909324.403599	100	del	909327.2362373	909327.7455827	909327.7459291	120.0	2.0	909328.5789781
1642.7314453125	0.0	120	3364314	102	57	60	1	1	909317.8994704	909317.8997594	80	909321.3404353	909321.3409339	40	909324.4030681	909324.403599	100	del	909327.2362373	909327.7455827	909327.7459291	120.0	2.0	909328.5789781
1646.03125	0.0	80	3371072	103	80	280	0	1	909331.0455409	909331.0459109	80	909334.1072159	909334.1076868	40	909337.3784471	909337.3788538	100	del	909339.18681	nan	nan	nan	nan	nan
1649.0927734375	0.0	40	3377342	103	80	280	0	1	909331.0455409	909331.0459109	80	909334.1072159	909334.1076868	40	909337.3784471	909337.3788538	100	del	909339.18681	nan	nan	nan	nan	nan
1652.3642578125	0.0	100	3384042	103	80	280	0	1	909331.0455409	909331.0459109	80	909334.1072159	909334.1076868	40	909337.3784471	909337.3788538	100	del	909339.18681	nan	nan	nan	nan	nan
1656.76123046875	0.0	80	3393047	104	90	365	1	0	909341.7758299	909341.7763195	80	909345.0630372	909345.0635023	40	909348.0785437	909348.0789885	100	del	909350.6589791	909351.1685061	909351.1688847	120.0	2.0	909352.9244144
1660.04833984375	0.0	40	3399779	104	90	365	1	0	909341.7758299	909341.7763195	80	909345.0630372	909345.0635023	40	909348.0785437	909348.0789885	100	del	909350.6589791	909351.1685061	909351.1688847	120.0	2.0	909352.9244144
1663.06396484375	0.0	100	3405955	104	90	365	1	0	909341.7758299	909341.7763195	80	909345.0630372	909345.0635023	40	909348.0785437	909348.0789885	100	del	909350.6589791	909351.1685061	909351.1688847	120.0	2.0	909352.9244144
1666.15380859375	0.0	120	3412283	104	90	365	1	0	909341.7758299	909341.7763195	80	909345.0630372	909345.0635023	40	909348.0785437	909348.0789885	100	del	909350.6589791	909351.1685061	909351.1688847	120.0	2.0	909352.9244144
1670.3056640625	0.0	80	3420786	105	73	280	0	1	909355.320853	909355.3212118	80	909358.7523799	909358.7528872	40	909362.2239668	909362.2244112	100	del	909364.5863585	nan	nan	nan	nan	nan
1673.7373046875	0.0	40	3427814	105	73	280	0	1	909355.320853	909355.3212118	80	909358.7523799	909358.7528872	40	909362.2239668	909362.2244112	100	del	909364.5863585	nan	nan	nan	nan	nan
1677.208984375	0.0	100	3434924	105	73	280	0	1	909355.320853	909355.3212118	80	909358.7523799	909358.7528872	40	909362.2239668	909362.2244112	100	del	909364.5863585	nan	nan	nan	nan	nan
1682.58056640625	0.0	80	3445925	106	87	200	1	0	909367.5953832	909367.5960131	80	909370.8555416	909370.8560209	40	909374.0047288	909374.0051565	100	del	909379.9949708	909380.5046836	909380.5049724	120.0	3.0	909382.2990473
1685.84033203125	0.0	40	3452601	106	87	200	1	0	909367.5953832	909367.5960131	80	909370.8555416	909370.8560209	40	909374.0047288	909374.0051565	100	del	909379.9949708	909380.5046836	909380.5049724	120.0	3.0	909382.2990473
1688.9892578125	0.0	100	3459050	106	87	200	1	0	909367.5953832	909367.5960131	80	909370.8555416	909370.8560209	40	909374.0047288	909374.0051565	100	del	909379.9949708	909380.5046836	909380.5049724	120.0	3.0	909382.2990473
1695.4892578125	0.0	120	3472362	106	87	200	1	0	909367.5953832	909367.5960131	80	909370.8555416	909370.8560209	40	909374.0047288	909374.0051565	100	del	909379.9949708	909380.5046836	909380.5049724	120.0	3.0	909382.2990473
1699.34814453125	0.0	80	3480265	107	100	60	1	0	909384.3635206	909384.36397	80	909387.6248674	909387.6253761	40	909390.9318408	909390.9323761	100	del	909393.1705461	909393.6809835	909393.6813706	120.0	3.0	909397.339521
1702.609375	0.0	40	3486944	107	100	60	1	0	909384.3635206	909384.36397	80	909387.6248674	909387.6253761	40	909390.9318408	909390.9323761	100	del	909393.1705461	909393.6809835	909393.6813706	120.0	3.0	909397.339521
1705.916015625	0.0	100	3493716	107	100	60	1	0	909384.3635206	909384.36397	80	909387.6248674	909387.6253761	40	909390.9318408	909390.9323761	100	del	909393.1705461	909393.6809835	909393.6813706	120.0	3.0	909397.339521
1708.6650390625	0.0	120	3499346	107	100	60	1	0	909384.3635206	909384.36397	80	909387.6248674	909387.6253761	40	909390.9318408	909390.9323761	100	del	909393.1705461	909393.6809835	909393.6813706	120.0	3.0	909397.339521
1714.72216796875	0.0	80	3511751	108	70	520	0	0	909399.7382273	909399.7386919	80	909402.7869874	909402.7874207	40	909406.1313999	909406.1318869	100	del	909409.2430996	nan	nan	nan	nan	nan
1717.77099609375	0.0	40	3517995	108	70	520	0	0	909399.7382273	909399.7386919	80	909402.7869874	909402.7874207	40	909406.1313999	909406.1318869	100	del	909409.2430996	nan	nan	nan	nan	nan
1721.115234375	0.0	100	3524844	108	70	520	0	0	909399.7382273	909399.7386919	80	909402.7869874	909402.7874207	40	909406.1313999	909406.1318869	100	del	909409.2430996	nan	nan	nan	nan	nan
1726.99853515625	0.0	80	3536893	109	83	365	1	0	909412.0148953	909412.0152644	80	909415.108879	909415.1093724	40	909418.5913881	909418.5919097	100	na	909421.0905473	909421.6002216	909421.6006052	120.0	2.0	909423.1625912
1730.09228515625	0.0	40	3543229	109	83	365	1	0	909412.0148953	909412.0152644	80	909415.108879	909415.1093724	40	909418.5913881	909418.5919097	100	na	909421.0905473	909421.6002216	909421.6006052	120.0	2.0	909423.1625912
1733.5751953125	0.0	100	3550362	109	83	365	1	0	909412.0148953	909412.0152644	80	909415.108879	909415.1093724	40	909418.5913881	909418.5919097	100	na	909421.0905473	909421.6002216	909421.6006052	120.0	2.0	909423.1625912
1736.58349609375	0.0	120	3556523	109	83	365	1	0	909412.0148953	909412.0152644	80	909415.108879	909415.1093724	40	909418.5913881	909418.5919097	100	na	909421.0905473	909421.6002216	909421.6006052	120.0	2.0	909423.1625912
1740.453125	0.0	80	3564448	110	100	730	1	1	909425.4697525	909425.4700998	80	909428.6980776	909428.698531	40	909432.1818849	909432.1823915	100	del	909441.7950756	909442.305743	909442.3061476	120.0	2.0	909443.346503
1743.68115234375	0.0	40	3571059	110	100	730	1	1	909425.4697525	909425.4700998	80	909428.6980776	909428.698531	40	909432.1818849	909432.1823915	100	del	909441.7950756	909442.305743	909442.3061476	120.0	2.0	909443.346503
1747.1650390625	0.0	100	3578194	110	100	730	1	1	909425.4697525	909425.4700998	80	909428.6980776	909428.698531	40	909432.1818849	909432.1823915	100	del	909441.7950756	909442.305743	909442.3061476	120.0	2.0	909443.346503
1757.28857421875	0.0	120	3598927	110	100	730	1	1	909425.4697525	909425.4700998	80	909428.6980776	909428.698531	40	909432.1818849	909432.1823915	100	del	909441.7950756	909442.305743	909442.3061476	120.0	2.0	909443.346503
1760.673828125	0.0	80	3605860	111	50	365	1	1	909445.6907168	909445.6912553	80	909448.9244207	909448.9248781	40	909452.3577836	909452.3582844	100	imm	909454.3560356	909454.8670181	909454.8675436	120.0	2.0	909463.7701474
1763.9072265625	0.0	40	3612482	111	50	365	1	1	909445.6907168	909445.6912553	80	909448.9244207	909448.9248781	40	909452.3577836	909452.3582844	100	imm	909454.3560356	909454.8670181	909454.8675436	120.0	2.0	909463.7701474
1767.34033203125	0.0	100	3619513	111	50	365	1	1	909445.6907168	909445.6912553	80	909448.9244207	909448.9248781	40	909452.3577836	909452.3582844	100	imm	909454.3560356	909454.8670181	909454.8675436	120.0	2.0	909463.7701474
1769.849609375	0.0	120	3624652	111	50	365	1	1	909445.6907168	909445.6912553	80	909448.9244207	909448.9248781	40	909452.3577836	909452.3582844	100	imm	909454.3560356	909454.8670181	909454.8675436	120.0	2.0	909463.7701474
1781.03564453125	0.0	80	3647561	112	53	60	1	0	909466.0531029	909466.0536132	80	909469.3379826	909469.3384826	40	909472.6916872	909472.6922164	100	del	909481.0585192	909481.5724511	909481.5729228	120.0	3.0	909483.8904436
1784.3203125	0.0	40	3654288	112	53	60	1	0	909466.0531029	909466.0536132	80	909469.3379826	909469.3384826	40	909472.6916872	909472.6922164	100	del	909481.0585192	909481.5724511	909481.5729228	120.0	3.0	909483.8904436
1787.673828125	0.0	100	3661156	112	53	60	1	0	909466.0531029	909466.0536132	80	909469.3379826	909469.3384826	40	909472.6916872	909472.6922164	100	del	909481.0585192	909481.5724511	909481.5729228	120.0	3.0	909483.8904436
1796.5546875	0.0	120	3679344	112	53	60	1	0	909466.0531029	909466.0536132	80	909469.3379826	909469.3384826	40	909472.6916872	909472.6922164	100	del	909481.0585192	909481.5724511	909481.5729228	120.0	3.0	909483.8904436
1801.072265625	0.0	80	3688596	113	80	30	0	0	909486.0902911	909486.0907582	80	909489.2179728	909489.2184578	40	909492.5210131	909492.5214905	100	del	909493.3479084	nan	nan	nan	nan	nan
1804.19970703125	0.0	40	3695001	113	80	30	0	0	909486.0902911	909486.0907582	80	909489.2179728	909489.2184578	40	909492.5210131	909492.5214905	100	del	909493.3479084	nan	nan	nan	nan	nan
1807.5029296875	0.0	100	3701766	113	80	30	0	0	909486.0902911	909486.0907582	80	909489.2179728	909489.2184578	40	909492.5210131	909492.5214905	100	del	909493.3479084	nan	nan	nan	nan	nan
1811.28125	0.0	80	3709504	114	67	520	0	0	909496.2994731	909496.2999772	80	909499.5103203	909499.5107882	40	909502.5799522	909502.5806748	100	del	909510.115687	nan	nan	nan	nan	nan
1814.49169921875	0.0	40	3716079	114	67	520	0	0	909496.2994731	909496.2999772	80	909499.5103203	909499.5107882	40	909502.5799522	909502.5806748	100	del	909510.115687	nan	nan	nan	nan	nan
1817.5615234375	0.0	100	3722366	114	67	520	0	0	909496.2994731	909496.2999772	80	909499.5103203	909499.5107882	40	909502.5799522	909502.5806748	100	del	909510.115687	nan	nan	nan	nan	nan
1827.83349609375	0.0	80	3743403	115	83	520	0	1	909512.8521908	909512.852555	80	909516.0093744	909516.0098368	40	909519.223781	909519.2242717	100	del	909521.5799747	nan	nan	nan	nan	nan
1830.99072265625	0.0	40	3749869	115	83	520	0	1	909512.8521908	909512.852555	80	909516.0093744	909516.0098368	40	909519.223781	909519.2242717	100	del	909521.5799747	nan	nan	nan	nan	nan
1834.205078125	0.0	100	3756452	115	83	520	0	1	909512.8521908	909512.852555	80	909516.0093744	909516.0098368	40	909519.223781	909519.2242717	100	del	909521.5799747	nan	nan	nan	nan	nan
1839.49169921875	0.0	80	3767279	116	87	7	1	0	909524.5105866	909524.5109959	80	909527.7199603	909527.7204462	40	909530.9289011	909530.929416	100	na	909532.4347537	909532.9472107	909532.9476282	120.0	2.0	909533.9865437
1842.70068359375	0.0	40	3773851	116	87	7	1	0	909524.5105866	909524.5109959	80	909527.7199603	909527.7204462	40	909530.9289011	909530.929416	100	na	909532.4347537	909532.9472107	909532.9476282	120.0	2.0	909533.9865437
1845.90966796875	0.0	100	3780423	116	87	7	1	0	909524.5105866	909524.5109959	80	909527.7199603	909527.7204462	40	909530.9289011	909530.929416	100	na	909532.4347537	909532.9472107	909532.9476282	120.0	2.0	909533.9865437
1847.927734375	0.0	120	3784556	116	87	7	1	0	909524.5105866	909524.5109959	80	909527.7199603	909527.7204462	40	909530.9289011	909530.929416	100	na	909532.4347537	909532.9472107	909532.9476282	120.0	2.0	909533.9865437
1851.16162109375	0.0	80	3791179	117	67	60	1	0	909536.181102	909536.1815466	80	909539.2580128	909539.2584217	40	909542.3991079	909542.3995326	100	del	909547.5797792	909548.0892457	909548.0895944	120.0	3.0	909549.1865077
1854.23876953125	0.0	40	3797481	117	67	60	1	0	909536.181102	909536.1815466	80	909539.2580128	909539.2584217	40	909542.3991079	909542.3995326	100	del	909547.5797792	909548.0892457	909548.0895944	120.0	3.0	909549.1865077
1857.37939453125	0.0	100	3803913	117	67	60	1	0	909536.181102	909536.1815466	80	909539.2580128	909539.2584217	40	909542.3991079	909542.3995326	100	del	909547.5797792	909548.0892457	909548.0895944	120.0	3.0	909549.1865077
1863.0693359375	0.0	120	3815566	117	67	60	1	0	909536.181102	909536.1815466	80	909539.2580128	909539.2584217	40	909542.3991079	909542.3995326	100	del	909547.5797792	909548.0892457	909548.0895944	120.0	3.0	909549.1865077
1866.22216796875	0.0	80	3822023	118	93	200	1	1	909551.2419784	909551.2422857	80	909554.4640332	909554.4645029	40	909557.6056662	909557.606202	100	del	909559.7705736	909560.2839941	909560.2844576	120.0	2.0	909561.1142117
1869.4443359375	0.0	40	3828622	118	93	200	1	1	909551.2419784	909551.2422857	80	909554.4640332	909554.4645029	40	909557.6056662	909557.606202	100	del	909559.7705736	909560.2839941	909560.2844576	120.0	2.0	909561.1142117
1872.5859375	0.0	100	3835056	118	93	200	1	1	909551.2419784	909551.2422857	80	909554.4640332	909554.4645029	40	909557.6056662	909557.606202	100	del	909559.7705736	909560.2839941	909560.2844576	120.0	2.0	909561.1142117
1875.26416015625	0.0	120	3840541	118	93	200	1	1	909551.2419784	909551.2422857	80	909554.4640332	909554.4645029	40	909557.6056662	909557.606202	100	del	909559.7705736	909560.2839941	909560.2844576	120.0	2.0	909561.1142117
1878.25537109375	0.0	80	3846667	119	77	280	0	0	909563.27547	909563.27588	80	909566.4949592	909566.4954665	40	909569.5672966	909569.5677608	100	del	909571.3549771	nan	nan	nan	nan	nan
1881.47509765625	0.0	40	3853261	119	77	280	0	0	909563.27547	909563.27588	80	909566.4949592	909566.4954665	40	909569.5672966	909569.5677608	100	del	909571.3549771	nan	nan	nan	nan	nan
1884.54736328125	0.0	100	3859553	119	77	280	0	0	909563.27547	909563.27588	80	909566.4949592	909566.4954665	40	909569.5672966	909569.5677608	100	del	909571.3549771	nan	nan	nan	nan	nan
1889.09912109375	0.0	80	3868875	120	100	365	1	0	909574.1195597	909574.1199912	80	909577.4813903	909577.4818223	40	909580.6136031	909580.6140095	100	na	909593.4985306	909594.0093417	909594.0096821	120.0	2.0	909595.5387098
1892.4609375	0.0	40	3875760	120	100	365	1	0	909574.1195597	909574.1199912	80	909577.4813903	909577.4818223	40	909580.6136031	909580.6140095	100	na	909593.4985306	909594.0093417	909594.0096821	120.0	2.0	909595.5387098
1895.59326171875	0.0	100	3882175	120	100	365	1	0	909574.1195597	909574.1199912	80	909577.4813903	909577.4818223	40	909580.6136031	909580.6140095	100	na	909593.4985306	909594.0093417	909594.0096821	120.0	2.0	909595.5387098
1908.98828125	0.0	120	3909608	120	100	365	1	0	909574.1195597	909574.1199912	80	909577.4813903	909577.4818223	40	909580.6136031	909580.6140095	100	na	909593.4985306	909594.0093417	909594.0096821	120.0	2.0	909595.5387098
1960.74072265625	0.0	80	4015597	121	77	520	0	1	909645.7624143	909645.7629361	80	909648.8049616	909648.8052736	40	909652.0156725	909652.0162116	100	imm	909652.8266589	nan	nan	nan	nan	nan
1963.78271484375	0.0	40	4021827	121	77	520	0	1	909645.7624143	909645.7629361	80	909648.8049616	909648.8052736	40	909652.0156725	909652.0162116	100	imm	909652.8266589	nan	nan	nan	nan	nan
1966.99365234375	0.0	100	4028403	121	77	520	0	1	909645.7624143	909645.7629361	80	909648.8049616	909648.8052736	40	909652.0156725	909652.0162116	100	imm	909652.8266589	nan	nan	nan	nan	nan
1970.3203125	0.0	80	4035216	122	63	1030	0	1	909655.3425591	909655.3428829	80	909658.4606712	909658.4612773	40	909661.4744679	909661.4749797	100	del	909663.7860614	nan	nan	nan	nan	nan
1973.4384765625	0.0	40	4041602	122	63	1030	0	1	909655.3425591	909655.3428829	80	909658.4606712	909658.4612773	40	909661.4744679	909661.4749797	100	del	909663.7860614	nan	nan	nan	nan	nan
1976.4521484375	0.0	100	4047774	122	63	1030	0	1	909655.3425591	909655.3428829	80	909658.4606712	909658.4612773	40	909661.4744679	909661.4749797	100	del	909663.7860614	nan	nan	nan	nan	nan
1981.3759765625	0.0	80	4057858	123	70	365	1	0	909666.3983444	909666.3988629	80	909669.4776199	909669.4781695	40	909672.6246328	909672.6250524	100	del	909677.5073775	909678.0178721	909678.0182038	120.0	3.0	909679.3137478
1984.455078125	0.0	40	4064164	123	70	365	1	0	909666.3983444	909666.3988629	80	909669.4776199	909669.4781695	40	909672.6246328	909672.6250524	100	del	909677.5073775	909678.0178721	909678.0182038	120.0	3.0	909679.3137478
1987.60205078125	0.0	100	4070609	123	70	365	1	0	909666.3983444	909666.3988629	80	909669.4776199	909669.4781695	40	909672.6246328	909672.6250524	100	del	909677.5073775	909678.0178721	909678.0182038	120.0	3.0	909679.3137478
1992.9951171875	0.0	120	4081654	123	70	365	1	0	909666.3983444	909666.3988629	80	909669.4776199	909669.4781695	40	909672.6246328	909672.6250524	100	del	909677.5073775	909678.0178721	909678.0182038	120.0	3.0	909679.3137478
1996.396484375	0.0	80	4088620	124	100	110	0	0	909681.4195036	909681.4199626	80	909684.4969307	909684.4974386	40	909687.8058191	909687.8061818	100	imm	909688.4992776	nan	nan	nan	nan	nan
1999.47412109375	0.0	40	4094923	124	100	110	0	0	909681.4195036	909681.4199626	80	909684.4969307	909684.4974386	40	909687.8058191	909687.8061818	100	imm	909688.4992776	nan	nan	nan	nan	nan
2002.78271484375	0.0	100	4101699	124	100	110	0	0	909681.4195036	909681.4199626	80	909684.4969307	909684.4974386	40	909687.8058191	909687.8061818	100	imm	909688.4992776	nan	nan	nan	nan	nan
2006.4443359375	0.0	80	4109198	125	50	7	1	0	909691.4677249	909691.4682369	80	909694.9453383	909694.9457536	40	909698.0688527	909698.069346	100	del	909708.5460618	909709.0553376	909709.0561012	120.0	3.0	909709.9465044
2009.921875	0.0	40	4116320	125	50	7	1	0	909691.4677249	909691.4682369	80	909694.9453383	909694.9457536	40	909698.0688527	909698.069346	100	del	909708.5460618	909709.0553376	909709.0561012	120.0	3.0	909709.9465044
2013.04541015625	0.0	100	4122717	125	50	7	1	0	909691.4677249	909691.4682369	80	909694.9453383	909694.9457536	40	909698.0688527	909698.069346	100	del	909708.5460618	909709.0553376	909709.0561012	120.0	3.0	909709.9465044
2024.03173828125	0.0	120	4145217	125	50	7	1	0	909691.4677249	909691.4682369	80	909694.9453383	909694.9457536	40	909698.0688527	909698.069346	100	del	909708.5460618	909709.0553376	909709.0561012	120.0	3.0	909709.9465044
2027.17919921875	0.0	80	4151663	126	63	110	0	0	909712.2030166	909712.203515	80	909715.3993649	909715.3998343	40	909718.6740302	909718.6744129	100	del	909719.6579337	nan	nan	nan	nan	nan
2030.37548828125	0.0	40	4158209	126	63	110	0	0	909712.2030166	909712.203515	80	909715.3993649	909715.3998343	40	909718.6740302	909718.6744129	100	del	909719.6579337	nan	nan	nan	nan	nan
2033.650390625	0.0	100	4164916	126	63	110	0	0	909712.2030166	909712.203515	80	909715.3993649	909715.3998343	40	909718.6740302	909718.6744129	100	del	909719.6579337	nan	nan	nan	nan	nan
2037.28271484375	0.0	80	4172355	127	90	110	0	0	909722.3068913	909722.3073252	80	909725.3485176	909725.3489993	40	909728.5799799	909728.5807579	100	del	909731.7216992	nan	nan	nan	nan	nan
2040.32470703125	0.0	40	4178585	127	90	110	0	0	909722.3068913	909722.3073252	80	909725.3485176	909725.3489993	40	909728.5799799	909728.5807579	100	del	909731.7216992	nan	nan	nan	nan	nan
2043.5556640625	0.0	100	4185202	127	90	110	0	0	909722.3068913	909722.3073252	80	909725.3485176	909725.3489993	40	909728.5799799	909728.5807579	100	del	909731.7216992	nan	nan	nan	nan	nan
2049.306640625	0.0	80	4196980	128	83	60	1	1	909734.3307413	909734.3312244	80	909737.351516	909737.3520375	40	909740.8423776	909740.8428848	100	del	909744.6664201	909745.1773469	909745.1778013	120.0	2.0	909746.4499019
2052.3271484375	0.0	40	4203166	128	83	60	1	1	909734.3307413	909734.3312244	80	909737.351516	909737.3520375	40	909740.8423776	909740.8428848	100	del	909744.6664201	909745.1773469	909745.1778013	120.0	2.0	909746.4499019
2055.81787109375	0.0	100	4210315	128	83	60	1	1	909734.3307413	909734.3312244	80	909737.351516	909737.3520375	40	909740.8423776	909740.8428848	100	del	909744.6664201	909745.1773469	909745.1778013	120.0	2.0	909746.4499019
2060.15283203125	0.0	120	4219193	128	83	60	1	1	909734.3307413	909734.3312244	80	909737.351516	909737.3520375	40	909740.8423776	909740.8428848	100	del	909744.6664201	909745.1773469	909745.1778013	120.0	2.0	909746.4499019
2063.65234375	0.0	80	4226360	129	87	1030	0	0	909748.6771299	909748.6774832	80	909752.1652052	909752.1657073	40	909755.5617213	909755.5622002	100	imm	909757.1701398	nan	nan	nan	nan	nan
2067.140625	0.0	40	4233504	129	87	1030	0	0	909748.6771299	909748.6774832	80	909752.1652052	909752.1657073	40	909755.5617213	909755.5622002	100	imm	909757.1701398	nan	nan	nan	nan	nan
2070.537109375	0.0	100	4240460	129	87	1030	0	0	909748.6771299	909748.6774832	80	909752.1652052	909752.1657073	40	909755.5617213	909755.5622002	100	imm	909757.1701398	nan	nan	nan	nan	nan
2074.662109375	0.0	80	4248908	130	67	110	0	0	909759.6871919	909759.687588	80	909763.0349156	909763.0354316	40	909766.4013795	909766.4019036	100	del	909767.721991	nan	nan	nan	nan	nan
2078.01025390625	0.0	40	4255765	130	67	110	0	0	909759.6871919	909759.687588	80	909763.0349156	909763.0354316	40	909766.4013795	909766.4019036	100	del	909767.721991	nan	nan	nan	nan	nan
2081.37646484375	0.0	100	4262659	130	67	110	0	0	909759.6871919	909759.687588	80	909763.0349156	909763.0354316	40	909766.4013795	909766.4019036	100	del	909767.721991	nan	nan	nan	nan	nan
2085.537109375	0.0	80	4271180	131	97	520	0	0	909770.5621265	909770.5626396	80	909773.8460632	909773.8466063	40	909776.9656431	909776.9659827	100	del	909777.810132	nan	nan	nan	nan	nan
2088.82080078125	0.0	40	4277905	131	97	520	0	0	909770.5621265	909770.5626396	80	909773.8460632	909773.8466063	40	909776.9656431	909776.9659827	100	del	909777.810132	nan	nan	nan	nan	nan
2091.9404296875	0.0	100	4284294	131	97	520	0	0	909770.5621265	909770.5626396	80	909773.8460632	909773.8466063	40	909776.9656431	909776.9659827	100	del	909777.810132	nan	nan	nan	nan	nan
2095.68505859375	0.0	80	4291963	132	83	30	0	1	909780.710451	909780.7107494	80	909783.8323224	909783.8328433	40	909787.0317874	909787.0323927	100	del	909789.2660614	nan	nan	nan	nan	nan
2098.806640625	0.0	40	4298356	132	83	30	0	1	909780.710451	909780.7107494	80	909783.8323224	909783.8328433	40	909787.0317874	909787.0323927	100	del	909789.2660614	nan	nan	nan	nan	nan
2102.00634765625	0.0	100	4304909	132	83	30	0	1	909780.710451	909780.7107494	80	909783.8323224	909783.8328433	40	909787.0317874	909787.0323927	100	del	909789.2660614	nan	nan	nan	nan	nan
2107.2021484375	0.0	80	4315550	133	73	520	0	1	909792.2279581	909792.2284484	80	909795.6643573	909795.6648688	40	909798.8787814	909798.879229	100	del	909800.9217455	nan	nan	nan	nan	nan
2110.638671875	0.0	40	4322588	133	73	520	0	1	909792.2279581	909792.2284484	80	909795.6643573	909795.6648688	40	909798.8787814	909798.879229	100	del	909800.9217455	nan	nan	nan	nan	nan
2113.85302734375	0.0	100	4329171	133	73	520	0	1	909792.2279581	909792.2284484	80	909795.6643573	909795.6648688	40	909798.8787814	909798.879229	100	del	909800.9217455	nan	nan	nan	nan	nan
2118.57080078125	0.0	80	4338833	134	50	30	0	1	909803.5966146	909803.5969667	80	909806.90814	909806.908601	40	909810.3756331	909810.3760725	100	del	909814.9937216	nan	nan	nan	nan	nan
2121.88232421875	0.0	40	4345615	134	50	30	0	1	909803.5966146	909803.5969667	80	909806.90814	909806.908601	40	909810.3756331	909810.3760725	100	del	909814.9937216	nan	nan	nan	nan	nan
2125.349609375	0.0	100	4352716	134	50	30	0	1	909803.5966146	909803.5969667	80	909806.90814	909806.908601	40	909810.3756331	909810.3760725	100	del	909814.9937216	nan	nan	nan	nan	nan
2132.93896484375	0.0	80	4368259	135	60	30	0	1	909817.9652773	909817.9657656	80	909821.2685567	909821.2689934	40	909824.448264	909824.448767	100	del	909824.9141562	nan	nan	nan	nan	nan
2136.2421875	0.0	40	4375024	135	60	30	0	1	909817.9652773	909817.9657656	80	909821.2685567	909821.2689934	40	909824.448264	909824.448767	100	del	909824.9141562	nan	nan	nan	nan	nan
2139.421875	0.0	100	4381536	135	60	30	0	1	909817.9652773	909817.9657656	80	909821.2685567	909821.2689934	40	909824.448264	909824.448767	100	del	909824.9141562	nan	nan	nan	nan	nan
2142.8310546875	0.0	80	4388518	136	50	280	0	1	909827.8577513	909827.8582332	80	909831.0858173	909831.0863208	40	909834.5510976	909834.5516109	100	imm	909835.2981568	nan	nan	nan	nan	nan
2146.05908203125	0.0	40	4395129	136	50	280	0	1	909827.8577513	909827.8582332	80	909831.0858173	909831.0863208	40	909834.5510976	909834.5516109	100	imm	909835.2981568	nan	nan	nan	nan	nan
2149.5244140625	0.0	100	4402226	136	50	280	0	1	909827.8577513	909827.8582332	80	909831.0858173	909831.0863208	40	909834.5510976	909834.5516109	100	imm	909835.2981568	nan	nan	nan	nan	nan
2152.80517578125	0.0	80	4408945	137	57	520	0	1	909837.832026	909837.8325351	80	909841.1058094	909841.10633	40	909844.4784508	909844.478931	100	del	909846.3790347	nan	nan	nan	nan	nan
2156.0791015625	0.0	40	4415650	137	57	520	0	1	909837.832026	909837.8325351	80	909841.1058094	909841.10633	40	909844.4784508	909844.478931	100	del	909846.3790347	nan	nan	nan	nan	nan
2159.45166015625	0.0	100	4422557	137	57	520	0	1	909837.832026	909837.8325351	80	909841.1058094	909841.10633	40	909844.4784508	909844.478931	100	del	909846.3790347	nan	nan	nan	nan	nan
2163.958984375	0.0	80	4431788	138	90	1030	0	0	909848.985816	909848.9862286	80	909852.1618375	909852.1634598	40	909855.2697615	909855.2702549	100	del	909856.0581112	nan	nan	nan	nan	nan
2167.134765625	0.0	40	4438292	138	90	1030	0	0	909848.985816	909848.9862286	80	909852.1618375	909852.1634598	40	909855.2697615	909855.2702549	100	del	909856.0581112	nan	nan	nan	nan	nan
2170.24267578125	0.0	100	4444657	138	90	1030	0	0	909848.985816	909848.9862286	80	909852.1618375	909852.1634598	40	909855.2697615	909855.2702549	100	del	909856.0581112	nan	nan	nan	nan	nan
2173.70703125	0.0	80	4451752	139	57	1030	0	0	909858.7345	909858.7349622	80	909861.9439785	909861.9444697	40	909865.2323287	909865.2328378	100	imm	909867.9151887	nan	nan	nan	nan	nan
2176.91650390625	0.0	40	4458325	139	57	1030	0	0	909858.7345	909858.7349622	80	909861.9439785	909861.9444697	40	909865.2323287	909865.2328378	100	imm	909867.9151887	nan	nan	nan	nan	nan
2180.205078125	0.0	100	4465060	139	57	1030	0	0	909858.7345	909858.7349622	80	909861.9439785	909861.9444697	40	909865.2323287	909865.2328378	100	imm	909867.9151887	nan	nan	nan	nan	nan
2185.4248046875	0.0	80	4475750	140	53	200	1	1	909870.4525663	909870.4528219	80	909873.7366968	909873.737263	40	909876.8879967	909876.8886209	100	del	909878.7219056	909879.2293761	909879.229604	120.0	3.0	909880.6183754
2188.708984375	0.0	40	4482476	140	53	200	1	1	909870.4525663	909870.4528219	80	909873.7366968	909873.737263	40	909876.8879967	909876.8886209	100	del	909878.7219056	909879.2293761	909879.229604	120.0	3.0	909880.6183754
2191.8603515625	0.0	100	4488930	140	53	200	1	1	909870.4525663	909870.4528219	80	909873.7366968	909873.737263	40	909876.8879967	909876.8886209	100	del	909878.7219056	909879.2293761	909879.229604	120.0	3.0	909880.6183754
2194.2021484375	0.0	120	4493726	140	53	200	1	1	909870.4525663	909870.4528219	80	909873.7366968	909873.737263	40	909876.8879967	909876.8886209	100	del	909878.7219056	909879.2293761	909879.229604	120.0	3.0	909880.6183754
2239.912109375	0.0	80	4587340	141	73	1030	0	0	909924.9413682	909924.9416832	80	909928.0702744	909928.0707446	40	909931.1604104	909931.1609066	100	del	909933.0021519	nan	nan	nan	nan	nan
