onset	duration	value	sample	trial_idx	val	del	is_cued	rev_opts	del_pres_displaytime	del_pres_triggertime	del_pres_triggercode	val_pres_displaytime	val_pres_triggertime	val_pres_triggercode	choice_displaytime	choice_triggertime	choice_triggercode	choice	choice_time	viv_displaytime	viv_triggertime	viv_triggercode	viv	viv_time
38.52197265625	0.0	80	78893	1	97	400	1	0	1183842.3300144	1183842.3313616	80	1183845.5329066	1183845.533763	40	1183848.6610735	1183848.6620328	100	del	1183849.9149522	1183850.4365719	1183850.4375305	120.0	4.0	1183853.1072554
41.724609375	0.0	40	85452	1	97	400	1	0	1183842.3300144	1183842.3313616	80	1183845.5329066	1183845.533763	40	1183848.6610735	1183848.6620328	100	del	1183849.9149522	1183850.4365719	1183850.4375305	120.0	4.0	1183853.1072554
44.85302734375	0.0	100	91859	1	97	400	1	0	1183842.3300144	1183842.3313616	80	1183845.5329066	1183845.533763	40	1183848.6610735	1183848.6620328	100	del	1183849.9149522	1183850.4365719	1183850.4375305	120.0	4.0	1183853.1072554
46.62841796875	0.0	120	95495	1	97	400	1	0	1183842.3300144	1183842.3313616	80	1183845.5329066	1183845.533763	40	1183848.6610735	1183848.6620328	100	del	1183849.9149522	1183850.4365719	1183850.4375305	120.0	4.0	1183853.1072554
51.56103515625	0.0	80	105597	2	83	290	0	1	1183855.3694238	1183855.3702533	80	1183858.5479616	1183858.5486476	40	1183862.0389255	1183862.0394382	100	imm	1183864.9553123	nan	nan	nan	nan	nan
54.73974609375	0.0	40	112107	2	83	290	0	1	1183855.3694238	1183855.3702533	80	1183858.5479616	1183858.5486476	40	1183862.0389255	1183862.0394382	100	imm	1183864.9553123	nan	nan	nan	nan	nan
58.23046875	0.0	100	119256	2	83	290	0	1	1183855.3694238	1183855.3702533	80	1183858.5479616	1183858.5486476	40	1183862.0389255	1183862.0394382	100	imm	1183864.9553123	nan	nan	nan	nan	nan
64.1328125	0.0	80	131344	3	53	140	0	0	1183867.9414371	1183867.942444	80	1183870.9767268	1183870.9774554	40	1183874.3598072	1183874.3605884	100	del	1183876.787312	nan	nan	nan	nan	nan
67.16845703125	0.0	40	137561	3	53	140	0	0	1183867.9414371	1183867.942444	80	1183870.9767268	1183870.9774554	40	1183874.3598072	1183874.3605884	100	del	1183876.787312	nan	nan	nan	nan	nan
70.55078125	0.0	100	144488	3	53	140	0	0	1183867.9414371	1183867.942444	80	1183870.9767268	1183870.9774554	40	1183874.3598072	1183874.3605884	100	del	1183876.787312	nan	nan	nan	nan	nan
75.63330078125	0.0	80	154897	4	63	200	1	1	1183879.4421291	1183879.4427972	80	1183882.6623121	1183882.6630513	40	1183885.9508651	1183885.9517816	100	imm	1183887.2195504	1183887.7332152	1183887.7342406	120.0	3.0	1183890.5785619
78.85302734375	0.0	40	161491	4	63	200	1	1	1183879.4421291	1183879.4427972	80	1183882.6623121	1183882.6630513	40	1183885.9508651	1183885.9517816	100	imm	1183887.2195504	1183887.7332152	1183887.7342406	120.0	3.0	1183890.5785619
82.1416015625	0.0	100	168226	4	63	200	1	1	1183879.4421291	1183879.4427972	80	1183882.6623121	1183882.6630513	40	1183885.9508651	1183885.9517816	100	imm	1183887.2195504	1183887.7332152	1183887.7342406	120.0	3.0	1183890.5785619
83.923828125	0.0	120	171876	4	63	200	1	1	1183879.4421291	1183879.4427972	80	1183882.6623121	1183882.6630513	40	1183885.9508651	1183885.9517816	100	imm	1183887.2195504	1183887.7332152	1183887.7342406	120.0	3.0	1183890.5785619
89.26416015625	0.0	80	182813	5	83	90	1	1	1183893.0734922	1183893.0760629	80	1183896.2974297	1183896.3005658	40	1183899.8106776	1183899.8132453	100	del	1183900.5800885	1183901.0943081	1183901.0949191	120.0	2.0	1183904.0765796
92.48828125	0.0	40	189416	5	83	90	1	1	1183893.0734922	1183893.0760629	80	1183896.2974297	1183896.3005658	40	1183899.8106776	1183899.8132453	100	del	1183900.5800885	1183901.0943081	1183901.0949191	120.0	2.0	1183904.0765796
96.00146484375	0.0	100	196611	5	83	90	1	1	1183893.0734922	1183893.0760629	80	1183896.2974297	1183896.3005658	40	1183899.8106776	1183899.8132453	100	del	1183900.5800885	1183901.0943081	1183901.0949191	120.0	2.0	1183904.0765796
97.28515625	0.0	120	199240	5	83	90	1	1	1183893.0734922	1183893.0760629	80	1183896.2974297	1183896.3005658	40	1183899.8106776	1183899.8132453	100	del	1183900.5800885	1183901.0943081	1183901.0949191	120.0	2.0	1183904.0765796
102.44287109375	0.0	80	209803	6	100	200	1	1	1183906.2522704	1183906.2528446	80	1183909.6108015	1183909.6114926	40	1183912.9581499	1183912.9586146	100	imm	1183915.3146832	1183915.8285488	1183915.8293179	120.0	3.0	1183917.5084267
105.80126953125	0.0	40	216681	6	100	200	1	1	1183906.2522704	1183906.2528446	80	1183909.6108015	1183909.6114926	40	1183912.9581499	1183912.9586146	100	imm	1183915.3146832	1183915.8285488	1183915.8293179	120.0	3.0	1183917.5084267
109.1484375	0.0	100	223536	6	100	200	1	1	1183906.2522704	1183906.2528446	80	1183909.6108015	1183909.6114926	40	1183912.9581499	1183912.9586146	100	imm	1183915.3146832	1183915.8285488	1183915.8293179	120.0	3.0	1183917.5084267
112.0185546875	0.0	120	229414	6	100	200	1	1	1183906.2522704	1183906.2528446	80	1183909.6108015	1183909.6114926	40	1183912.9581499	1183912.9586146	100	imm	1183915.3146832	1183915.8285488	1183915.8293179	120.0	3.0	1183917.5084267
115.9833984375	0.0	80	237534	7	97	200	1	0	1183919.7935224	1183919.7940326	80	1183923.1508451	1183923.1513316	40	1183926.5001162	1183926.5006607	100	imm	1183929.6356084	1183930.1454309	1183930.1470233	120.0	3.0	1183933.8685668
119.3408203125	0.0	40	244410	7	97	200	1	0	1183919.7935224	1183919.7940326	80	1183923.1508451	1183923.1513316	40	1183926.5001162	1183926.5006607	100	imm	1183929.6356084	1183930.1454309	1183930.1470233	120.0	3.0	1183933.8685668
122.68994140625	0.0	100	251269	7	97	200	1	0	1183919.7935224	1183919.7940326	80	1183923.1508451	1183923.1513316	40	1183926.5001162	1183926.5006607	100	imm	1183929.6356084	1183930.1454309	1183930.1470233	120.0	3.0	1183933.8685668
126.33544921875	0.0	120	258735	7	97	200	1	0	1183919.7935224	1183919.7940326	80	1183923.1508451	1183923.1513316	40	1183926.5001162	1183926.5006607	100	imm	1183929.6356084	1183930.1454309	1183930.1470233	120.0	3.0	1183933.8685668
132.1630859375	0.0	80	270670	8	83	400	1	1	1183935.9736923	1183935.9741562	80	1183939.044782	1183939.0452614	40	1183942.5590879	1183942.5595897	100	del	1183943.6668424	1183944.1809705	1183944.1814548	120.0	4.0	1183944.7952023
135.234375	0.0	40	276960	8	83	400	1	1	1183935.9736923	1183935.9741562	80	1183939.044782	1183939.0452614	40	1183942.5590879	1183942.5595897	100	del	1183943.6668424	1183944.1809705	1183944.1814548	120.0	4.0	1183944.7952023
138.74853515625	0.0	100	284157	8	83	400	1	1	1183935.9736923	1183935.9741562	80	1183939.044782	1183939.0452614	40	1183942.5590879	1183942.5595897	100	del	1183943.6668424	1183944.1809705	1183944.1814548	120.0	4.0	1183944.7952023
140.3701171875	0.0	120	287478	8	83	400	1	1	1183935.9736923	1183935.9741562	80	1183939.044782	1183939.0452614	40	1183942.5590879	1183942.5595897	100	del	1183943.6668424	1183944.1809705	1183944.1814548	120.0	4.0	1183944.7952023
143.0859375	0.0	80	293040	9	100	290	0	0	1183946.8967935	1183946.8972756	80	1183949.9205567	1183949.9210405	40	1183953.214525	1183953.2150098	100	del	1183954.1306528	nan	nan	nan	nan	nan
146.10986328125	0.0	40	299233	9	100	290	0	0	1183946.8967935	1183946.8972756	80	1183949.9205567	1183949.9210405	40	1183953.214525	1183953.2150098	100	del	1183954.1306528	nan	nan	nan	nan	nan
149.40380859375	0.0	100	305979	9	100	290	0	0	1183946.8967935	1183946.8972756	80	1183949.9205567	1183949.9210405	40	1183953.214525	1183953.2150098	100	del	1183954.1306528	nan	nan	nan	nan	nan
153.27978515625	0.0	80	313917	10	70	20	0	1	1183957.0909806	1183957.0915278	80	1183960.4338408	1183960.4343206	40	1183963.5423116	1183963.5428886	100	del	1183968.6191296	nan	nan	nan	nan	nan
156.62255859375	0.0	40	320763	10	70	20	0	1	1183957.0909806	1183957.0915278	80	1183960.4338408	1183960.4343206	40	1183963.5423116	1183963.5428886	100	del	1183968.6191296	nan	nan	nan	nan	nan
159.73095703125	0.0	100	327129	10	70	20	0	1	1183957.0909806	1183957.0915278	80	1183960.4338408	1183960.4343206	40	1183963.5423116	1183963.5428886	100	del	1183968.6191296	nan	nan	nan	nan	nan
167.50830078125	0.0	80	343057	11	73	400	1	1	1183971.3197828	1183971.3202836	80	1183974.5588553	1183974.559317	40	1183978.0634061	1183978.0639436	100	del	1183979.1805836	1183979.6952114	1183979.6957397	120.0	3.0	1183981.0833818
170.74755859375	0.0	40	349691	11	73	400	1	1	1183971.3197828	1183971.3202836	80	1183974.5588553	1183974.559317	40	1183978.0634061	1183978.0639436	100	del	1183979.1805836	1183979.6952114	1183979.6957397	120.0	3.0	1183981.0833818
174.251953125	0.0	100	356868	11	73	400	1	1	1183971.3197828	1183971.3202836	80	1183974.5588553	1183974.559317	40	1183978.0634061	1183978.0639436	100	del	1183979.1805836	1183979.6952114	1183979.6957397	120.0	3.0	1183981.0833818
175.88330078125	0.0	120	360209	11	73	400	1	1	1183971.3197828	1183971.3202836	80	1183974.5588553	1183974.559317	40	1183978.0634061	1183978.0639436	100	del	1183979.1805836	1183979.6952114	1183979.6957397	120.0	3.0	1183981.0833818
179.3662109375	0.0	80	367342	12	50	90	1	1	1183983.1778676	1183983.1783145	80	1183986.6129863	1183986.6134438	40	1183989.9486572	1183989.9491094	100	del	1183990.8283892	1183991.3416775	1183991.3422217	120.0	3.0	1183993.1395637
182.80126953125	0.0	40	374377	12	50	90	1	1	1183983.1778676	1183983.1783145	80	1183986.6129863	1183986.6134438	40	1183989.9486572	1183989.9491094	100	del	1183990.8283892	1183991.3416775	1183991.3422217	120.0	3.0	1183993.1395637
186.13671875	0.0	100	381208	12	50	90	1	1	1183983.1778676	1183983.1783145	80	1183986.6129863	1183986.6134438	40	1183989.9486572	1183989.9491094	100	del	1183990.8283892	1183991.3416775	1183991.3422217	120.0	3.0	1183993.1395637
187.52978515625	0.0	120	384061	12	50	90	1	1	1183983.1778676	1183983.1783145	80	1183986.6129863	1183986.6134438	40	1183989.9486572	1183989.9491094	100	del	1183990.8283892	1183991.3416775	1183991.3422217	120.0	3.0	1183993.1395637
191.53173828125	0.0	80	392257	13	50	560	0	1	1183995.3440978	1183995.344575	80	1183998.4469729	1183998.4474582	40	1184001.6746658	1184001.6751647	100	del	1184003.8828614	nan	nan	nan	nan	nan
194.634765625	0.0	40	398612	13	50	560	0	1	1183995.3440978	1183995.344575	80	1183998.4469729	1183998.4474582	40	1184001.6746658	1184001.6751647	100	del	1184003.8828614	nan	nan	nan	nan	nan
197.8623046875	0.0	100	405222	13	50	560	0	1	1183995.3440978	1183995.344575	80	1183998.4469729	1183998.4474582	40	1184001.6746658	1184001.6751647	100	del	1184003.8828614	nan	nan	nan	nan	nan
202.830078125	0.0	80	415396	14	90	90	1	1	1184006.6424545	1184006.6429637	80	1184009.7104165	1184009.7108872	40	1184013.0180627	1184013.0185006	100	del	1184014.1796712	1184014.6937566	1184014.6942406	120.0	3.0	1184016.0671537
205.89794921875	0.0	40	421679	14	90	90	1	1	1184006.6424545	1184006.6429637	80	1184009.7104165	1184009.7108872	40	1184013.0180627	1184013.0185006	100	del	1184014.1796712	1184014.6937566	1184014.6942406	120.0	3.0	1184016.0671537
209.20556640625	0.0	100	428453	14	90	90	1	1	1184006.6424545	1184006.6429637	80	1184009.7104165	1184009.7108872	40	1184013.0180627	1184013.0185006	100	del	1184014.1796712	1184014.6937566	1184014.6942406	120.0	3.0	1184016.0671537
210.88134765625	0.0	120	431885	14	90	90	1	1	1184006.6424545	1184006.6429637	80	1184009.7104165	1184009.7108872	40	1184013.0180627	1184013.0185006	100	del	1184014.1796712	1184014.6937566	1184014.6942406	120.0	3.0	1184016.0671537
214.388671875	0.0	80	439068	15	100	560	0	1	1184018.2014534	1184018.2019174	80	1184021.4014472	1184021.4020232	40	1184024.7062867	1184024.706764	100	del	1184030.4596825	nan	nan	nan	nan	nan
217.5888671875	0.0	40	445622	15	100	560	0	1	1184018.2014534	1184018.2019174	80	1184021.4014472	1184021.4020232	40	1184024.7062867	1184024.706764	100	del	1184030.4596825	nan	nan	nan	nan	nan
220.8935546875	0.0	100	452390	15	100	560	0	1	1184018.2014534	1184018.2019174	80	1184021.4014472	1184021.4020232	40	1184024.7062867	1184024.706764	100	del	1184030.4596825	nan	nan	nan	nan	nan
229.28955078125	0.0	80	469585	16	100	90	1	1	1184033.1028927	1184033.1033736	80	1184036.2555457	1184036.2560182	40	1184039.5774035	1184039.577884	100	del	1184043.7634263	1184044.275991	1184044.276464	120.0	3.0	1184045.4754645
232.4423828125	0.0	40	476042	16	100	90	1	1	1184033.1028927	1184033.1033736	80	1184036.2555457	1184036.2560182	40	1184039.5774035	1184039.577884	100	del	1184043.7634263	1184044.275991	1184044.276464	120.0	3.0	1184045.4754645
235.76416015625	0.0	100	482845	16	100	90	1	1	1184033.1028927	1184033.1033736	80	1184036.2555457	1184036.2560182	40	1184039.5774035	1184039.577884	100	del	1184043.7634263	1184044.275991	1184044.276464	120.0	3.0	1184045.4754645
240.46240234375	0.0	120	492467	16	100	90	1	1	1184033.1028927	1184033.1033736	80	1184036.2555457	1184036.2560182	40	1184039.5774035	1184039.577884	100	del	1184043.7634263	1184044.275991	1184044.276464	120.0	3.0	1184045.4754645
243.81103515625	0.0	80	499325	17	80	60	0	1	1184047.6244335	1184047.6249409	80	1184051.0444985	1184051.0449725	40	1184054.5499079	1184054.550468	100	imm	1184056.1074631	nan	nan	nan	nan	nan
247.23095703125	0.0	40	506329	17	80	60	0	1	1184047.6244335	1184047.6249409	80	1184051.0444985	1184051.0449725	40	1184054.5499079	1184054.550468	100	imm	1184056.1074631	nan	nan	nan	nan	nan
250.736328125	0.0	100	513508	17	80	60	0	1	1184047.6244335	1184047.6249409	80	1184051.0444985	1184051.0449725	40	1184054.5499079	1184054.550468	100	imm	1184056.1074631	nan	nan	nan	nan	nan
255.1767578125	0.0	80	522602	18	93	60	0	1	1184058.9904474	1184058.9909813	80	1184062.1698147	1184062.1703071	40	1184065.4751255	1184065.4756476	100	imm	1184066.4913684	nan	nan	nan	nan	nan
258.35595703125	0.0	40	529113	18	93	60	0	1	1184058.9904474	1184058.9909813	80	1184062.1698147	1184062.1703071	40	1184065.4751255	1184065.4756476	100	imm	1184066.4913684	nan	nan	nan	nan	nan
261.6611328125	0.0	100	535882	18	93	60	0	1	1184058.9904474	1184058.9909813	80	1184062.1698147	1184062.1703071	40	1184065.4751255	1184065.4756476	100	imm	1184066.4913684	nan	nan	nan	nan	nan
265.2490234375	0.0	80	543230	19	73	560	0	1	1184069.063086	1184069.0636844	80	1184072.5239572	1184072.5244035	40	1184075.9769092	1184075.9773227	100	del	1184076.8272232	nan	nan	nan	nan	nan
268.70947265625	0.0	40	550317	19	73	560	0	1	1184069.063086	1184069.0636844	80	1184072.5239572	1184072.5244035	40	1184075.9769092	1184075.9773227	100	del	1184076.8272232	nan	nan	nan	nan	nan
272.16259765625	0.0	100	557389	19	73	560	0	1	1184069.063086	1184069.0636844	80	1184072.5239572	1184072.5244035	40	1184075.9769092	1184075.9773227	100	del	1184076.8272232	nan	nan	nan	nan	nan
275.93994140625	0.0	80	565125	20	97	90	1	0	1184079.7545742	1184079.7550774	80	1184082.8924907	1184082.8929439	40	1184086.2034431	1184086.2039411	100	del	1184086.9550509	1184087.4683947	1184087.4688878	120.0	3.0	1184088.5790063
279.078125	0.0	40	571552	20	97	90	1	0	1184079.7545742	1184079.7550774	80	1184082.8924907	1184082.8929439	40	1184086.2034431	1184086.2039411	100	del	1184086.9550509	1184087.4683947	1184087.4688878	120.0	3.0	1184088.5790063
282.388671875	0.0	100	578332	20	97	90	1	0	1184079.7545742	1184079.7550774	80	1184082.8924907	1184082.8929439	40	1184086.2034431	1184086.2039411	100	del	1184086.9550509	1184087.4683947	1184087.4688878	120.0	3.0	1184088.5790063
283.65380859375	0.0	120	580923	20	97	90	1	0	1184079.7545742	1184079.7550774	80	1184082.8924907	1184082.8929439	40	1184086.2034431	1184086.2039411	100	del	1184086.9550509	1184087.4683947	1184087.4688878	120.0	3.0	1184088.5790063
295.82763671875	0.0	80	605855	21	57	560	0	1	1184099.6425376	1184099.6431823	80	1184102.8632183	1184102.8636719	40	1184106.0334275	1184106.0339349	100	imm	1184106.9798023	nan	nan	nan	nan	nan
299.04833984375	0.0	40	612451	21	57	560	0	1	1184099.6425376	1184099.6431823	80	1184102.8632183	1184102.8636719	40	1184106.0334275	1184106.0339349	100	imm	1184106.9798023	nan	nan	nan	nan	nan
302.21826171875	0.0	100	618943	21	57	560	0	1	1184099.6425376	1184099.6431823	80	1184102.8632183	1184102.8636719	40	1184106.0334275	1184106.0339349	100	imm	1184106.9798023	nan	nan	nan	nan	nan
305.763671875	0.0	80	626204	22	100	400	1	1	1184109.5788742	1184109.5793531	80	1184112.6765664	1184112.6770754	40	1184115.9014013	1184115.9018956	100	del	1184119.7006366	1184120.211289	1184120.2116638	120.0	3.0	1184121.2591434
308.861328125	0.0	40	632548	22	100	400	1	1	1184109.5788742	1184109.5793531	80	1184112.6765664	1184112.6770754	40	1184115.9014013	1184115.9018956	100	del	1184119.7006366	1184120.211289	1184120.2116638	120.0	3.0	1184121.2591434
312.0859375	0.0	100	639152	22	100	400	1	1	1184109.5788742	1184109.5793531	80	1184112.6765664	1184112.6770754	40	1184115.9014013	1184115.9018956	100	del	1184119.7006366	1184120.211289	1184120.2116638	120.0	3.0	1184121.2591434
316.3955078125	0.0	120	647978	22	100	400	1	1	1184109.5788742	1184109.5793531	80	1184112.6765664	1184112.6770754	40	1184115.9014013	1184115.9018956	100	del	1184119.7006366	1184120.211289	1184120.2116638	120.0	3.0	1184121.2591434
319.50634765625	0.0	80	654349	23	87	290	0	1	1184123.3220645	1184123.3225409	80	1184126.6290584	1184126.6295574	40	1184129.8784004	1184129.8788974	100	del	1184130.5869872	nan	nan	nan	nan	nan
322.8134765625	0.0	40	661122	23	87	290	0	1	1184123.3220645	1184123.3225409	80	1184126.6290584	1184126.6295574	40	1184129.8784004	1184129.8788974	100	del	1184130.5869872	nan	nan	nan	nan	nan
326.0625	0.0	100	667776	23	87	290	0	1	1184123.3220645	1184123.3225409	80	1184126.6290584	1184126.6295574	40	1184129.8784004	1184129.8788974	100	del	1184130.5869872	nan	nan	nan	nan	nan
329.63623046875	0.0	80	675095	24	63	60	0	1	1184133.4520527	1184133.4525682	80	1184136.8100315	1184136.8104284	40	1184140.142785	1184140.1433115	100	imm	1184141.866978	nan	nan	nan	nan	nan
332.994140625	0.0	40	681972	24	63	60	0	1	1184133.4520527	1184133.4525682	80	1184136.8100315	1184136.8104284	40	1184140.142785	1184140.1433115	100	imm	1184141.866978	nan	nan	nan	nan	nan
336.32666015625	0.0	100	688797	24	63	60	0	1	1184133.4520527	1184133.4525682	80	1184136.8100315	1184136.8104284	40	1184140.142785	1184140.1433115	100	imm	1184141.866978	nan	nan	nan	nan	nan
340.5859375	0.0	80	697520	25	77	400	1	0	1184144.4022868	1184144.4027712	80	1184147.4453104	1184147.4458124	40	1184150.6180106	1184150.6184911	100	del	1184151.6352514	1184152.1486205	1184152.1491274	120.0	3.0	1184153.5792238
343.62890625	0.0	40	703752	25	77	400	1	0	1184144.4022868	1184144.4027712	80	1184147.4453104	1184147.4458124	40	1184150.6180106	1184150.6184911	100	del	1184151.6352514	1184152.1486205	1184152.1491274	120.0	3.0	1184153.5792238
346.8017578125	0.0	100	710250	25	77	400	1	0	1184144.4022868	1184144.4027712	80	1184147.4453104	1184147.4458124	40	1184150.6180106	1184150.6184911	100	del	1184151.6352514	1184152.1486205	1184152.1491274	120.0	3.0	1184153.5792238
348.33203125	0.0	120	713384	25	77	400	1	0	1184144.4022868	1184144.4027712	80	1184147.4453104	1184147.4458124	40	1184150.6180106	1184150.6184911	100	del	1184151.6352514	1184152.1486205	1184152.1491274	120.0	3.0	1184153.5792238
352.04443359375	0.0	80	720987	26	80	200	1	1	1184155.8611239	1184155.8615426	80	1184159.1958486	1184159.1962982	40	1184162.4129051	1184162.4133955	100	del	1184164.6836065	1184165.1932181	1184165.1935101	120.0	3.0	1184165.8428269
355.37939453125	0.0	40	727817	26	80	200	1	1	1184155.8611239	1184155.8615426	80	1184159.1958486	1184159.1962982	40	1184162.4129051	1184162.4133955	100	del	1184164.6836065	1184165.1932181	1184165.1935101	120.0	3.0	1184165.8428269
358.59619140625	0.0	100	734405	26	80	200	1	1	1184155.8611239	1184155.8615426	80	1184159.1958486	1184159.1962982	40	1184162.4129051	1184162.4133955	100	del	1184164.6836065	1184165.1932181	1184165.1935101	120.0	3.0	1184165.8428269
361.37646484375	0.0	120	740099	26	80	200	1	1	1184155.8611239	1184155.8615426	80	1184159.1958486	1184159.1962982	40	1184162.4129051	1184162.4133955	100	del	1184164.6836065	1184165.1932181	1184165.1935101	120.0	3.0	1184165.8428269
364.453125	0.0	80	746400	27	63	20	0	0	1184168.2701929	1184168.2706885	80	1184171.6372774	1184171.6377927	40	1184175.1346967	1184175.1352985	100	imm	1184177.1795069	nan	nan	nan	nan	nan
367.8203125	0.0	40	753296	27	63	20	0	0	1184168.2701929	1184168.2706885	80	1184171.6372774	1184171.6377927	40	1184175.1346967	1184175.1352985	100	imm	1184177.1795069	nan	nan	nan	nan	nan
371.31787109375	0.0	100	760459	27	63	20	0	0	1184168.2701929	1184168.2706885	80	1184171.6372774	1184171.6377927	40	1184175.1346967	1184175.1352985	100	imm	1184177.1795069	nan	nan	nan	nan	nan
376.146484375	0.0	80	770348	28	73	60	0	0	1184179.9636305	1184179.9641046	80	1184183.1348048	1184183.1353186	40	1184186.201155	1184186.2016439	100	del	1184188.5550907	nan	nan	nan	nan	nan
379.3173828125	0.0	40	776842	28	73	60	0	0	1184179.9636305	1184179.9641046	80	1184183.1348048	1184183.1353186	40	1184186.201155	1184186.2016439	100	del	1184188.5550907	nan	nan	nan	nan	nan
382.3837890625	0.0	100	783122	28	73	60	0	0	1184179.9636305	1184179.9641046	80	1184183.1348048	1184183.1353186	40	1184186.201155	1184186.2016439	100	del	1184188.5550907	nan	nan	nan	nan	nan
387.56005859375	0.0	80	793723	29	60	20	0	0	1184191.3775556	1184191.3780481	80	1184194.7744127	1184194.7749102	40	1184198.0002723	1184198.0007664	100	imm	1184198.5311593	nan	nan	nan	nan	nan
390.95703125	0.0	40	800680	29	60	20	0	0	1184191.3775556	1184191.3780481	80	1184194.7744127	1184194.7749102	40	1184198.0002723	1184198.0007664	100	imm	1184198.5311593	nan	nan	nan	nan	nan
394.1826171875	0.0	100	807286	29	60	20	0	0	1184191.3775556	1184191.3780481	80	1184194.7744127	1184194.7749102	40	1184198.0002723	1184198.0007664	100	imm	1184198.5311593	nan	nan	nan	nan	nan
397.27685546875	0.0	80	813623	30	60	60	0	1	1184201.0944254	1184201.0949151	80	1184204.2356914	1184204.2361999	40	1184207.3206908	1184207.3210035	100	del	1184208.5639452	nan	nan	nan	nan	nan
400.41796875	0.0	40	820056	30	60	60	0	1	1184201.0944254	1184201.0949151	80	1184204.2356914	1184204.2361999	40	1184207.3206908	1184207.3210035	100	del	1184208.5639452	nan	nan	nan	nan	nan
403.50244140625	0.0	100	826373	30	60	60	0	1	1184201.0944254	1184201.0949151	80	1184204.2356914	1184204.2361999	40	1184207.3206908	1184207.3210035	100	del	1184208.5639452	nan	nan	nan	nan	nan
407.404296875	0.0	80	834364	31	60	290	0	1	1184211.2222728	1184211.2227682	80	1184214.448659	1184214.4489936	40	1184217.7254664	1184217.7259614	100	del	1184218.3792492	nan	nan	nan	nan	nan
410.63037109375	0.0	40	840971	31	60	290	0	1	1184211.2222728	1184211.2227682	80	1184214.448659	1184214.4489936	40	1184217.7254664	1184217.7259614	100	del	1184218.3792492	nan	nan	nan	nan	nan
413.9072265625	0.0	100	847682	31	60	290	0	1	1184211.2222728	1184211.2227682	80	1184214.448659	1184214.4489936	40	1184217.7254664	1184217.7259614	100	del	1184218.3792492	nan	nan	nan	nan	nan
417.30712890625	0.0	80	854645	32	53	30	1	1	1184221.1254092	1184221.1259385	80	1184224.570615	1184224.5711031	40	1184227.8390697	1184227.8393989	100	imm	1184228.9488073	1184229.4629163	1184229.4634949	120.0	3.0	1184230.9644082
420.751953125	0.0	40	861700	32	53	30	1	1	1184221.1254092	1184221.1259385	80	1184224.570615	1184224.5711031	40	1184227.8390697	1184227.8393989	100	imm	1184228.9488073	1184229.4629163	1184229.4634949	120.0	3.0	1184230.9644082
424.0205078125	0.0	100	868394	32	53	30	1	1	1184221.1254092	1184221.1259385	80	1184224.570615	1184224.5711031	40	1184227.8390697	1184227.8393989	100	imm	1184228.9488073	1184229.4629163	1184229.4634949	120.0	3.0	1184230.9644082
425.64453125	0.0	120	871720	32	53	30	1	1	1184221.1254092	1184221.1259385	80	1184224.570615	1184224.5711031	40	1184227.8390697	1184227.8393989	100	imm	1184228.9488073	1184229.4629163	1184229.4634949	120.0	3.0	1184230.9644082
429.6337890625	0.0	80	879890	33	93	30	1	0	1184233.4525672	1184233.4530513	80	1184236.7795497	1184236.7800185	40	1184240.2711373	1184240.2716482	100	imm	1184241.0363696	1184241.5502984	1184241.5507993	120.0	3.0	1184243.1237524
432.9609375	0.0	40	886704	33	93	30	1	0	1184233.4525672	1184233.4530513	80	1184236.7795497	1184236.7800185	40	1184240.2711373	1184240.2716482	100	imm	1184241.0363696	1184241.5502984	1184241.5507993	120.0	3.0	1184243.1237524
436.4521484375	0.0	100	893854	33	93	30	1	0	1184233.4525672	1184233.4530513	80	1184236.7795497	1184236.7800185	40	1184240.2711373	1184240.2716482	100	imm	1184241.0363696	1184241.5502984	1184241.5507993	120.0	3.0	1184243.1237524
437.7314453125	0.0	120	896474	33	93	30	1	0	1184233.4525672	1184233.4530513	80	1184236.7795497	1184236.7800185	40	1184240.2711373	1184240.2716482	100	imm	1184241.0363696	1184241.5502984	1184241.5507993	120.0	3.0	1184243.1237524
441.439453125	0.0	80	904068	34	63	30	1	0	1184245.2578922	1184245.2580703	80	1184248.6005588	1184248.6007381	40	1184251.754039	1184251.7543296	100	imm	1184253.1791716	1184253.6923322	1184253.6929436	120.0	3.0	1184255.5714839
444.78173828125	0.0	40	910913	34	63	30	1	0	1184245.2578922	1184245.2580703	80	1184248.6005588	1184248.6007381	40	1184251.754039	1184251.7543296	100	imm	1184253.1791716	1184253.6923322	1184253.6929436	120.0	3.0	1184255.5714839
447.9345703125	0.0	100	917370	34	63	30	1	0	1184245.2578922	1184245.2580703	80	1184248.6005588	1184248.6007381	40	1184251.754039	1184251.7543296	100	imm	1184253.1791716	1184253.6923322	1184253.6929436	120.0	3.0	1184255.5714839
449.873046875	0.0	120	921340	34	63	30	1	0	1184245.2578922	1184245.2580703	80	1184248.6005588	1184248.6007381	40	1184251.754039	1184251.7543296	100	imm	1184253.1791716	1184253.6923322	1184253.6929436	120.0	3.0	1184255.5714839
454.103515625	0.0	80	930004	35	67	30	1	0	1184257.9226707	1184257.9231867	80	1184261.278963	1184261.2794365	40	1184264.3263348	1184264.3269669	100	imm	1184265.955742	1184266.4680985	1184266.468569	120.0	3.0	1184269.0838236
457.45947265625	0.0	40	936877	35	67	30	1	0	1184257.9226707	1184257.9231867	80	1184261.278963	1184261.2794365	40	1184264.3263348	1184264.3269669	100	imm	1184265.955742	1184266.4680985	1184266.468569	120.0	3.0	1184269.0838236
460.5068359375	0.0	100	943118	35	67	30	1	0	1184257.9226707	1184257.9231867	80	1184261.278963	1184261.2794365	40	1184264.3263348	1184264.3269669	100	imm	1184265.955742	1184266.4680985	1184266.468569	120.0	3.0	1184269.0838236
462.6484375	0.0	120	947504	35	67	30	1	0	1184257.9226707	1184257.9231867	80	1184261.278963	1184261.2794365	40	1184264.3263348	1184264.3269669	100	imm	1184265.955742	1184266.4680985	1184266.468569	120.0	3.0	1184269.0838236
467.4052734375	0.0	80	957246	36	57	60	0	1	1184271.2249479	1184271.2252741	80	1184274.3443394	1184274.3447937	40	1184277.6918178	1184277.6923067	100	del	1184279.7712868	nan	nan	nan	nan	nan
470.5244140625	0.0	40	963634	36	57	60	0	1	1184271.2249479	1184271.2252741	80	1184274.3443394	1184274.3447937	40	1184277.6918178	1184277.6923067	100	del	1184279.7712868	nan	nan	nan	nan	nan
473.8720703125	0.0	100	970490	36	57	60	0	1	1184271.2249479	1184271.2252741	80	1184274.3443394	1184274.3447937	40	1184277.6918178	1184277.6923067	100	del	1184279.7712868	nan	nan	nan	nan	nan
478.89111328125	0.0	80	980769	37	70	140	0	0	1184282.7112976	1184282.7117288	80	1184285.8912934	1184285.8917348	40	1184289.2945927	1184289.2951708	100	del	1184290.1794197	nan	nan	nan	nan	nan
482.0712890625	0.0	40	987282	37	70	140	0	0	1184282.7112976	1184282.7117288	80	1184285.8912934	1184285.8917348	40	1184289.2945927	1184289.2951708	100	del	1184290.1794197	nan	nan	nan	nan	nan
485.474609375	0.0	100	994252	37	70	140	0	0	1184282.7112976	1184282.7117288	80	1184285.8912934	1184285.8917348	40	1184289.2945927	1184289.2951708	100	del	1184290.1794197	nan	nan	nan	nan	nan
489.2138671875	0.0	80	1001910	38	63	90	1	1	1184293.034434	1184293.0349203	80	1184296.0454924	1184296.0460496	40	1184299.3602995	1184299.3608191	100	del	1184301.235015	1184301.7487467	1184301.7492882	120.0	2.0	1184302.8996407
492.22509765625	0.0	40	1008077	38	63	90	1	1	1184293.034434	1184293.0349203	80	1184296.0454924	1184296.0460496	40	1184299.3602995	1184299.3608191	100	del	1184301.235015	1184301.7487467	1184301.7492882	120.0	2.0	1184302.8996407
495.53955078125	0.0	100	1014865	38	63	90	1	1	1184293.034434	1184293.0349203	80	1184296.0454924	1184296.0460496	40	1184299.3602995	1184299.3608191	100	del	1184301.235015	1184301.7487467	1184301.7492882	120.0	2.0	1184302.8996407
497.92822265625	0.0	120	1019757	38	63	90	1	1	1184293.034434	1184293.0349203	80	1184296.0454924	1184296.0460496	40	1184299.3602995	1184299.3608191	100	del	1184301.235015	1184301.7487467	1184301.7492882	120.0	2.0	1184302.8996407
501.28857421875	0.0	80	1026639	39	80	290	0	0	1184305.1093904	1184305.1099048	80	1184308.5748243	1184308.5752811	40	1184311.5889314	1184311.5894326	100	del	1184314.2678771	nan	nan	nan	nan	nan
504.75390625	0.0	40	1033736	39	80	290	0	0	1184305.1093904	1184305.1099048	80	1184308.5748243	1184308.5752811	40	1184311.5889314	1184311.5894326	100	del	1184314.2678771	nan	nan	nan	nan	nan
507.76806640625	0.0	100	1039909	39	80	290	0	0	1184305.1093904	1184305.1099048	80	1184308.5748243	1184308.5752811	40	1184311.5889314	1184311.5894326	100	del	1184314.2678771	nan	nan	nan	nan	nan
513.1953125	0.0	80	1051024	40	83	30	1	1	1184317.016157	1184317.0166562	80	1184320.2371058	1184320.2376042	40	1184323.4807221	1184323.4812289	100	imm	1184325.2530509	1184325.7661133	1184325.7667184	120.0	3.0	1184327.7152726
516.416015625	0.0	40	1057620	40	83	30	1	1	1184317.016157	1184317.0166562	80	1184320.2371058	1184320.2376042	40	1184323.4807221	1184323.4812289	100	imm	1184325.2530509	1184325.7661133	1184325.7667184	120.0	3.0	1184327.7152726
519.65966796875	0.0	100	1064263	40	83	30	1	1	1184317.016157	1184317.0166562	80	1184320.2371058	1184320.2376042	40	1184323.4807221	1184323.4812289	100	imm	1184325.2530509	1184325.7661133	1184325.7667184	120.0	3.0	1184327.7152726
521.94482421875	0.0	120	1068943	40	83	30	1	1	1184317.016157	1184317.0166562	80	1184320.2371058	1184320.2376042	40	1184323.4807221	1184323.4812289	100	imm	1184325.2530509	1184325.7661133	1184325.7667184	120.0	3.0	1184327.7152726
553.36669921875	0.0	80	1133295	41	90	140	0	0	1184357.1887309	1184357.1892073	80	1184360.3576918	1184360.3581795	40	1184363.7639612	1184363.7645828	100	del	1184364.6035638	nan	nan	nan	nan	nan
556.53564453125	0.0	40	1139785	41	90	140	0	0	1184357.1887309	1184357.1892073	80	1184360.3576918	1184360.3581795	40	1184363.7639612	1184363.7645828	100	del	1184364.6035638	nan	nan	nan	nan	nan
559.94189453125	0.0	100	1146761	41	90	140	0	0	1184357.1887309	1184357.1892073	80	1184360.3576918	1184360.3581795	40	1184363.7639612	1184363.7645828	100	del	1184364.6035638	nan	nan	nan	nan	nan
563.52880859375	0.0	80	1154107	42	87	60	0	1	1184367.3511148	1184367.3513575	80	1184370.3762614	1184370.3767216	40	1184373.4787051	1184373.4793414	100	del	1184374.4670634	nan	nan	nan	nan	nan
566.5537109375	0.0	40	1160302	42	87	60	0	1	1184367.3511148	1184367.3513575	80	1184370.3762614	1184370.3767216	40	1184373.4787051	1184373.4793414	100	del	1184374.4670634	nan	nan	nan	nan	nan
569.65625	0.0	100	1166656	42	87	60	0	1	1184367.3511148	1184367.3513575	80	1184370.3762614	1184370.3767216	40	1184373.4787051	1184373.4793414	100	del	1184374.4670634	nan	nan	nan	nan	nan
573.52392578125	0.0	80	1174577	43	50	140	0	0	1184377.3464134	1184377.3470251	80	1184380.5906969	1184380.5911902	40	1184383.6810961	1184383.6816128	100	del	1184384.5086598	nan	nan	nan	nan	nan
576.76806640625	0.0	40	1181221	43	50	140	0	0	1184377.3464134	1184377.3470251	80	1184380.5906969	1184380.5911902	40	1184383.6810961	1184383.6816128	100	del	1184384.5086598	nan	nan	nan	nan	nan
579.8583984375	0.0	100	1187550	43	50	140	0	0	1184377.3464134	1184377.3470251	80	1184380.5906969	1184380.5911902	40	1184383.6810961	1184383.6816128	100	del	1184384.5086598	nan	nan	nan	nan	nan
583.3740234375	0.0	80	1194750	44	93	400	1	1	1184387.1969245	1184387.1974229	80	1184390.5081001	1184390.5085443	40	1184393.6182076	1184393.6186564	100	del	1184394.4031535	1184394.91811	1184394.9193422	120.0	3.0	1184396.6756941
586.68505859375	0.0	40	1201531	44	93	400	1	1	1184387.1969245	1184387.1974229	80	1184390.5081001	1184390.5085443	40	1184393.6182076	1184393.6186564	100	del	1184394.4031535	1184394.91811	1184394.9193422	120.0	3.0	1184396.6756941
589.794921875	0.0	100	1207900	44	93	400	1	1	1184387.1969245	1184387.1974229	80	1184390.5081001	1184390.5085443	40	1184393.6182076	1184393.6186564	100	del	1184394.4031535	1184394.91811	1184394.9193422	120.0	3.0	1184396.6756941
591.0947265625	0.0	120	1210562	44	93	400	1	1	1184387.1969245	1184387.1974229	80	1184390.5081001	1184390.5085443	40	1184393.6182076	1184393.6186564	100	del	1184394.4031535	1184394.91811	1184394.9193422	120.0	3.0	1184396.6756941
595.2373046875	0.0	80	1219046	45	57	20	0	1	1184399.0607407	1184399.0612613	80	1184402.1871634	1184402.1874011	40	1184405.6582887	1184405.6588124	100	imm	1184406.540127	nan	nan	nan	nan	nan
598.3642578125	0.0	40	1225450	45	57	20	0	1	1184399.0607407	1184399.0612613	80	1184402.1871634	1184402.1874011	40	1184405.6582887	1184405.6588124	100	imm	1184406.540127	nan	nan	nan	nan	nan
601.8349609375	0.0	100	1232558	45	57	20	0	1	1184399.0607407	1184399.0612613	80	1184402.1871634	1184402.1874011	40	1184405.6582887	1184405.6588124	100	imm	1184406.540127	nan	nan	nan	nan	nan
605.369140625	0.0	80	1239796	46	97	30	1	1	1184409.1926815	1184409.1931918	80	1184412.5830201	1184412.5835058	40	1184415.6909431	1184415.6914483	100	imm	1184420.3796663	1184420.8918965	1184420.8924323	120.0	3.0	1184423.0039173
608.75927734375	0.0	40	1246739	46	97	30	1	1	1184409.1926815	1184409.1931918	80	1184412.5830201	1184412.5835058	40	1184415.6909431	1184415.6914483	100	imm	1184420.3796663	1184420.8918965	1184420.8924323	120.0	3.0	1184423.0039173
611.8671875	0.0	100	1253104	46	97	30	1	1	1184409.1926815	1184409.1931918	80	1184412.5830201	1184412.5835058	40	1184415.6909431	1184415.6914483	100	imm	1184420.3796663	1184420.8918965	1184420.8924323	120.0	3.0	1184423.0039173
617.06787109375	0.0	120	1263755	46	97	30	1	1	1184409.1926815	1184409.1931918	80	1184412.5830201	1184412.5835058	40	1184415.6909431	1184415.6914483	100	imm	1184420.3796663	1184420.8918965	1184420.8924323	120.0	3.0	1184423.0039173
621.34033203125	0.0	80	1272505	47	53	60	0	0	1184425.1644645	1184425.1649933	80	1184428.2174351	1184428.2178471	40	1184431.5185632	1184431.519031	100	del	1184432.8439388	nan	nan	nan	nan	nan
624.3935546875	0.0	40	1278758	47	53	60	0	0	1184425.1644645	1184425.1649933	80	1184428.2174351	1184428.2178471	40	1184431.5185632	1184431.519031	100	del	1184432.8439388	nan	nan	nan	nan	nan
627.6943359375	0.0	100	1285518	47	53	60	0	0	1184425.1644645	1184425.1649933	80	1184428.2174351	1184428.2178471	40	1184431.5185632	1184431.519031	100	del	1184432.8439388	nan	nan	nan	nan	nan
631.87890625	0.0	80	1294088	48	80	20	0	0	1184435.7033756	1184435.703904	80	1184438.9842952	1184438.9847335	40	1184442.2141715	1184442.2147325	100	imm	1184445.4036156	nan	nan	nan	nan	nan
635.15966796875	0.0	40	1300807	48	80	20	0	0	1184435.7033756	1184435.703904	80	1184438.9842952	1184438.9847335	40	1184442.2141715	1184442.2147325	100	imm	1184445.4036156	nan	nan	nan	nan	nan
638.3896484375	0.0	100	1307422	48	80	20	0	0	1184435.7033756	1184435.703904	80	1184438.9842952	1184438.9847335	40	1184442.2141715	1184442.2147325	100	imm	1184445.4036156	nan	nan	nan	nan	nan
644.41796875	0.0	80	1319768	49	70	30	1	0	1184448.2428777	1184448.2433771	80	1184451.5742983	1184451.5747878	40	1184454.9272114	1184454.9277189	100	imm	1184455.8672607	1184456.3809668	1184456.3814577	120.0	3.0	1184457.355804
647.74951171875	0.0	40	1326591	49	70	30	1	0	1184448.2428777	1184448.2433771	80	1184451.5742983	1184451.5747878	40	1184454.9272114	1184454.9277189	100	imm	1184455.8672607	1184456.3809668	1184456.3814577	120.0	3.0	1184457.355804
651.1025390625	0.0	100	1333458	49	70	30	1	0	1184448.2428777	1184448.2433771	80	1184451.5742983	1184451.5747878	40	1184454.9272114	1184454.9277189	100	imm	1184455.8672607	1184456.3809668	1184456.3814577	120.0	3.0	1184457.355804
652.55615234375	0.0	120	1336435	49	70	30	1	0	1184448.2428777	1184448.2433771	80	1184451.5742983	1184451.5747878	40	1184454.9272114	1184454.9277189	100	imm	1184455.8672607	1184456.3809668	1184456.3814577	120.0	3.0	1184457.355804
655.865234375	0.0	80	1343212	50	97	60	0	1	1184459.6899831	1184459.6904373	80	1184463.1705855	1184463.1710715	40	1184466.2895491	1184466.2900548	100	del	1184466.8595744	nan	nan	nan	nan	nan
659.345703125	0.0	40	1350340	50	97	60	0	1	1184459.6899831	1184459.6904373	80	1184463.1705855	1184463.1710715	40	1184466.2895491	1184466.2900548	100	del	1184466.8595744	nan	nan	nan	nan	nan
662.46435546875	0.0	100	1356727	50	97	60	0	1	1184459.6899831	1184459.6904373	80	1184463.1705855	1184463.1710715	40	1184466.2895491	1184466.2900548	100	del	1184466.8595744	nan	nan	nan	nan	nan
665.90625	0.0	80	1363776	51	57	290	0	0	1184469.7313574	1184469.7320296	80	1184472.8580273	1184472.8585176	40	1184475.930619	1184475.9311747	100	del	1184478.0919948	nan	nan	nan	nan	nan
669.03271484375	0.0	40	1370179	51	57	290	0	0	1184469.7313574	1184469.7320296	80	1184472.8580273	1184472.8585176	40	1184475.930619	1184475.9311747	100	del	1184478.0919948	nan	nan	nan	nan	nan
672.10498046875	0.0	100	1376471	51	57	290	0	0	1184469.7313574	1184469.7320296	80	1184472.8580273	1184472.8585176	40	1184475.930619	1184475.9311747	100	del	1184478.0919948	nan	nan	nan	nan	nan
677.087890625	0.0	80	1386676	52	93	90	1	1	1184480.9133256	1184480.9137443	80	1184484.1464911	1184484.146941	40	1184487.3909044	1184487.3913923	100	del	1184488.0451271	1184488.5584828	1184488.5589794	120.0	3.0	1184489.6118336
680.32080078125	0.0	40	1393297	52	93	90	1	1	1184480.9133256	1184480.9137443	80	1184484.1464911	1184484.146941	40	1184487.3909044	1184487.3913923	100	del	1184488.0451271	1184488.5584828	1184488.5589794	120.0	3.0	1184489.6118336
683.56494140625	0.0	100	1399941	52	93	90	1	1	1184480.9133256	1184480.9137443	80	1184484.1464911	1184484.146941	40	1184487.3909044	1184487.3913923	100	del	1184488.0451271	1184488.5584828	1184488.5589794	120.0	3.0	1184489.6118336
684.73291015625	0.0	120	1402333	52	93	90	1	1	1184480.9133256	1184480.9137443	80	1184484.1464911	1184484.146941	40	1184487.3909044	1184487.3913923	100	del	1184488.0451271	1184488.5584828	1184488.5589794	120.0	3.0	1184489.6118336
688.13330078125	0.0	80	1409297	53	97	9	1	1	1184491.9593013	1184491.9597553	80	1184495.3525375	1184495.353015	40	1184498.541071	1184498.5415762	100	imm	1184499.3158406	1184499.8288167	1184499.8293138	120.0	2.0	1184500.9794925
691.5263671875	0.0	40	1416246	53	97	9	1	1	1184491.9593013	1184491.9597553	80	1184495.3525375	1184495.353015	40	1184498.541071	1184498.5415762	100	imm	1184499.3158406	1184499.8288167	1184499.8293138	120.0	2.0	1184500.9794925
694.71484375	0.0	100	1422776	53	97	9	1	1	1184491.9593013	1184491.9597553	80	1184495.3525375	1184495.353015	40	1184498.541071	1184498.5415762	100	imm	1184499.3158406	1184499.8288167	1184499.8293138	120.0	2.0	1184500.9794925
696.0029296875	0.0	120	1425414	53	97	9	1	1	1184491.9593013	1184491.9597553	80	1184495.3525375	1184495.353015	40	1184498.541071	1184498.5415762	100	imm	1184499.3158406	1184499.8288167	1184499.8293138	120.0	2.0	1184500.9794925
699.5	0.0	80	1432576	54	80	90	1	1	1184503.326208	1184503.3267051	80	1184506.5421115	1184506.5426288	40	1184509.9763338	1184509.9768633	100	del	1184510.8531382	1184511.3673371	1184511.3677704	120.0	3.0	1184512.4351897
702.7158203125	0.0	40	1439162	54	80	90	1	1	1184503.326208	1184503.3267051	80	1184506.5421115	1184506.5426288	40	1184509.9763338	1184509.9768633	100	del	1184510.8531382	1184511.3673371	1184511.3677704	120.0	3.0	1184512.4351897
706.14990234375	0.0	100	1446195	54	80	90	1	1	1184503.326208	1184503.3267051	80	1184506.5421115	1184506.5426288	40	1184509.9763338	1184509.9768633	100	del	1184510.8531382	1184511.3673371	1184511.3677704	120.0	3.0	1184512.4351897
707.541015625	0.0	120	1449044	54	80	90	1	1	1184503.326208	1184503.3267051	80	1184506.5421115	1184506.5426288	40	1184509.9763338	1184509.9768633	100	del	1184510.8531382	1184511.3673371	1184511.3677704	120.0	3.0	1184512.4351897
711.04150390625	0.0	80	1456213	55	67	9	1	0	1184514.8680445	1184514.8685235	80	1184518.0037721	1184518.0042656	40	1184521.3236375	1184521.3241237	100	imm	1184522.8437231	1184523.3594901	1184523.3601387	120.0	3.0	1184524.4594719
714.17724609375	0.0	40	1462635	55	67	9	1	0	1184514.8680445	1184514.8685235	80	1184518.0037721	1184518.0042656	40	1184521.3236375	1184521.3241237	100	imm	1184522.8437231	1184523.3594901	1184523.3601387	120.0	3.0	1184524.4594719
717.4970703125	0.0	100	1469434	55	67	9	1	0	1184514.8680445	1184514.8685235	80	1184518.0037721	1184518.0042656	40	1184521.3236375	1184521.3241237	100	imm	1184522.8437231	1184523.3594901	1184523.3601387	120.0	3.0	1184524.4594719
719.53271484375	0.0	120	1473603	55	67	9	1	0	1184514.8680445	1184514.8685235	80	1184518.0037721	1184518.0042656	40	1184521.3236375	1184521.3241237	100	imm	1184522.8437231	1184523.3594901	1184523.3601387	120.0	3.0	1184524.4594719
722.93994140625	0.0	80	1480581	56	90	20	0	1	1184526.7667677	1184526.7672491	80	1184530.0453997	1184530.0459111	40	1184533.4935391	1184533.4943119	100	imm	1184534.2041423	nan	nan	nan	nan	nan
726.21826171875	0.0	40	1487295	56	90	20	0	1	1184526.7667677	1184526.7672491	80	1184530.0453997	1184530.0459111	40	1184533.4935391	1184533.4943119	100	imm	1184534.2041423	nan	nan	nan	nan	nan
729.66650390625	0.0	100	1494357	56	90	20	0	1	1184526.7667677	1184526.7672491	80	1184530.0453997	1184530.0459111	40	1184533.4935391	1184533.4943119	100	imm	1184534.2041423	nan	nan	nan	nan	nan
733.02734375	0.0	80	1501240	57	77	560	0	1	1184536.8543735	1184536.8548386	80	1184540.0208454	1184540.0213109	40	1184543.0944408	1184543.0949445	100	del	1184543.860224	nan	nan	nan	nan	nan
736.19384765625	0.0	40	1507725	57	77	560	0	1	1184536.8543735	1184536.8548386	80	1184540.0208454	1184540.0213109	40	1184543.0944408	1184543.0949445	100	del	1184543.860224	nan	nan	nan	nan	nan
739.26708984375	0.0	100	1514019	57	77	560	0	1	1184536.8543735	1184536.8548386	80	1184540.0208454	1184540.0213109	40	1184543.0944408	1184543.0949445	100	del	1184543.860224	nan	nan	nan	nan	nan
743.0205078125	0.0	80	1521706	58	77	140	0	1	1184546.8481535	1184546.84863	80	1184550.1789109	1184550.1794298	40	1184553.4320824	1184553.4325877	100	del	1184555.1641144	nan	nan	nan	nan	nan
746.3515625	0.0	40	1528528	58	77	140	0	1	1184546.8481535	1184546.84863	80	1184550.1789109	1184550.1794298	40	1184553.4320824	1184553.4325877	100	del	1184555.1641144	nan	nan	nan	nan	nan
749.6044921875	0.0	100	1535190	58	77	140	0	1	1184546.8481535	1184546.84863	80	1184550.1789109	1184550.1794298	40	1184553.4320824	1184553.4325877	100	del	1184555.1641144	nan	nan	nan	nan	nan
754.1748046875	0.0	80	1544550	59	83	560	0	1	1184558.0023727	1184558.0029005	80	1184561.2824944	1184561.2829152	40	1184564.6197216	1184564.6202426	100	del	1184565.317319	nan	nan	nan	nan	nan
757.45458984375	0.0	40	1551267	59	83	560	0	1	1184558.0023727	1184558.0029005	80	1184561.2824944	1184561.2829152	40	1184564.6197216	1184564.6202426	100	del	1184565.317319	nan	nan	nan	nan	nan
760.7919921875	0.0	100	1558102	59	83	560	0	1	1184558.0023727	1184558.0029005	80	1184561.2824944	1184561.2829152	40	1184564.6197216	1184564.6202426	100	del	1184565.317319	nan	nan	nan	nan	nan
764.27978515625	0.0	80	1565245	60	83	60	0	1	1184568.1078517	1184568.1083829	80	1184571.4763499	1184571.4768293	40	1184574.7503488	1184574.7508484	100	del	1184575.4120788	nan	nan	nan	nan	nan
767.6484375	0.0	40	1572144	60	83	60	0	1	1184568.1078517	1184568.1083829	80	1184571.4763499	1184571.4768293	40	1184574.7503488	1184574.7508484	100	del	1184575.4120788	nan	nan	nan	nan	nan
770.92236328125	0.0	100	1578849	60	83	60	0	1	1184568.1078517	1184568.1083829	80	1184571.4763499	1184571.4768293	40	1184574.7503488	1184574.7508484	100	del	1184575.4120788	nan	nan	nan	nan	nan
794.783203125	0.0	80	1627716	61	87	560	0	0	1184598.6117473	1184598.6123614	80	1184601.7289077	1184601.7294539	40	1184604.7956325	1184604.7961323	100	del	1184605.5798589	nan	nan	nan	nan	nan
797.89990234375	0.0	40	1634099	61	87	560	0	0	1184598.6117473	1184598.6123614	80	1184601.7289077	1184601.7294539	40	1184604.7956325	1184604.7961323	100	del	1184605.5798589	nan	nan	nan	nan	nan
800.966796875	0.0	100	1640380	61	87	560	0	0	1184598.6117473	1184598.6123614	80	1184601.7289077	1184601.7294539	40	1184604.7956325	1184604.7961323	100	del	1184605.5798589	nan	nan	nan	nan	nan
804.32421875	0.0	80	1647256	62	100	30	1	0	1184608.1534017	1184608.1538641	80	1184611.1929026	1184611.1934566	40	1184614.4087182	1184614.4092001	100	del	1184616.4360917	1184616.9490457	1184616.9495334	120.0	3.0	1184618.2277884
807.36376953125	0.0	40	1653481	62	100	30	1	0	1184608.1534017	1184608.1538641	80	1184611.1929026	1184611.1934566	40	1184614.4087182	1184614.4092001	100	del	1184616.4360917	1184616.9490457	1184616.9495334	120.0	3.0	1184618.2277884
810.57958984375	0.0	100	1660067	62	100	30	1	0	1184608.1534017	1184608.1538641	80	1184611.1929026	1184611.1934566	40	1184614.4087182	1184614.4092001	100	del	1184616.4360917	1184616.9490457	1184616.9495334	120.0	3.0	1184618.2277884
813.11962890625	0.0	120	1665269	62	100	30	1	0	1184608.1534017	1184608.1538641	80	1184611.1929026	1184611.1934566	40	1184614.4087182	1184614.4092001	100	del	1184616.4360917	1184616.9490457	1184616.9495334	120.0	3.0	1184618.2277884
816.63916015625	0.0	80	1672477	63	73	30	1	0	1184620.4687066	1184620.4692285	80	1184623.6591755	1184623.6596475	40	1184627.0544008	1184627.0548989	100	del	1184628.1174188	1184628.6307155	1184628.6312052	120.0	2.0	1184630.3881675
819.82958984375	0.0	40	1679011	63	73	30	1	0	1184620.4687066	1184620.4692285	80	1184623.6591755	1184623.6596475	40	1184627.0544008	1184627.0548989	100	del	1184628.1174188	1184628.6307155	1184628.6312052	120.0	2.0	1184630.3881675
823.224609375	0.0	100	1685964	63	73	30	1	0	1184620.4687066	1184620.4692285	80	1184623.6591755	1184623.6596475	40	1184627.0544008	1184627.0548989	100	del	1184628.1174188	1184628.6307155	1184628.6312052	120.0	2.0	1184630.3881675
824.80126953125	0.0	120	1689193	63	73	30	1	0	1184620.4687066	1184620.4692285	80	1184623.6591755	1184623.6596475	40	1184627.0544008	1184627.0548989	100	del	1184628.1174188	1184628.6307155	1184628.6312052	120.0	2.0	1184630.3881675
828.888671875	0.0	80	1697564	64	93	560	0	1	1184632.7186466	1184632.7190944	80	1184636.111917	1184636.1123664	40	1184639.5917167	1184639.5922403	100	del	1184640.9804001	nan	nan	nan	nan	nan
832.2822265625	0.0	40	1704514	64	93	560	0	1	1184632.7186466	1184632.7190944	80	1184636.111917	1184636.1123664	40	1184639.5917167	1184639.5922403	100	del	1184640.9804001	nan	nan	nan	nan	nan
835.76171875	0.0	100	1711640	64	93	560	0	1	1184632.7186466	1184632.7190944	80	1184636.111917	1184636.1123664	40	1184639.5917167	1184639.5922403	100	del	1184640.9804001	nan	nan	nan	nan	nan
840.154296875	0.0	80	1720636	65	70	400	1	1	1184643.9846153	1184643.9851218	80	1184647.0884643	1184647.088937	40	1184650.1718212	1184650.1723258	100	del	1184651.309287	1184651.8224404	1184651.8229511	120.0	3.0	1184652.8920883
843.25830078125	0.0	40	1726993	65	70	400	1	1	1184643.9846153	1184643.9851218	80	1184647.0884643	1184647.088937	40	1184650.1718212	1184650.1723258	100	del	1184651.309287	1184651.8224404	1184651.8229511	120.0	3.0	1184652.8920883
846.341796875	0.0	100	1733308	65	70	400	1	1	1184643.9846153	1184643.9851218	80	1184647.0884643	1184647.088937	40	1184650.1718212	1184650.1723258	100	del	1184651.309287	1184651.8224404	1184651.8229511	120.0	3.0	1184652.8920883
847.9921875	0.0	120	1736688	65	70	400	1	1	1184643.9846153	1184643.9851218	80	1184647.0884643	1184647.088937	40	1184650.1718212	1184650.1723258	100	del	1184651.309287	1184651.8224404	1184651.8229511	120.0	3.0	1184652.8920883
851.42578125	0.0	80	1743720	66	67	60	0	1	1184655.2560879	1184655.2565473	80	1184658.3105818	1184658.3110969	40	1184661.5874777	1184661.5879541	100	del	1184662.8755818	nan	nan	nan	nan	nan
854.47998046875	0.0	40	1749975	66	67	60	0	1	1184655.2560879	1184655.2565473	80	1184658.3105818	1184658.3110969	40	1184661.5874777	1184661.5879541	100	del	1184662.8755818	nan	nan	nan	nan	nan
857.7568359375	0.0	100	1756686	66	67	60	0	1	1184655.2560879	1184655.2565473	80	1184658.3105818	1184658.3110969	40	1184661.5874777	1184661.5879541	100	del	1184662.8755818	nan	nan	nan	nan	nan
861.828125	0.0	80	1765024	67	77	20	0	1	1184665.6588957	1184665.6594055	80	1184669.0983541	1184669.0988837	40	1184672.3537496	1184672.3542321	100	imm	1184672.827884	nan	nan	nan	nan	nan
865.267578125	0.0	40	1772068	67	77	20	0	1	1184665.6588957	1184665.6594055	80	1184669.0983541	1184669.0988837	40	1184672.3537496	1184672.3542321	100	imm	1184672.827884	nan	nan	nan	nan	nan
868.52294921875	0.0	100	1778735	67	77	20	0	1	1184665.6588957	1184665.6594055	80	1184669.0983541	1184669.0988837	40	1184672.3537496	1184672.3542321	100	imm	1184672.827884	nan	nan	nan	nan	nan
871.7119140625	0.0	80	1785266	68	80	30	1	0	1184675.5428304	1184675.5434058	80	1184678.885974	1184678.8863843	40	1184682.2695072	1184682.2699872	100	imm	1184682.7877143	1184683.3011936	1184683.3016873	120.0	3.0	1184684.8837716
875.0546875	0.0	40	1792112	68	80	30	1	0	1184675.5428304	1184675.5434058	80	1184678.885974	1184678.8863843	40	1184682.2695072	1184682.2699872	100	imm	1184682.7877143	1184683.3011936	1184683.3016873	120.0	3.0	1184684.8837716
878.4384765625	0.0	100	1799042	68	80	30	1	0	1184675.5428304	1184675.5434058	80	1184678.885974	1184678.8863843	40	1184682.2695072	1184682.2699872	100	imm	1184682.7877143	1184683.3011936	1184683.3016873	120.0	3.0	1184684.8837716
879.47021484375	0.0	120	1801155	68	80	30	1	0	1184675.5428304	1184675.5434058	80	1184678.885974	1184678.8863843	40	1184682.2695072	1184682.2699872	100	imm	1184682.7877143	1184683.3011936	1184683.3016873	120.0	3.0	1184684.8837716
883.3291015625	0.0	80	1809058	69	80	9	1	1	1184687.1602351	1184687.1607329	80	1184690.3415805	1184690.3420221	40	1184693.4299213	1184693.4304553	100	del	1184694.4035808	1184694.914077	1184694.9144809	120.0	2.0	1184696.7081568
886.51025390625	0.0	40	1815573	69	80	9	1	1	1184687.1602351	1184687.1607329	80	1184690.3415805	1184690.3420221	40	1184693.4299213	1184693.4304553	100	del	1184694.4035808	1184694.914077	1184694.9144809	120.0	2.0	1184696.7081568
889.5986328125	0.0	100	1821898	69	80	9	1	1	1184687.1602351	1184687.1607329	80	1184690.3415805	1184690.3420221	40	1184693.4299213	1184693.4304553	100	del	1184694.4035808	1184694.914077	1184694.9144809	120.0	2.0	1184696.7081568
891.08251953125	0.0	120	1824937	69	80	9	1	1	1184687.1602351	1184687.1607329	80	1184690.3415805	1184690.3420221	40	1184693.4299213	1184693.4304553	100	del	1184694.4035808	1184694.914077	1184694.9144809	120.0	2.0	1184696.7081568
895.185546875	0.0	80	1833340	70	53	20	0	0	1184699.017001	1184699.0175073	80	1184702.1554879	1184702.155959	40	1184705.1925731	1184705.1931	100	imm	1184706.7083266	nan	nan	nan	nan	nan
898.32373046875	0.0	40	1839767	70	53	20	0	0	1184699.017001	1184699.0175073	80	1184702.1554879	1184702.155959	40	1184705.1925731	1184705.1931	100	imm	1184706.7083266	nan	nan	nan	nan	nan
901.36083984375	0.0	100	1845987	70	53	20	0	0	1184699.017001	1184699.0175073	80	1184702.1554879	1184702.155959	40	1184705.1925731	1184705.1931	100	imm	1184706.7083266	nan	nan	nan	nan	nan
905.77099609375	0.0	80	1855019	71	67	560	0	1	1184709.6028079	1184709.603303	80	1184712.7318303	1184712.7323295	40	1184715.9659911	1184715.9664351	100	del	1184716.829139	nan	nan	nan	nan	nan
908.89990234375	0.0	40	1861427	71	67	560	0	1	1184709.6028079	1184709.603303	80	1184712.7318303	1184712.7323295	40	1184715.9659911	1184715.9664351	100	del	1184716.829139	nan	nan	nan	nan	nan
912.1337890625	0.0	100	1868050	71	67	560	0	1	1184709.6028079	1184709.603303	80	1184712.7318303	1184712.7323295	40	1184715.9659911	1184715.9664351	100	del	1184716.829139	nan	nan	nan	nan	nan
915.85888671875	0.0	80	1875679	72	63	140	0	0	1184719.6911459	1184719.6916825	80	1184722.8783818	1184722.8788525	40	1184726.2597004	1184726.2601549	100	del	1184727.1255165	nan	nan	nan	nan	nan
919.0458984375	0.0	40	1882206	72	63	140	0	0	1184719.6911459	1184719.6916825	80	1184722.8783818	1184722.8788525	40	1184726.2597004	1184726.2601549	100	del	1184727.1255165	nan	nan	nan	nan	nan
922.42724609375	0.0	100	1889131	72	63	140	0	0	1184719.6911459	1184719.6916825	80	1184722.8783818	1184722.8788525	40	1184726.2597004	1184726.2601549	100	del	1184727.1255165	nan	nan	nan	nan	nan
926.0078125	0.0	80	1896464	73	57	30	1	0	1184729.8404931	1184729.8409438	80	1184733.1899131	1184733.1903926	40	1184736.5556046	1184736.5561258	100	del	1184737.5253899	1184738.0389129	1184738.039449	120.0	2.0	1184739.2999101
929.357421875	0.0	40	1903324	73	57	30	1	0	1184729.8404931	1184729.8409438	80	1184733.1899131	1184733.1903926	40	1184736.5556046	1184736.5561258	100	del	1184737.5253899	1184738.0389129	1184738.039449	120.0	2.0	1184739.2999101
932.72314453125	0.0	100	1910217	73	57	30	1	0	1184729.8404931	1184729.8409438	80	1184733.1899131	1184733.1903926	40	1184736.5556046	1184736.5561258	100	del	1184737.5253899	1184738.0389129	1184738.039449	120.0	2.0	1184739.2999101
934.2060546875	0.0	120	1913254	73	57	30	1	0	1184729.8404931	1184729.8409438	80	1184733.1899131	1184733.1903926	40	1184736.5556046	1184736.5561258	100	del	1184737.5253899	1184738.0389129	1184738.039449	120.0	2.0	1184739.2999101
937.70556640625	0.0	80	1920421	74	93	290	0	1	1184741.5381594	1184741.5393351	80	1184744.5581685	1184744.558658	40	1184747.7376791	1184747.7381637	100	del	1184748.539768	nan	nan	nan	nan	nan
940.72509765625	0.0	40	1926605	74	93	290	0	1	1184741.5381594	1184741.5393351	80	1184744.5581685	1184744.558658	40	1184747.7376791	1184747.7381637	100	del	1184748.539768	nan	nan	nan	nan	nan
943.90478515625	0.0	100	1933117	74	93	290	0	1	1184741.5381594	1184741.5393351	80	1184744.5581685	1184744.558658	40	1184747.7376791	1184747.7381637	100	del	1184748.539768	nan	nan	nan	nan	nan
947.4375	0.0	80	1940352	75	67	290	0	0	1184751.2705831	1184751.271111	80	1184754.4138905	1184754.414373	40	1184757.5260456	1184757.5265309	100	del	1184758.293236	nan	nan	nan	nan	nan
950.58056640625	0.0	40	1946789	75	67	290	0	0	1184751.2705831	1184751.271111	80	1184754.4138905	1184754.414373	40	1184757.5260456	1184757.5265309	100	del	1184758.293236	nan	nan	nan	nan	nan
953.69287109375	0.0	100	1953163	75	67	290	0	0	1184751.2705831	1184751.271111	80	1184754.4138905	1184754.414373	40	1184757.5260456	1184757.5265309	100	del	1184758.293236	nan	nan	nan	nan	nan
957.3896484375	0.0	80	1960734	76	77	9	1	1	1184761.222865	1184761.2233436	80	1184764.4439329	1184764.4442544	40	1184767.9014507	1184767.9020697	100	imm	1184769.452145	1184769.9645619	1184769.9650819	120.0	3.0	1184774.1963025
960.6103515625	0.0	40	1967330	76	77	9	1	1	1184761.222865	1184761.2233436	80	1184764.4439329	1184764.4442544	40	1184767.9014507	1184767.9020697	100	imm	1184769.452145	1184769.9645619	1184769.9650819	120.0	3.0	1184774.1963025
964.06787109375	0.0	100	1974411	76	77	9	1	1	1184761.222865	1184761.2233436	80	1184764.4439329	1184764.4442544	40	1184767.9014507	1184767.9020697	100	imm	1184769.452145	1184769.9645619	1184769.9650819	120.0	3.0	1184774.1963025
966.130859375	0.0	120	1978636	76	77	9	1	1	1184761.222865	1184761.2233436	80	1184764.4439329	1184764.4442544	40	1184767.9014507	1184767.9020697	100	imm	1184769.452145	1184769.9645619	1184769.9650819	120.0	3.0	1184774.1963025
972.57470703125	0.0	80	1991833	77	60	90	1	0	1184776.408304	1184776.4088162	80	1184779.8010193	1184779.8015134	40	1184783.0128245	1184783.0133035	100	del	1184783.4836835	1184783.9972006	1184783.9977248	120.0	3.0	1184784.7645016
975.96728515625	0.0	40	1998781	77	60	90	1	0	1184776.408304	1184776.4088162	80	1184779.8010193	1184779.8015134	40	1184783.0128245	1184783.0133035	100	del	1184783.4836835	1184783.9972006	1184783.9977248	120.0	3.0	1184784.7645016
979.1787109375	0.0	100	2005358	77	60	90	1	0	1184776.408304	1184776.4088162	80	1184779.8010193	1184779.8015134	40	1184783.0128245	1184783.0133035	100	del	1184783.4836835	1184783.9972006	1184783.9977248	120.0	3.0	1184784.7645016
980.16357421875	0.0	120	2007375	77	60	90	1	0	1184776.408304	1184776.4088162	80	1184779.8010193	1184779.8015134	40	1184783.0128245	1184783.0133035	100	del	1184783.4836835	1184783.9972006	1184783.9977248	120.0	3.0	1184784.7645016
983.3505859375	0.0	80	2013902	78	73	90	1	0	1184787.1847187	1184787.18522	80	1184790.5695668	1184790.5700447	40	1184793.7721305	1184793.7726336	100	del	1184794.3883257	1184794.9024726	1184794.9030145	120.0	3.0	1184795.420457
986.7353515625	0.0	40	2020834	78	73	90	1	0	1184787.1847187	1184787.18522	80	1184790.5695668	1184790.5700447	40	1184793.7721305	1184793.7726336	100	del	1184794.3883257	1184794.9024726	1184794.9030145	120.0	3.0	1184795.420457
989.93798828125	0.0	100	2027393	78	73	90	1	0	1184787.1847187	1184787.18522	80	1184790.5695668	1184790.5700447	40	1184793.7721305	1184793.7726336	100	del	1184794.3883257	1184794.9024726	1184794.9030145	120.0	3.0	1184795.420457
991.068359375	0.0	120	2029708	78	73	90	1	0	1184787.1847187	1184787.18522	80	1184790.5695668	1184790.5700447	40	1184793.7721305	1184793.7726336	100	del	1184794.3883257	1184794.9024726	1184794.9030145	120.0	3.0	1184795.420457
993.71044921875	0.0	80	2035119	79	87	200	1	1	1184797.544627	1184797.5451176	80	1184800.9482148	1184800.9487248	40	1184804.4366689	1184804.4371546	100	imm	1184805.6837779	1184806.1976076	1184806.1981477	120.0	3.0	1184807.2604007
997.11376953125	0.0	40	2042089	79	87	200	1	1	1184797.544627	1184797.5451176	80	1184800.9482148	1184800.9487248	40	1184804.4366689	1184804.4371546	100	imm	1184805.6837779	1184806.1976076	1184806.1981477	120.0	3.0	1184807.2604007
1000.60205078125	0.0	100	2049233	79	87	200	1	1	1184797.544627	1184797.5451176	80	1184800.9482148	1184800.9487248	40	1184804.4366689	1184804.4371546	100	imm	1184805.6837779	1184806.1976076	1184806.1981477	120.0	3.0	1184807.2604007
1002.36328125	0.0	120	2052840	79	87	200	1	1	1184797.544627	1184797.5451176	80	1184800.9482148	1184800.9487248	40	1184804.4366689	1184804.4371546	100	imm	1184805.6837779	1184806.1976076	1184806.1981477	120.0	3.0	1184807.2604007
1005.60546875	0.0	80	2059480	80	50	200	1	1	1184809.440238	1184809.4411126	80	1184812.7839262	1184812.7844233	40	1184816.0164637	1184816.0169482	100	imm	1184816.7959494	1184817.3090331	1184817.309595	120.0	3.0	1184818.2036308
1008.94921875	0.0	40	2066328	80	50	200	1	1	1184809.440238	1184809.4411126	80	1184812.7839262	1184812.7844233	40	1184816.0164637	1184816.0169482	100	imm	1184816.7959494	1184817.3090331	1184817.309595	120.0	3.0	1184818.2036308
1012.181640625	0.0	100	2072948	80	50	200	1	1	1184809.440238	1184809.4411126	80	1184812.7839262	1184812.7844233	40	1184816.0164637	1184816.0169482	100	imm	1184816.7959494	1184817.3090331	1184817.309595	120.0	3.0	1184818.2036308
1013.47412109375	0.0	120	2075595	80	50	200	1	1	1184809.440238	1184809.4411126	80	1184812.7839262	1184812.7844233	40	1184816.0164637	1184816.0169482	100	imm	1184816.7959494	1184817.3090331	1184817.309595	120.0	3.0	1184818.2036308
1031.919921875	0.0	80	2113372	81	67	200	1	1	1184835.7550511	1184835.755592	80	1184839.1473274	1184839.1477663	40	1184842.2439305	1184842.2444291	100	del	1184843.1157706	1184843.6248196	1184843.6253338	120.0	3.0	1184844.4373128
1035.31201171875	0.0	40	2120319	81	67	200	1	1	1184835.7550511	1184835.755592	80	1184839.1473274	1184839.1477663	40	1184842.2439305	1184842.2444291	100	del	1184843.1157706	1184843.6248196	1184843.6253338	120.0	3.0	1184844.4373128
1038.408203125	0.0	100	2126660	81	67	200	1	1	1184835.7550511	1184835.755592	80	1184839.1473274	1184839.1477663	40	1184842.2439305	1184842.2444291	100	del	1184843.1157706	1184843.6248196	1184843.6253338	120.0	3.0	1184844.4373128
1039.7890625	0.0	120	2129488	81	67	200	1	1	1184835.7550511	1184835.755592	80	1184839.1473274	1184839.1477663	40	1184842.2439305	1184842.2444291	100	del	1184843.1157706	1184843.6248196	1184843.6253338	120.0	3.0	1184844.4373128
1043.0478515625	0.0	80	2136162	82	93	200	1	0	1184846.883767	1184846.8842582	80	1184850.3864901	1184850.3869577	40	1184853.6567248	1184853.6572989	100	del	1184854.7484932	1184855.2620499	1184855.2625691	120.0	3.0	1184856.0441124
1046.55078125	0.0	40	2143336	82	93	200	1	0	1184846.883767	1184846.8842582	80	1184850.3864901	1184850.3869577	40	1184853.6567248	1184853.6572989	100	del	1184854.7484932	1184855.2620499	1184855.2625691	120.0	3.0	1184856.0441124
1049.82080078125	0.0	100	2150033	82	93	200	1	0	1184846.883767	1184846.8842582	80	1184850.3864901	1184850.3869577	40	1184853.6567248	1184853.6572989	100	del	1184854.7484932	1184855.2620499	1184855.2625691	120.0	3.0	1184856.0441124
1051.42626953125	0.0	120	2153321	82	93	200	1	0	1184846.883767	1184846.8842582	80	1184850.3864901	1184850.3869577	40	1184853.6567248	1184853.6572989	100	del	1184854.7484932	1184855.2620499	1184855.2625691	120.0	3.0	1184856.0441124
1054.666015625	0.0	80	2159956	83	100	60	0	1	1184858.5019869	1184858.5024589	80	1184861.8039139	1184861.8043767	40	1184864.8956707	1184864.8961779	100	del	1184865.5242597	nan	nan	nan	nan	nan
1057.9677734375	0.0	40	2166718	83	100	60	0	1	1184858.5019869	1184858.5024589	80	1184861.8039139	1184861.8043767	40	1184864.8956707	1184864.8961779	100	del	1184865.5242597	nan	nan	nan	nan	nan
1061.0595703125	0.0	100	2173050	83	100	60	0	1	1184858.5019869	1184858.5024589	80	1184861.8039139	1184861.8043767	40	1184864.8956707	1184864.8961779	100	del	1184865.5242597	nan	nan	nan	nan	nan
1064.30615234375	0.0	80	2179699	84	83	9	1	0	1184868.1424846	1184868.1430049	80	1184871.3537892	1184871.3542692	40	1184874.7420352	1184874.7424928	100	imm	1184875.4376338	1184875.9506405	1184875.9511312	120.0	3.0	1184877.0597358
1067.517578125	0.0	40	2186276	84	83	9	1	0	1184868.1424846	1184868.1430049	80	1184871.3537892	1184871.3542692	40	1184874.7420352	1184874.7424928	100	imm	1184875.4376338	1184875.9506405	1184875.9511312	120.0	3.0	1184877.0597358
1070.90576171875	0.0	100	2193215	84	83	9	1	0	1184868.1424846	1184868.1430049	80	1184871.3537892	1184871.3542692	40	1184874.7420352	1184874.7424928	100	imm	1184875.4376338	1184875.9506405	1184875.9511312	120.0	3.0	1184877.0597358
1072.1142578125	0.0	120	2195690	84	83	9	1	0	1184868.1424846	1184868.1430049	80	1184871.3537892	1184871.3542692	40	1184874.7420352	1184874.7424928	100	imm	1184875.4376338	1184875.9506405	1184875.9511312	120.0	3.0	1184877.0597358
1075.65234375	0.0	80	2202936	85	83	20	0	1	1184879.4889487	1184879.4894903	80	1184882.890593	1184882.8909666	40	1184886.0626914	1184886.0631447	100	del	1184888.3557575	nan	nan	nan	nan	nan
1079.0537109375	0.0	40	2209902	85	83	20	0	1	1184879.4889487	1184879.4894903	80	1184882.890593	1184882.8909666	40	1184886.0626914	1184886.0631447	100	del	1184888.3557575	nan	nan	nan	nan	nan
1082.22607421875	0.0	100	2216399	85	83	20	0	1	1184879.4889487	1184879.4894903	80	1184882.890593	1184882.8909666	40	1184886.0626914	1184886.0631447	100	del	1184888.3557575	nan	nan	nan	nan	nan
1087.3037109375	0.0	80	2226798	86	60	560	0	1	1184891.1405521	1184891.1410617	80	1184894.1930268	1184894.193504	40	1184897.2621116	1184897.2626535	100	del	1184898.3965384	nan	nan	nan	nan	nan
1090.35595703125	0.0	40	2233049	86	60	560	0	1	1184891.1405521	1184891.1410617	80	1184894.1930268	1184894.193504	40	1184897.2621116	1184897.2626535	100	del	1184898.3965384	nan	nan	nan	nan	nan
1093.42529296875	0.0	100	2239335	86	60	560	0	1	1184891.1405521	1184891.1410617	80	1184894.1930268	1184894.193504	40	1184897.2621116	1184897.2626535	100	del	1184898.3965384	nan	nan	nan	nan	nan
1097.1455078125	0.0	80	2246954	87	70	90	1	0	1184900.9828527	1184900.9833368	80	1184904.3303988	1184904.3308797	40	1184907.5946297	1184907.5951441	100	del	1184908.2598532	1184908.7702737	1184908.7706217	120.0	3.0	1184910.2845202
1100.4931640625	0.0	40	2253810	87	70	90	1	0	1184900.9828527	1184900.9833368	80	1184904.3303988	1184904.3308797	40	1184907.5946297	1184907.5951441	100	del	1184908.2598532	1184908.7702737	1184908.7706217	120.0	3.0	1184910.2845202
1103.75732421875	0.0	100	2260495	87	70	90	1	0	1184900.9828527	1184900.9833368	80	1184904.3303988	1184904.3308797	40	1184907.5946297	1184907.5951441	100	del	1184908.2598532	1184908.7702737	1184908.7706217	120.0	3.0	1184910.2845202
1104.9326171875	0.0	120	2262902	87	70	90	1	0	1184900.9828527	1184900.9833368	80	1184904.3303988	1184904.3308797	40	1184907.5946297	1184907.5951441	100	del	1184908.2598532	1184908.7702737	1184908.7706217	120.0	3.0	1184910.2845202
1108.55810546875	0.0	80	2270327	88	50	400	1	1	1184912.3954169	1184912.3958231	80	1184915.6513218	1184915.6517919	40	1184918.7387993	1184918.7393056	100	del	1184919.4924179	1184920.0065605	1184920.0070488	120.0	3.0	1184921.0437529
1111.81396484375	0.0	40	2276995	88	50	400	1	1	1184912.3954169	1184912.3958231	80	1184915.6513218	1184915.6517919	40	1184918.7387993	1184918.7393056	100	del	1184919.4924179	1184920.0065605	1184920.0070488	120.0	3.0	1184921.0437529
1114.90087890625	0.0	100	2283317	88	50	400	1	1	1184912.3954169	1184912.3958231	80	1184915.6513218	1184915.6517919	40	1184918.7387993	1184918.7393056	100	del	1184919.4924179	1184920.0065605	1184920.0070488	120.0	3.0	1184921.0437529
1116.1689453125	0.0	120	2285914	88	50	400	1	1	1184912.3954169	1184912.3958231	80	1184915.6513218	1184915.6517919	40	1184918.7387993	1184918.7393056	100	del	1184919.4924179	1184920.0065605	1184920.0070488	120.0	3.0	1184921.0437529
1119.2490234375	0.0	80	2292222	89	87	400	1	0	1184923.0870338	1184923.0875661	80	1184926.5200371	1184926.5205747	40	1184929.8169555	1184929.8174886	100	del	1184931.4695609	1184931.9832924	1184931.9837736	120.0	3.0	1184932.7966615
1122.68212890625	0.0	40	2299253	89	87	400	1	0	1184923.0870338	1184923.0875661	80	1184926.5200371	1184926.5205747	40	1184929.8169555	1184929.8174886	100	del	1184931.4695609	1184931.9832924	1184931.9837736	120.0	3.0	1184932.7966615
1125.97900390625	0.0	100	2306005	89	87	400	1	0	1184923.0870338	1184923.0875661	80	1184926.5200371	1184926.5205747	40	1184929.8169555	1184929.8174886	100	del	1184931.4695609	1184931.9832924	1184931.9837736	120.0	3.0	1184932.7966615
1128.14501953125	0.0	120	2310441	89	87	400	1	0	1184923.0870338	1184923.0875661	80	1184926.5200371	1184926.5205747	40	1184929.8169555	1184929.8174886	100	del	1184931.4695609	1184931.9832924	1184931.9837736	120.0	3.0	1184932.7966615
1131.43994140625	0.0	80	2317189	90	93	20	0	0	1184935.2779152	1184935.2783966	80	1184938.6351652	1184938.6356884	40	1184941.9398852	1184941.9403721	100	imm	1184942.69249	nan	nan	nan	nan	nan
1134.796875	0.0	40	2324064	90	93	20	0	0	1184935.2779152	1184935.2783966	80	1184938.6351652	1184938.6356884	40	1184941.9398852	1184941.9403721	100	imm	1184942.69249	nan	nan	nan	nan	nan
1138.1015625	0.0	100	2330832	90	93	20	0	0	1184935.2779152	1184935.2783966	80	1184938.6351652	1184938.6356884	40	1184941.9398852	1184941.9403721	100	imm	1184942.69249	nan	nan	nan	nan	nan
1141.78076171875	0.0	80	2338367	91	67	140	0	1	1184945.6193034	1184945.6197786	80	1184949.0666818	1184949.0671637	40	1184952.575435	1184952.5759658	100	del	1184953.2761792	nan	nan	nan	nan	nan
1145.22802734375	0.0	40	2345427	91	67	140	0	1	1184945.6193034	1184945.6197786	80	1184949.0666818	1184949.0671637	40	1184952.575435	1184952.5759658	100	del	1184953.2761792	nan	nan	nan	nan	nan
1148.73681640625	0.0	100	2352613	91	67	140	0	1	1184945.6193034	1184945.6197786	80	1184949.0666818	1184949.0671637	40	1184952.575435	1184952.5759658	100	del	1184953.2761792	nan	nan	nan	nan	nan
1151.95556640625	0.0	80	2359205	92	57	9	1	0	1184955.7943748	1184955.7948569	80	1184959.2345434	1184959.2350272	40	1184962.5545058	1184962.5549994	100	imm	1184963.732095	1184964.2462608	1184964.2468237	120.0	3.0	1184965.2926076
1155.3955078125	0.0	40	2366250	92	57	9	1	0	1184955.7943748	1184955.7948569	80	1184959.2345434	1184959.2350272	40	1184962.5545058	1184962.5549994	100	imm	1184963.732095	1184964.2462608	1184964.2468237	120.0	3.0	1184965.2926076
1158.7158203125	0.0	100	2373050	92	57	9	1	0	1184955.7943748	1184955.7948569	80	1184959.2345434	1184959.2350272	40	1184962.5545058	1184962.5549994	100	imm	1184963.732095	1184964.2462608	1184964.2468237	120.0	3.0	1184965.2926076
1160.4072265625	0.0	120	2376514	92	57	9	1	0	1184955.7943748	1184955.7948569	80	1184959.2345434	1184959.2350272	40	1184962.5545058	1184962.5549994	100	imm	1184963.732095	1184964.2462608	1184964.2468237	120.0	3.0	1184965.2926076
1163.96484375	0.0	80	2383800	93	100	20	0	0	1184967.8041046	1184967.804575	80	1184971.0752954	1184971.0759482	40	1184974.3287261	1184974.3292082	100	na	1184975.1479538	nan	nan	nan	nan	nan
1167.236328125	0.0	40	2390500	93	100	20	0	0	1184967.8041046	1184967.804575	80	1184971.0752954	1184971.0759482	40	1184974.3287261	1184974.3292082	100	na	1184975.1479538	nan	nan	nan	nan	nan
1170.4892578125	0.0	100	2397162	93	100	20	0	0	1184967.8041046	1184967.804575	80	1184971.0752954	1184971.0759482	40	1184974.3287261	1184974.3292082	100	na	1184975.1479538	nan	nan	nan	nan	nan
1174.2265625	0.0	80	2404816	94	77	290	0	0	1184978.065832	1184978.0663286	80	1184981.1871334	1184981.1876233	40	1184984.4499513	1184984.4504323	100	del	1184985.3880766	nan	nan	nan	nan	nan
1177.34765625	0.0	40	2411208	94	77	290	0	0	1184978.065832	1184978.0663286	80	1184981.1871334	1184981.1876233	40	1184984.4499513	1184984.4504323	100	del	1184985.3880766	nan	nan	nan	nan	nan
1180.6103515625	0.0	100	2417890	94	77	290	0	0	1184978.065832	1184978.0663286	80	1184981.1871334	1184981.1876233	40	1184984.4499513	1184984.4504323	100	del	1184985.3880766	nan	nan	nan	nan	nan
1184.51611328125	0.0	80	2425889	95	60	140	0	0	1184988.3558011	1184988.3562669	80	1184991.6516105	1184991.6520821	40	1184995.0869763	1184995.087515	100	del	1184996.7004069	nan	nan	nan	nan	nan
1187.81201171875	0.0	40	2432639	95	60	140	0	0	1184988.3558011	1184988.3562669	80	1184991.6516105	1184991.6520821	40	1184995.0869763	1184995.087515	100	del	1184996.7004069	nan	nan	nan	nan	nan
1191.2470703125	0.0	100	2439674	95	60	140	0	0	1184988.3558011	1184988.3562669	80	1184991.6516105	1184991.6520821	40	1184995.0869763	1184995.087515	100	del	1184996.7004069	nan	nan	nan	nan	nan
1195.74853515625	0.0	80	2448893	96	50	60	0	0	1184999.5883326	1184999.58904	80	1185002.8898434	1185002.8905936	40	1185006.0265721	1185006.027057	100	del	1185008.6521496	nan	nan	nan	nan	nan
1199.0498046875	0.0	40	2455654	96	50	60	0	0	1184999.5883326	1184999.58904	80	1185002.8898434	1185002.8905936	40	1185006.0265721	1185006.027057	100	del	1185008.6521496	nan	nan	nan	nan	nan
1202.1865234375	0.0	100	2462078	96	50	60	0	0	1184999.5883326	1184999.58904	80	1185002.8898434	1185002.8905936	40	1185006.0265721	1185006.027057	100	del	1185008.6521496	nan	nan	nan	nan	nan
1207.66259765625	0.0	80	2473293	97	87	30	1	0	1185011.5026806	1185011.5032005	80	1185014.5527194	1185014.5531788	40	1185017.8796996	1185017.8802405	100	del	1185019.2127341	1185019.7262373	1185019.7267749	120.0	3.0	1185020.5078196
1210.71240234375	0.0	40	2479539	97	87	30	1	0	1185011.5026806	1185011.5032005	80	1185014.5527194	1185014.5531788	40	1185017.8796996	1185017.8802405	100	del	1185019.2127341	1185019.7262373	1185019.7267749	120.0	3.0	1185020.5078196
1214.0390625	0.0	100	2486352	97	87	30	1	0	1185011.5026806	1185011.5032005	80	1185014.5527194	1185014.5531788	40	1185017.8796996	1185017.8802405	100	del	1185019.2127341	1185019.7262373	1185019.7267749	120.0	3.0	1185020.5078196
1215.8857421875	0.0	120	2490134	97	87	30	1	0	1185011.5026806	1185011.5032005	80	1185014.5527194	1185014.5531788	40	1185017.8796996	1185017.8802405	100	del	1185019.2127341	1185019.7262373	1185019.7267749	120.0	3.0	1185020.5078196
1219.013671875	0.0	80	2496540	98	90	30	1	0	1185022.8539035	1185022.8545123	80	1185026.2264947	1185026.2270104	40	1185029.6848125	1185029.6853485	100	del	1185030.2361587	1185030.7492522	1185030.7497975	120.0	3.0	1185031.8921705
1222.3857421875	0.0	40	2503446	98	90	30	1	0	1185022.8539035	1185022.8545123	80	1185026.2264947	1185026.2270104	40	1185029.6848125	1185029.6853485	100	del	1185030.2361587	1185030.7492522	1185030.7497975	120.0	3.0	1185031.8921705
1225.84423828125	0.0	100	2510529	98	90	30	1	0	1185022.8539035	1185022.8545123	80	1185026.2264947	1185026.2270104	40	1185029.6848125	1185029.6853485	100	del	1185030.2361587	1185030.7492522	1185030.7497975	120.0	3.0	1185031.8921705
1226.90869140625	0.0	120	2512709	98	90	30	1	0	1185022.8539035	1185022.8545123	80	1185026.2264947	1185026.2270104	40	1185029.6848125	1185029.6853485	100	del	1185030.2361587	1185030.7492522	1185030.7497975	120.0	3.0	1185031.8921705
1230.5576171875	0.0	80	2520182	99	70	290	0	0	1185034.398739	1185034.3992502	80	1185037.7906679	1185037.7911522	40	1185041.0951047	1185041.0955842	100	na	1185041.6364182	nan	nan	nan	nan	nan
1233.94970703125	0.0	40	2527129	99	70	290	0	0	1185034.398739	1185034.3992502	80	1185037.7906679	1185037.7911522	40	1185041.0951047	1185041.0955842	100	na	1185041.6364182	nan	nan	nan	nan	nan
1237.25390625	0.0	100	2533896	99	70	290	0	0	1185034.398739	1185034.3992502	80	1185037.7906679	1185037.7911522	40	1185041.0951047	1185041.0955842	100	na	1185041.6364182	nan	nan	nan	nan	nan
1240.77490234375	0.0	80	2541107	100	73	200	1	1	1185044.6159883	1185044.6164122	80	1185047.9139596	1185047.9144571	40	1185050.9363408	1185050.9368502	100	imm	1185051.6204393	1185052.1336473	1185052.1343517	120.0	3.0	1185053.1406851
1244.07275390625	0.0	40	2547861	100	73	200	1	1	1185044.6159883	1185044.6164122	80	1185047.9139596	1185047.9144571	40	1185050.9363408	1185050.9368502	100	imm	1185051.6204393	1185052.1336473	1185052.1343517	120.0	3.0	1185053.1406851
1247.09521484375	0.0	100	2554051	100	73	200	1	1	1185044.6159883	1185044.6164122	80	1185047.9139596	1185047.9144571	40	1185050.9363408	1185050.9368502	100	imm	1185051.6204393	1185052.1336473	1185052.1343517	120.0	3.0	1185053.1406851
1248.29248046875	0.0	120	2556503	100	73	200	1	1	1185044.6159883	1185044.6164122	80	1185047.9139596	1185047.9144571	40	1185050.9363408	1185050.9368502	100	imm	1185051.6204393	1185052.1336473	1185052.1343517	120.0	3.0	1185053.1406851
1272.5322265625	0.0	80	2606146	101	50	30	1	0	1185076.3744164	1185076.3749362	80	1185079.8134855	1185079.8139002	40	1185083.0691465	1185083.0696601	100	imm	1185083.9398524	1185084.4544351	1185084.4549307	120.0	3.0	1185085.4055663
1275.97119140625	0.0	40	2613189	101	50	30	1	0	1185076.3744164	1185076.3749362	80	1185079.8134855	1185079.8139002	40	1185083.0691465	1185083.0696601	100	imm	1185083.9398524	1185084.4544351	1185084.4549307	120.0	3.0	1185085.4055663
1279.22705078125	0.0	100	2619857	101	50	30	1	0	1185076.3744164	1185076.3749362	80	1185079.8134855	1185079.8139002	40	1185083.0691465	1185083.0696601	100	imm	1185083.9398524	1185084.4544351	1185084.4549307	120.0	3.0	1185085.4055663
1280.6123046875	0.0	120	2622694	101	50	30	1	0	1185076.3744164	1185076.3749362	80	1185079.8134855	1185079.8139002	40	1185083.0691465	1185083.0696601	100	imm	1185083.9398524	1185084.4544351	1185084.4549307	120.0	3.0	1185085.4055663
1284.0009765625	0.0	80	2629634	102	73	140	0	1	1185087.8432645	1185087.8437852	80	1185090.9559881	1185090.9568509	40	1185094.2457014	1185094.2462425	100	del	1185094.9086108	nan	nan	nan	nan	nan
1287.11328125	0.0	40	2636008	102	73	140	0	1	1185087.8432645	1185087.8437852	80	1185090.9559881	1185090.9568509	40	1185094.2457014	1185094.2462425	100	del	1185094.9086108	nan	nan	nan	nan	nan
1290.4033203125	0.0	100	2642746	102	73	140	0	1	1185087.8432645	1185087.8437852	80	1185090.9559881	1185090.9568509	40	1185094.2457014	1185094.2462425	100	del	1185094.9086108	nan	nan	nan	nan	nan
1293.8994140625	0.0	80	2649906	103	67	20	0	1	1185097.7418688	1185097.7423367	80	1185100.7677549	1185100.7682241	40	1185104.0881259	1185104.0886028	100	imm	1185104.9648291	nan	nan	nan	nan	nan
1296.9248046875	0.0	40	2656102	103	67	20	0	1	1185097.7418688	1185097.7423367	80	1185100.7677549	1185100.7682241	40	1185104.0881259	1185104.0886028	100	imm	1185104.9648291	nan	nan	nan	nan	nan
1300.2451171875	0.0	100	2662902	103	67	20	0	1	1185097.7418688	1185097.7423367	80	1185100.7677549	1185100.7682241	40	1185104.0881259	1185104.0886028	100	imm	1185104.9648291	nan	nan	nan	nan	nan
1303.82177734375	0.0	80	2670227	104	90	560	0	1	1185107.6647822	1185107.6653036	80	1185110.6975435	1185110.6980626	40	1185113.9550439	1185113.9555526	100	del	1185115.1802231	nan	nan	nan	nan	nan
1306.8544921875	0.0	40	2676438	104	90	560	0	1	1185107.6647822	1185107.6653036	80	1185110.6975435	1185110.6980626	40	1185113.9550439	1185113.9555526	100	del	1185115.1802231	nan	nan	nan	nan	nan
1310.11181640625	0.0	100	2683109	104	90	560	0	1	1185107.6647822	1185107.6653036	80	1185110.6975435	1185110.6980626	40	1185113.9550439	1185113.9555526	100	del	1185115.1802231	nan	nan	nan	nan	nan
1313.95166015625	0.0	80	2690973	105	90	9	1	1	1185117.7950067	1185117.7955271	80	1185120.8641134	1185120.8658926	40	1185123.9814367	1185123.9819564	100	imm	1185125.0853347	1185125.5987741	1185125.5992495	120.0	3.0	1185126.276326
1317.0205078125	0.0	40	2697258	105	90	9	1	1	1185117.7950067	1185117.7955271	80	1185120.8641134	1185120.8658926	40	1185123.9814367	1185123.9819564	100	imm	1185125.0853347	1185125.5987741	1185125.5992495	120.0	3.0	1185126.276326
1320.13818359375	0.0	100	2703643	105	90	9	1	1	1185117.7950067	1185117.7955271	80	1185120.8641134	1185120.8658926	40	1185123.9814367	1185123.9819564	100	imm	1185125.0853347	1185125.5987741	1185125.5992495	120.0	3.0	1185126.276326
1321.75537109375	0.0	120	2706955	105	90	9	1	1	1185117.7950067	1185117.7955271	80	1185120.8641134	1185120.8658926	40	1185123.9814367	1185123.9819564	100	imm	1185125.0853347	1185125.5987741	1185125.5992495	120.0	3.0	1185126.276326
1324.521484375	0.0	80	2712620	106	53	9	1	0	1185128.3648188	1185128.3652785	80	1185131.4668628	1185131.4673551	40	1185134.501515	1185134.5020665	100	imm	1185135.2454721	1185135.7599106	1185135.7604336	120.0	2.0	1185136.3401912
1327.623046875	0.0	40	2718972	106	53	9	1	0	1185128.3648188	1185128.3652785	80	1185131.4668628	1185131.4673551	40	1185134.501515	1185134.5020665	100	imm	1185135.2454721	1185135.7599106	1185135.7604336	120.0	2.0	1185136.3401912
1330.65771484375	0.0	100	2725187	106	53	9	1	0	1185128.3648188	1185128.3652785	80	1185131.4668628	1185131.4673551	40	1185134.501515	1185134.5020665	100	imm	1185135.2454721	1185135.7599106	1185135.7604336	120.0	2.0	1185136.3401912
1331.916015625	0.0	120	2727764	106	53	9	1	0	1185128.3648188	1185128.3652785	80	1185131.4668628	1185131.4673551	40	1185134.501515	1185134.5020665	100	imm	1185135.2454721	1185135.7599106	1185135.7604336	120.0	2.0	1185136.3401912
1334.82958984375	0.0	80	2733731	107	63	560	0	0	1185138.6735752	1185138.6740258	80	1185141.8213195	1185141.8218043	40	1185145.1013079	1185145.1018196	100	na	1185150.4925544	nan	nan	nan	nan	nan
1337.9775390625	0.0	40	2740178	107	63	560	0	0	1185138.6735752	1185138.6740258	80	1185141.8213195	1185141.8218043	40	1185145.1013079	1185145.1018196	100	na	1185150.4925544	nan	nan	nan	nan	nan
1341.25732421875	0.0	100	2746895	107	63	560	0	0	1185138.6735752	1185138.6740258	80	1185141.8213195	1185141.8218043	40	1185145.1013079	1185145.1018196	100	na	1185150.4925544	nan	nan	nan	nan	nan
1349.51318359375	0.0	80	2763803	108	50	9	1	1	1185153.3574808	1185153.3579692	80	1185156.6146201	1185156.6150859	40	1185159.8957484	1185159.8961509	100	del	1185162.1563855	1185162.6687248	1185162.6691768	120.0	2.0	1185163.5800538
1352.7705078125	0.0	40	2770474	108	50	9	1	1	1185153.3574808	1185153.3579692	80	1185156.6146201	1185156.6150859	40	1185159.8957484	1185159.8961509	100	del	1185162.1563855	1185162.6687248	1185162.6691768	120.0	2.0	1185163.5800538
1356.05126953125	0.0	100	2777193	108	50	9	1	1	1185153.3574808	1185153.3579692	80	1185156.6146201	1185156.6150859	40	1185159.8957484	1185159.8961509	100	del	1185162.1563855	1185162.6687248	1185162.6691768	120.0	2.0	1185163.5800538
1358.82421875	0.0	120	2782872	108	50	9	1	1	1185153.3574808	1185153.3579692	80	1185156.6146201	1185156.6150859	40	1185159.8957484	1185159.8961509	100	del	1185162.1563855	1185162.6687248	1185162.6691768	120.0	2.0	1185163.5800538
1361.97119140625	0.0	80	2789317	109	100	140	0	1	1185165.8156193	1185165.8160947	80	1185168.8851225	1185168.8856121	40	1185172.1448005	1185172.1453108	100	del	1185173.1800873	nan	nan	nan	nan	nan
1365.04052734375	0.0	40	2795603	109	100	140	0	1	1185165.8156193	1185165.8160947	80	1185168.8851225	1185168.8856121	40	1185172.1448005	1185172.1453108	100	del	1185173.1800873	nan	nan	nan	nan	nan
1368.30029296875	0.0	100	2802279	109	100	140	0	1	1185165.8156193	1185165.8160947	80	1185168.8851225	1185168.8856121	40	1185172.1448005	1185172.1453108	100	del	1185173.1800873	nan	nan	nan	nan	nan
1372.27978515625	0.0	80	2810429	110	90	400	1	0	1185176.1244182	1185176.1249095	80	1185179.5690055	1185179.5694652	40	1185182.7167886	1185182.7172851	100	del	1185183.3641366	1185183.8773096	1185183.87782	120.0	3.0	1185184.564755
1375.72412109375	0.0	40	2817483	110	90	400	1	0	1185176.1244182	1185176.1249095	80	1185179.5690055	1185179.5694652	40	1185182.7167886	1185182.7172851	100	del	1185183.3641366	1185183.8773096	1185183.87782	120.0	3.0	1185184.564755
1378.87158203125	0.0	100	2823929	110	90	400	1	0	1185176.1244182	1185176.1249095	80	1185179.5690055	1185179.5694652	40	1185182.7167886	1185182.7172851	100	del	1185183.3641366	1185183.8773096	1185183.87782	120.0	3.0	1185184.564755
1380.0322265625	0.0	120	2826306	110	90	400	1	0	1185176.1244182	1185176.1249095	80	1185179.5690055	1185179.5694652	40	1185182.7167886	1185182.7172851	100	del	1185183.3641366	1185183.8773096	1185183.87782	120.0	3.0	1185184.564755
1382.8388671875	0.0	80	2832054	111	60	400	1	1	1185186.6839353	1185186.6845178	80	1185189.9742741	1185189.9747118	40	1185193.3078934	1185193.3083915	100	del	1185194.2926912	1185194.8064332	1185194.8069616	120.0	3.0	1185195.5173258
1386.12890625	0.0	40	2838792	111	60	400	1	1	1185186.6839353	1185186.6845178	80	1185189.9742741	1185189.9747118	40	1185193.3078934	1185193.3083915	100	del	1185194.2926912	1185194.8064332	1185194.8069616	120.0	3.0	1185195.5173258
1389.46240234375	0.0	100	2845619	111	60	400	1	1	1185186.6839353	1185186.6845178	80	1185189.9742741	1185189.9747118	40	1185193.3078934	1185193.3083915	100	del	1185194.2926912	1185194.8064332	1185194.8069616	120.0	3.0	1185195.5173258
1390.9609375	0.0	120	2848688	111	60	400	1	1	1185186.6839353	1185186.6845178	80	1185189.9742741	1185189.9747118	40	1185193.3078934	1185193.3083915	100	del	1185194.2926912	1185194.8064332	1185194.8069616	120.0	3.0	1185195.5173258
1393.8974609375	0.0	80	2854702	112	77	90	1	0	1185197.7429221	1185197.7434413	80	1185200.8524017	1185200.8527589	40	1185204.3399056	1185204.3404077	100	del	1185205.1574306	1185205.6709821	1185205.6714994	120.0	3.0	1185206.5248111
1397.0068359375	0.0	40	2861070	112	77	90	1	0	1185197.7429221	1185197.7434413	80	1185200.8524017	1185200.8527589	40	1185204.3399056	1185204.3404077	100	del	1185205.1574306	1185205.6709821	1185205.6714994	120.0	3.0	1185206.5248111
1400.494140625	0.0	100	2868212	112	77	90	1	0	1185197.7429221	1185197.7434413	80	1185200.8524017	1185200.8527589	40	1185204.3399056	1185204.3404077	100	del	1185205.1574306	1185205.6709821	1185205.6714994	120.0	3.0	1185206.5248111
1401.8251953125	0.0	120	2870938	112	77	90	1	0	1185197.7429221	1185197.7434413	80	1185200.8524017	1185200.8527589	40	1185204.3399056	1185204.3404077	100	del	1185205.1574306	1185205.6709821	1185205.6714994	120.0	3.0	1185206.5248111
1404.7353515625	0.0	80	2876898	113	93	140	0	0	1185208.5809879	1185208.5815131	80	1185211.6418846	1185211.6423414	40	1185214.7259713	1185214.7263755	100	na	1185218.8614344	nan	nan	nan	nan	nan
1407.7958984375	0.0	40	2883166	113	93	140	0	0	1185208.5809879	1185208.5815131	80	1185211.6418846	1185211.6423414	40	1185214.7259713	1185214.7263755	100	na	1185218.8614344	nan	nan	nan	nan	nan
1410.8798828125	0.0	100	2889482	113	93	140	0	0	1185208.5809879	1185208.5815131	80	1185211.6418846	1185211.6423414	40	1185214.7259713	1185214.7263755	100	na	1185218.8614344	nan	nan	nan	nan	nan
1417.6171875	0.0	80	2903280	114	97	290	0	0	1185221.463042	1185221.4636348	80	1185224.7828853	1185224.7833494	40	1185228.0828717	1185228.0834224	100	del	1185229.453548	nan	nan	nan	nan	nan
1420.9365234375	0.0	40	2910078	114	97	290	0	0	1185221.463042	1185221.4636348	80	1185224.7828853	1185224.7833494	40	1185228.0828717	1185228.0834224	100	del	1185229.453548	nan	nan	nan	nan	nan
1424.23681640625	0.0	100	2916837	114	97	290	0	0	1185221.463042	1185221.4636348	80	1185224.7828853	1185224.7833494	40	1185228.0828717	1185228.0834224	100	del	1185229.453548	nan	nan	nan	nan	nan
1428.15234375	0.0	80	2924856	115	63	9	1	0	1185231.9985096	1185231.9990266	80	1185235.4716585	1185235.4721572	40	1185238.8492627	1185238.849748	100	imm	1185239.8919253	1185240.4065085	1185240.4069663	120.0	3.0	1185241.348424
1431.625	0.0	40	2931968	115	63	9	1	0	1185231.9985096	1185231.9990266	80	1185235.4716585	1185235.4721572	40	1185238.8492627	1185238.849748	100	imm	1185239.8919253	1185240.4065085	1185240.4069663	120.0	3.0	1185241.348424
1435.00244140625	0.0	100	2938885	115	63	9	1	0	1185231.9985096	1185231.9990266	80	1185235.4716585	1185235.4721572	40	1185238.8492627	1185238.849748	100	imm	1185239.8919253	1185240.4065085	1185240.4069663	120.0	3.0	1185241.348424
1436.56005859375	0.0	120	2942075	115	63	9	1	0	1185231.9985096	1185231.9990266	80	1185235.4716585	1185235.4721572	40	1185238.8492627	1185238.849748	100	imm	1185239.8919253	1185240.4065085	1185240.4069663	120.0	3.0	1185241.348424
1439.8876953125	0.0	80	2948890	116	60	200	1	1	1185243.7341893	1185243.7346984	80	1185246.7732857	1185246.7737695	40	1185250.2170171	1185250.2175197	100	imm	1185255.4448039	1185255.9571186	1185255.95757	120.0	3.0	1185257.5405015
1442.92626953125	0.0	40	2955113	116	60	200	1	1	1185243.7341893	1185243.7346984	80	1185246.7732857	1185246.7737695	40	1185250.2170171	1185250.2175197	100	imm	1185255.4448039	1185255.9571186	1185255.95757	120.0	3.0	1185257.5405015
1446.3701171875	0.0	100	2962166	116	60	200	1	1	1185243.7341893	1185243.7346984	80	1185246.7732857	1185246.7737695	40	1185250.2170171	1185250.2175197	100	imm	1185255.4448039	1185255.9571186	1185255.95757	120.0	3.0	1185257.5405015
1452.10986328125	0.0	120	2973921	116	60	200	1	1	1185243.7341893	1185243.7346984	80	1185246.7732857	1185246.7737695	40	1185250.2170171	1185250.2175197	100	imm	1185255.4448039	1185255.9571186	1185255.95757	120.0	3.0	1185257.5405015
1456.1767578125	0.0	80	2982250	117	90	60	0	1	1185260.0237916	1185260.0242667	80	1185263.5237367	1185263.5242289	40	1185266.9671925	1185266.9676462	100	del	1185269.6439761	nan	nan	nan	nan	nan
1459.67626953125	0.0	40	2989417	117	90	60	0	1	1185260.0237916	1185260.0242667	80	1185263.5237367	1185263.5242289	40	1185266.9671925	1185266.9676462	100	del	1185269.6439761	nan	nan	nan	nan	nan
1463.11962890625	0.0	100	2996469	117	90	60	0	1	1185260.0237916	1185260.0242667	80	1185263.5237367	1185263.5242289	40	1185266.9671925	1185266.9676462	100	del	1185269.6439761	nan	nan	nan	nan	nan
1468.70654296875	0.0	80	3007911	118	90	290	0	0	1185272.5542069	1185272.5546942	80	1185275.818264	1185275.8187617	40	1185278.920193	1185278.9207169	100	del	1185279.5089069	nan	nan	nan	nan	nan
1471.970703125	0.0	40	3014596	118	90	290	0	0	1185272.5542069	1185272.5546942	80	1185275.818264	1185275.8187617	40	1185278.920193	1185278.9207169	100	del	1185279.5089069	nan	nan	nan	nan	nan
1475.072265625	0.0	100	3020948	118	90	290	0	0	1185272.5542069	1185272.5546942	80	1185275.818264	1185275.8187617	40	1185278.920193	1185278.9207169	100	del	1185279.5089069	nan	nan	nan	nan	nan
1478.37939453125	0.0	80	3027721	119	53	200	1	1	1185282.2272444	1185282.2277538	80	1185285.3016456	1185285.3020557	40	1185288.330612	1185288.3311228	100	imm	1185290.7646517	1185291.2783424	1185291.2788045	120.0	3.0	1185292.0926397
1481.45361328125	0.0	40	3034017	119	53	200	1	1	1185282.2272444	1185282.2277538	80	1185285.3016456	1185285.3020557	40	1185288.330612	1185288.3311228	100	imm	1185290.7646517	1185291.2783424	1185291.2788045	120.0	3.0	1185292.0926397
1484.482421875	0.0	100	3040220	119	53	200	1	1	1185282.2272444	1185282.2277538	80	1185285.3016456	1185285.3020557	40	1185288.330612	1185288.3311228	100	imm	1185290.7646517	1185291.2783424	1185291.2788045	120.0	3.0	1185292.0926397
1487.43017578125	0.0	120	3046257	119	53	200	1	1	1185282.2272444	1185282.2277538	80	1185285.3016456	1185285.3020557	40	1185288.330612	1185288.3311228	100	imm	1185290.7646517	1185291.2783424	1185291.2788045	120.0	3.0	1185292.0926397
1490.73046875	0.0	80	3053016	120	97	140	0	0	1185294.5786908	1185294.5791854	80	1185297.7361251	1185297.7366183	40	1185300.8978845	1185300.8983996	100	del	1185302.380544	nan	nan	nan	nan	nan
1493.8876953125	0.0	40	3059482	120	97	140	0	0	1185294.5786908	1185294.5791854	80	1185297.7361251	1185297.7366183	40	1185300.8978845	1185300.8983996	100	del	1185302.380544	nan	nan	nan	nan	nan
1497.04931640625	0.0	100	3065957	120	97	140	0	0	1185294.5786908	1185294.5791854	80	1185297.7361251	1185297.7366183	40	1185300.8978845	1185300.8983996	100	del	1185302.380544	nan	nan	nan	nan	nan
1519.93115234375	0.0	80	3112819	121	57	400	1	1	1185323.7801991	1185323.7807107	80	1185327.0216285	1185327.022129	40	1185330.3591181	1185330.3596446	100	del	1185331.4041049	1185331.9180132	1185331.9185925	120.0	3.0	1185332.8766524
1523.17236328125	0.0	40	3119457	121	57	400	1	1	1185323.7801991	1185323.7807107	80	1185327.0216285	1185327.022129	40	1185330.3591181	1185330.3596446	100	del	1185331.4041049	1185331.9180132	1185331.9185925	120.0	3.0	1185332.8766524
1526.509765625	0.0	100	3126292	121	57	400	1	1	1185323.7801991	1185323.7807107	80	1185327.0216285	1185327.022129	40	1185330.3591181	1185330.3596446	100	del	1185331.4041049	1185331.9180132	1185331.9185925	120.0	3.0	1185332.8766524
1528.06884765625	0.0	120	3129485	121	57	400	1	1	1185323.7801991	1185323.7807107	80	1185327.0216285	1185327.022129	40	1185330.3591181	1185330.3596446	100	del	1185331.4041049	1185331.9180132	1185331.9185925	120.0	3.0	1185332.8766524
1531.05517578125	0.0	80	3135601	122	57	140	0	1	1185334.90452	1185334.9050176	80	1185338.3332827	1185338.333785	40	1185341.6267209	1185341.6272496	100	del	1185342.5339746	nan	nan	nan	nan	nan
1534.48388671875	0.0	40	3142623	122	57	140	0	1	1185334.90452	1185334.9050176	80	1185338.3332827	1185338.333785	40	1185341.6267209	1185341.6272496	100	del	1185342.5339746	nan	nan	nan	nan	nan
1537.77734375	0.0	100	3149368	122	57	140	0	1	1185334.90452	1185334.9050176	80	1185338.3332827	1185338.333785	40	1185341.6267209	1185341.6272496	100	del	1185342.5339746	nan	nan	nan	nan	nan
1541.6298828125	0.0	80	3157258	123	50	20	0	0	1185345.4794978	1185345.479983	80	1185348.6610305	1185348.6615481	40	1185351.8972225	1185351.8977423	100	imm	1185353.5568927	nan	nan	nan	nan	nan
1544.8115234375	0.0	40	3163774	123	50	20	0	0	1185345.4794978	1185345.479983	80	1185348.6610305	1185348.6615481	40	1185351.8972225	1185351.8977423	100	imm	1185353.5568927	nan	nan	nan	nan	nan
1548.04736328125	0.0	100	3170401	123	50	20	0	0	1185345.4794978	1185345.479983	80	1185348.6610305	1185348.6615481	40	1185351.8972225	1185351.8977423	100	imm	1185353.5568927	nan	nan	nan	nan	nan
1552.251953125	0.0	80	3179012	124	63	290	0	0	1185356.1015832	1185356.1021159	80	1185359.1981008	1185359.1987041	40	1185362.542611	1185362.5430925	100	del	1185363.4058853	nan	nan	nan	nan	nan
1555.34814453125	0.0	40	3185353	124	63	290	0	0	1185356.1015832	1185356.1021159	80	1185359.1981008	1185359.1987041	40	1185362.542611	1185362.5430925	100	del	1185363.4058853	nan	nan	nan	nan	nan
1558.6923828125	0.0	100	3192202	124	63	290	0	0	1185356.1015832	1185356.1021159	80	1185359.1981008	1185359.1987041	40	1185362.542611	1185362.5430925	100	del	1185363.4058853	nan	nan	nan	nan	nan
1562.23876953125	0.0	80	3199465	125	60	9	1	0	1185366.0890284	1185366.0895208	80	1185369.5457612	1185369.5462574	40	1185372.6191137	1185372.6196297	100	imm	1185373.1725809	1185373.6860485	1185373.6865555	120.0	3.0	1185374.8368267
1565.6953125	0.0	40	3206544	125	60	9	1	0	1185366.0890284	1185366.0895208	80	1185369.5457612	1185369.5462574	40	1185372.6191137	1185372.6196297	100	imm	1185373.1725809	1185373.6860485	1185373.6865555	120.0	3.0	1185374.8368267
1568.7685546875	0.0	100	3212838	125	60	9	1	0	1185366.0890284	1185366.0895208	80	1185369.5457612	1185369.5462574	40	1185372.6191137	1185372.6196297	100	imm	1185373.1725809	1185373.6860485	1185373.6865555	120.0	3.0	1185374.8368267
1569.8359375	0.0	120	3215024	125	60	9	1	0	1185366.0890284	1185366.0895208	80	1185369.5457612	1185369.5462574	40	1185372.6191137	1185372.6196297	100	imm	1185373.1725809	1185373.6860485	1185373.6865555	120.0	3.0	1185374.8368267
1573.49609375	0.0	80	3222520	126	73	20	0	1	1185377.3465241	1185377.347049	80	1185380.6225229	1185380.6228277	40	1185383.9925693	1185383.9930393	100	imm	1185384.6526112	nan	nan	nan	nan	nan
1576.77197265625	0.0	40	3229229	126	73	20	0	1	1185377.3465241	1185377.347049	80	1185380.6225229	1185380.6228277	40	1185383.9925693	1185383.9930393	100	imm	1185384.6526112	nan	nan	nan	nan	nan
1580.14208984375	0.0	100	3236131	126	73	20	0	1	1185377.3465241	1185377.347049	80	1185380.6225229	1185380.6228277	40	1185383.9925693	1185383.9930393	100	imm	1185384.6526112	nan	nan	nan	nan	nan
1583.81982421875	0.0	80	3243663	127	50	290	0	0	1185387.6704589	1185387.6709514	80	1185390.8219129	1185390.8224005	40	1185394.0422999	1185394.0427912	100	del	1185394.8283702	nan	nan	nan	nan	nan
1586.97119140625	0.0	40	3250117	127	50	290	0	0	1185387.6704589	1185387.6709514	80	1185390.8219129	1185390.8224005	40	1185394.0422999	1185394.0427912	100	del	1185394.8283702	nan	nan	nan	nan	nan
1590.19140625	0.0	100	3256712	127	50	290	0	0	1185387.6704589	1185387.6709514	80	1185390.8219129	1185390.8224005	40	1185394.0422999	1185394.0427912	100	del	1185394.8283702	nan	nan	nan	nan	nan
1593.72900390625	0.0	80	3263957	128	70	9	1	0	1185397.5799464	1185397.5804801	80	1185400.9693936	1185400.9698916	40	1185404.3917507	1185404.3922152	100	imm	1185404.9406973	1185405.4538531	1185405.4544265	120.0	3.0	1185406.5167184
1597.1181640625	0.0	40	3270898	128	70	9	1	0	1185397.5799464	1185397.5804801	80	1185400.9693936	1185400.9698916	40	1185404.3917507	1185404.3922152	100	imm	1185404.9406973	1185405.4538531	1185405.4544265	120.0	3.0	1185406.5167184
1600.54052734375	0.0	100	3277907	128	70	9	1	0	1185397.5799464	1185397.5804801	80	1185400.9693936	1185400.9698916	40	1185404.3917507	1185404.3922152	100	imm	1185404.9406973	1185405.4538531	1185405.4544265	120.0	3.0	1185406.5167184
1601.6025390625	0.0	120	3280082	128	70	9	1	0	1185397.5799464	1185397.5804801	80	1185400.9693936	1185400.9698916	40	1185404.3917507	1185404.3922152	100	imm	1185404.9406973	1185405.4538531	1185405.4544265	120.0	3.0	1185406.5167184
1604.7314453125	0.0	80	3286490	129	87	20	0	1	1185408.5826007	1185408.5830062	80	1185411.679538	1185411.6800373	40	1185414.8718735	1185414.8723689	100	imm	1185415.4765844	nan	nan	nan	nan	nan
1607.828125	0.0	40	3292832	129	87	20	0	1	1185408.5826007	1185408.5830062	80	1185411.679538	1185411.6800373	40	1185414.8718735	1185414.8723689	100	imm	1185415.4765844	nan	nan	nan	nan	nan
1611.0205078125	0.0	100	3299370	129	87	20	0	1	1185408.5826007	1185408.5830062	80	1185411.679538	1185411.6800373	40	1185414.8718735	1185414.8723689	100	imm	1185415.4765844	nan	nan	nan	nan	nan
1614.17138671875	0.0	80	3305823	130	87	140	0	0	1185418.0228785	1185418.0233446	80	1185421.2920663	1185421.2925808	40	1185424.472661	1185424.4731996	100	del	1185425.9980426	nan	nan	nan	nan	nan
1617.4404296875	0.0	40	3312518	130	87	140	0	0	1185418.0228785	1185418.0233446	80	1185421.2920663	1185421.2925808	40	1185424.472661	1185424.4731996	100	del	1185425.9980426	nan	nan	nan	nan	nan
1620.62109375	0.0	100	3319032	130	87	140	0	0	1185418.0228785	1185418.0233446	80	1185421.2920663	1185421.2925808	40	1185424.472661	1185424.4731996	100	del	1185425.9980426	nan	nan	nan	nan	nan
1624.7509765625	0.0	80	3327490	131	67	400	1	1	1185428.6031006	1185428.6035033	80	1185431.7150106	1185431.7155121	40	1185435.1810706	1185435.1815951	100	del	1185436.0132303	1185436.5265255	1185436.5269617	120.0	3.0	1185437.3890788
1627.86279296875	0.0	40	3333863	131	67	400	1	1	1185428.6031006	1185428.6035033	80	1185431.7150106	1185431.7155121	40	1185435.1810706	1185435.1815951	100	del	1185436.0132303	1185436.5265255	1185436.5269617	120.0	3.0	1185437.3890788
1631.3291015625	0.0	100	3340962	131	67	400	1	1	1185428.6031006	1185428.6035033	80	1185431.7150106	1185431.7155121	40	1185435.1810706	1185435.1815951	100	del	1185436.0132303	1185436.5265255	1185436.5269617	120.0	3.0	1185437.3890788
1632.67431640625	0.0	120	3343717	131	67	400	1	1	1185428.6031006	1185428.6035033	80	1185431.7150106	1185431.7155121	40	1185435.1810706	1185435.1815951	100	del	1185436.0132303	1185436.5265255	1185436.5269617	120.0	3.0	1185437.3890788
1635.89013671875	0.0	80	3350303	132	53	90	1	0	1185439.7425016	1185439.7430077	80	1185442.9844323	1185442.9848838	40	1185446.4534962	1185446.4539728	100	del	1185447.1020837	1185447.6145329	1185447.6150395	120.0	3.0	1185448.6372156
1639.13232421875	0.0	40	3356943	132	53	90	1	0	1185439.7425016	1185439.7430077	80	1185442.9844323	1185442.9848838	40	1185446.4534962	1185446.4539728	100	del	1185447.1020837	1185447.6145329	1185447.6150395	120.0	3.0	1185448.6372156
1642.60107421875	0.0	100	3364047	132	53	90	1	0	1185439.7425016	1185439.7430077	80	1185442.9844323	1185442.9848838	40	1185446.4534962	1185446.4539728	100	del	1185447.1020837	1185447.6145329	1185447.6150395	120.0	3.0	1185448.6372156
1643.76220703125	0.0	120	3366425	132	53	90	1	0	1185439.7425016	1185439.7430077	80	1185442.9844323	1185442.9848838	40	1185446.4534962	1185446.4539728	100	del	1185447.1020837	1185447.6145329	1185447.6150395	120.0	3.0	1185448.6372156
1646.8525390625	0.0	80	3372754	133	80	560	0	1	1185450.7051559	1185450.7056825	80	1185454.0853552	1185454.0858264	40	1185457.4675911	1185457.468093	100	del	1185458.2684975	nan	nan	nan	nan	nan
1650.23291015625	0.0	40	3379677	133	80	560	0	1	1185450.7051559	1185450.7056825	80	1185454.0853552	1185454.0858264	40	1185457.4675911	1185457.468093	100	del	1185458.2684975	nan	nan	nan	nan	nan
1653.61474609375	0.0	100	3386603	133	80	560	0	1	1185450.7051559	1185450.7056825	80	1185454.0853552	1185454.0858264	40	1185457.4675911	1185457.468093	100	del	1185458.2684975	nan	nan	nan	nan	nan
1657.21337890625	0.0	80	3393973	134	77	200	1	1	1185461.0664011	1185461.0668558	80	1185464.1658546	1185464.1663352	40	1185467.4779463	1185467.4784867	100	imm	1185468.2846366	1185468.7981912	1185468.7986851	120.0	3.0	1185469.7011295
1660.31298828125	0.0	40	3400321	134	77	200	1	1	1185461.0664011	1185461.0668558	80	1185464.1658546	1185464.1663352	40	1185467.4779463	1185467.4784867	100	imm	1185468.2846366	1185468.7981912	1185468.7986851	120.0	3.0	1185469.7011295
1663.625	0.0	100	3407104	134	77	200	1	1	1185461.0664011	1185461.0668558	80	1185464.1658546	1185464.1663352	40	1185467.4779463	1185467.4784867	100	imm	1185468.2846366	1185468.7981912	1185468.7986851	120.0	3.0	1185469.7011295
1664.9453125	0.0	120	3409808	134	77	200	1	1	1185461.0664011	1185461.0668558	80	1185464.1658546	1185464.1663352	40	1185467.4779463	1185467.4784867	100	imm	1185468.2846366	1185468.7981912	1185468.7986851	120.0	3.0	1185469.7011295
1668.013671875	0.0	80	3416092	135	93	9	1	0	1185471.866836	1185471.8673355	80	1185474.9421932	1185474.9426837	40	1185478.0617124	1185478.0622603	100	del	1185478.9090978	1185479.4225099	1185479.4230335	120.0	3.0	1185481.41395
1671.0888671875	0.0	40	3422390	135	93	9	1	0	1185471.866836	1185471.8673355	80	1185474.9421932	1185474.9426837	40	1185478.0617124	1185478.0622603	100	del	1185478.9090978	1185479.4225099	1185479.4230335	120.0	3.0	1185481.41395
1674.20849609375	0.0	100	3428779	135	93	9	1	0	1185471.866836	1185471.8673355	80	1185474.9421932	1185474.9426837	40	1185478.0617124	1185478.0622603	100	del	1185478.9090978	1185479.4225099	1185479.4230335	120.0	3.0	1185481.41395
1675.5693359375	0.0	120	3431566	135	93	9	1	0	1185471.866836	1185471.8673355	80	1185474.9421932	1185474.9426837	40	1185478.0617124	1185478.0622603	100	del	1185478.9090978	1185479.4225099	1185479.4230335	120.0	3.0	1185481.41395
1680.0234375	0.0	80	3440688	136	53	560	0	1	1185483.8769714	1185483.8774749	80	1185486.9202637	1185486.9208443	40	1185490.054934	1185490.0554425	100	imm	1185492.9729366	nan	nan	nan	nan	nan
1683.06689453125	0.0	40	3446921	136	53	560	0	1	1185483.8769714	1185483.8774749	80	1185486.9202637	1185486.9208443	40	1185490.054934	1185490.0554425	100	imm	1185492.9729366	nan	nan	nan	nan	nan
