onset	duration	value	sample	trial_idx	val	del	is_cued	rev_opts	del_pres_displaytime	del_pres_triggertime	del_pres_triggercode	val_pres_displaytime	val_pres_triggertime	val_pres_triggercode	choice_displaytime	choice_triggertime	choice_triggercode	choice	choice_time	viv	viv_time	viv_displaytime	viv_triggertime	viv_triggercode
28.2763671875	0.0	80	57910	1	93	30	0	1	1067211.6139204	1067211.614216	80	1067214.9289935	1067214.9294939	40	1067218.3687442	1067218.3690073	100	del	1067220.0303474	nan	nan	nan	nan	nan
31.59130859375	0.0	40	64699	1	93	30	0	1	1067211.6139204	1067211.614216	80	1067214.9289935	1067214.9294939	40	1067218.3687442	1067218.3690073	100	del	1067220.0303474	nan	nan	nan	nan	nan
35.03076171875	0.0	100	71743	1	93	30	0	1	1067211.6139204	1067211.614216	80	1067214.9289935	1067214.9294939	40	1067218.3687442	1067218.3690073	100	del	1067220.0303474	nan	nan	nan	nan	nan
39.70556640625	0.0	80	81317	2	50	60	1	0	1067223.0434054	1067223.0444426	80	1067226.5179371	1067226.5191564	40	1067229.7402653	1067229.7414684	100	del	1067231.0062428	4.0	1067232.990275	1067231.5191381	1067231.519481	120.0
43.18017578125	0.0	40	88433	2	50	60	1	0	1067223.0434054	1067223.0444426	80	1067226.5179371	1067226.5191564	40	1067229.7402653	1067229.7414684	100	del	1067231.0062428	4.0	1067232.990275	1067231.5191381	1067231.519481	120.0
46.40234375	0.0	100	95032	2	50	60	1	0	1067223.0434054	1067223.0444426	80	1067226.5179371	1067226.5191564	40	1067229.7402653	1067229.7414684	100	del	1067231.0062428	4.0	1067232.990275	1067231.5191381	1067231.519481	120.0
48.18115234375	0.0	120	98675	2	50	60	1	0	1067223.0434054	1067223.0444426	80	1067226.5179371	1067226.5191564	40	1067229.7402653	1067229.7414684	100	del	1067231.0062428	4.0	1067232.990275	1067231.5191381	1067231.519481	120.0
51.66796875	0.0	80	105816	3	90	7	1	1	1067235.0060076	1067235.0064607	80	1067238.284147	1067238.2845867	40	1067241.4027533	1067241.4032179	100	del	1067242.5019262	3.0	1067244.3516233	1067243.0118837	1067243.0121541	120.0
54.94580078125	0.0	40	112529	3	90	7	1	1	1067235.0060076	1067235.0064607	80	1067238.284147	1067238.2845867	40	1067241.4027533	1067241.4032179	100	del	1067242.5019262	3.0	1067244.3516233	1067243.0118837	1067243.0121541	120.0
58.064453125	0.0	100	118916	3	90	7	1	1	1067235.0060076	1067235.0064607	80	1067238.284147	1067238.2845867	40	1067241.4027533	1067241.4032179	100	del	1067242.5019262	3.0	1067244.3516233	1067243.0118837	1067243.0121541	120.0
59.67333984375	0.0	120	122211	3	90	7	1	1	1067235.0060076	1067235.0064607	80	1067238.284147	1067238.2845867	40	1067241.4027533	1067241.4032179	100	del	1067242.5019262	3.0	1067244.3516233	1067243.0118837	1067243.0121541	120.0
63.14013671875	0.0	80	129311	4	60	200	1	1	1067246.4786379	1067246.4791057	80	1067249.649095	1067249.649554	40	1067252.7114871	1067252.7119836	100	imm	1067253.9422248	3.0	1067256.5262961	1067254.4528394	1067254.4531968	120.0
66.310546875	0.0	40	135804	4	60	200	1	1	1067246.4786379	1067246.4791057	80	1067249.649095	1067249.649554	40	1067252.7114871	1067252.7119836	100	imm	1067253.9422248	3.0	1067256.5262961	1067254.4528394	1067254.4531968	120.0
69.373046875	0.0	100	142076	4	60	200	1	1	1067246.4786379	1067246.4791057	80	1067249.649095	1067249.649554	40	1067252.7114871	1067252.7119836	100	imm	1067253.9422248	3.0	1067256.5262961	1067254.4528394	1067254.4531968	120.0
71.1142578125	0.0	120	145642	4	60	200	1	1	1067246.4786379	1067246.4791057	80	1067249.649095	1067249.649554	40	1067252.7114871	1067252.7119836	100	imm	1067253.9422248	3.0	1067256.5262961	1067254.4528394	1067254.4531968	120.0
75.57763671875	0.0	80	154783	5	97	7	1	0	1067258.9161831	1067258.9166273	80	1067262.2984346	1067262.2989483	40	1067265.5859277	1067265.5863636	100	del	1067266.5754652	3.0	1067269.4066769	1067267.0863853	1067267.0867241	120.0
78.9599609375	0.0	40	161710	5	97	7	1	0	1067258.9161831	1067258.9166273	80	1067262.2984346	1067262.2989483	40	1067265.5859277	1067265.5863636	100	del	1067266.5754652	3.0	1067269.4066769	1067267.0863853	1067267.0867241	120.0
82.2470703125	0.0	100	168442	5	97	7	1	0	1067258.9161831	1067258.9166273	80	1067262.2984346	1067262.2989483	40	1067265.5859277	1067265.5863636	100	del	1067266.5754652	3.0	1067269.4066769	1067267.0863853	1067267.0867241	120.0
83.74755859375	0.0	120	171515	5	97	7	1	0	1067258.9161831	1067258.9166273	80	1067262.2984346	1067262.2989483	40	1067265.5859277	1067265.5863636	100	del	1067266.5754652	3.0	1067269.4066769	1067267.0863853	1067267.0867241	120.0
88.25146484375	0.0	80	180739	6	83	300	1	0	1067271.5905135	1067271.5909785	80	1067275.014552	1067275.0151286	40	1067278.3043739	1067278.3048926	100	imm	1067281.2306274	3.0	1067284.0621315	1067281.7431043	1067281.7435836	120.0
91.67578125	0.0	40	187752	6	83	300	1	0	1067271.5905135	1067271.5909785	80	1067275.014552	1067275.0151286	40	1067278.3043739	1067278.3048926	100	imm	1067281.2306274	3.0	1067284.0621315	1067281.7431043	1067281.7435836	120.0
94.96533203125	0.0	100	194489	6	83	300	1	0	1067271.5905135	1067271.5909785	80	1067275.014552	1067275.0151286	40	1067278.3043739	1067278.3048926	100	imm	1067281.2306274	3.0	1067284.0621315	1067281.7431043	1067281.7435836	120.0
98.40380859375	0.0	120	201531	6	83	300	1	0	1067271.5905135	1067271.5909785	80	1067275.014552	1067275.0151286	40	1067278.3043739	1067278.3048926	100	imm	1067281.2306274	3.0	1067284.0621315	1067281.7431043	1067281.7435836	120.0
103.21826171875	0.0	80	211391	7	87	460	0	0	1067286.5577128	1067286.5581887	80	1067290.0115898	1067290.0120801	40	1067293.2048452	1067293.205356	100	imm	1067294.062499	nan	nan	nan	nan	nan
106.67236328125	0.0	40	218465	7	87	460	0	0	1067286.5577128	1067286.5581887	80	1067290.0115898	1067290.0120801	40	1067293.2048452	1067293.205356	100	imm	1067294.062499	nan	nan	nan	nan	nan
109.865234375	0.0	100	225004	7	87	460	0	0	1067286.5577128	1067286.5581887	80	1067290.0115898	1067290.0120801	40	1067293.2048452	1067293.205356	100	imm	1067294.062499	nan	nan	nan	nan	nan
113.513671875	0.0	80	232476	8	80	250	0	0	1067296.853348	1067296.8538833	80	1067300.0343496	1067300.0348037	40	1067303.3588931	1067303.3594232	100	del	1067304.4541363	nan	nan	nan	nan	nan
116.69482421875	0.0	40	238991	8	80	250	0	0	1067296.853348	1067296.8538833	80	1067300.0343496	1067300.0348037	40	1067303.3588931	1067303.3594232	100	del	1067304.4541363	nan	nan	nan	nan	nan
120.01904296875	0.0	100	245799	8	80	250	0	0	1067296.853348	1067296.8538833	80	1067300.0343496	1067300.0348037	40	1067303.3588931	1067303.3594232	100	del	1067304.4541363	nan	nan	nan	nan	nan
124.03173828125	0.0	80	254017	9	60	60	1	0	1067307.37176	1067307.372214	80	1067310.7523148	1067310.7528261	40	1067313.8301068	1067313.8306455	100	del	1067314.5740245	4.0	1067316.7276538	1067315.0859247	1067315.0863651	120.0
127.41259765625	0.0	40	260941	9	60	60	1	0	1067307.37176	1067307.372214	80	1067310.7523148	1067310.7528261	40	1067313.8301068	1067313.8306455	100	del	1067314.5740245	4.0	1067316.7276538	1067315.0859247	1067315.0863651	120.0
130.490234375	0.0	100	267244	9	60	60	1	0	1067307.37176	1067307.372214	80	1067310.7523148	1067310.7528261	40	1067313.8301068	1067313.8306455	100	del	1067314.5740245	4.0	1067316.7276538	1067315.0859247	1067315.0863651	120.0
131.74560546875	0.0	120	269815	9	60	60	1	0	1067307.37176	1067307.372214	80	1067310.7523148	1067310.7528261	40	1067313.8301068	1067313.8306455	100	del	1067314.5740245	4.0	1067316.7276538	1067315.0859247	1067315.0863651	120.0
135.81103515625	0.0	80	278141	10	60	110	0	1	1067319.1513163	1067319.1517116	80	1067322.1713659	1067322.1718296	40	1067325.3915385	1067325.3920937	100	del	1067326.6382326	nan	nan	nan	nan	nan
138.8310546875	0.0	40	284326	10	60	110	0	1	1067319.1513163	1067319.1517116	80	1067322.1713659	1067322.1718296	40	1067325.3915385	1067325.3920937	100	del	1067326.6382326	nan	nan	nan	nan	nan
142.05126953125	0.0	100	290921	10	60	110	0	1	1067319.1513163	1067319.1517116	80	1067322.1713659	1067322.1718296	40	1067325.3915385	1067325.3920937	100	del	1067326.6382326	nan	nan	nan	nan	nan
146.181640625	0.0	80	299380	11	100	700	1	1	1067329.5220495	1067329.5225527	80	1067332.9204433	1067332.9209362	40	1067336.11464	1067336.1149427	100	del	1067337.2147284	2.0	1067339.1906169	1067337.7269947	1067337.7273841	120.0
149.580078125	0.0	40	306340	11	100	700	1	1	1067329.5220495	1067329.5225527	80	1067332.9204433	1067332.9209362	40	1067336.11464	1067336.1149427	100	del	1067337.2147284	2.0	1067339.1906169	1067337.7269947	1067337.7273841	120.0
152.77392578125	0.0	100	312881	11	100	700	1	1	1067329.5220495	1067329.5225527	80	1067332.9204433	1067332.9209362	40	1067336.11464	1067336.1149427	100	del	1067337.2147284	2.0	1067339.1906169	1067337.7269947	1067337.7273841	120.0
154.38623046875	0.0	120	316183	11	100	700	1	1	1067329.5220495	1067329.5225527	80	1067332.9204433	1067332.9209362	40	1067336.11464	1067336.1149427	100	del	1067337.2147284	2.0	1067339.1906169	1067337.7269947	1067337.7273841	120.0
158.234375	0.0	80	324064	12	57	460	0	1	1067341.5749754	1067341.5753508	80	1067345.0286818	1067345.0291476	40	1067348.1633893	1067348.1639322	100	imm	1067349.4699638	nan	nan	nan	nan	nan
161.68798828125	0.0	40	331137	12	57	460	0	1	1067341.5749754	1067341.5753508	80	1067345.0286818	1067345.0291476	40	1067348.1633893	1067348.1639322	100	imm	1067349.4699638	nan	nan	nan	nan	nan
164.82275390625	0.0	100	337557	12	57	460	0	1	1067341.5749754	1067341.5753508	80	1067345.0286818	1067345.0291476	40	1067348.1633893	1067348.1639322	100	imm	1067349.4699638	nan	nan	nan	nan	nan
168.70751953125	0.0	80	345513	13	83	7	1	0	1067352.0483083	1067352.0487033	80	1067355.1663937	1067355.1667375	40	1067358.354274	1067358.3547623	100	del	1067360.2540855	3.0	1067362.4956363	1067360.7635355	1067360.7638623	120.0
171.8251953125	0.0	40	351898	13	83	7	1	0	1067352.0483083	1067352.0487033	80	1067355.1663937	1067355.1667375	40	1067358.354274	1067358.3547623	100	del	1067360.2540855	3.0	1067362.4956363	1067360.7635355	1067360.7638623	120.0
175.01318359375	0.0	100	358427	13	83	7	1	0	1067352.0483083	1067352.0487033	80	1067355.1663937	1067355.1667375	40	1067358.354274	1067358.3547623	100	del	1067360.2540855	3.0	1067362.4956363	1067360.7635355	1067360.7638623	120.0
177.42236328125	0.0	120	363361	13	83	7	1	0	1067352.0483083	1067352.0487033	80	1067355.1663937	1067355.1667375	40	1067358.354274	1067358.3547623	100	del	1067360.2540855	3.0	1067362.4956363	1067360.7635355	1067360.7638623	120.0
181.3115234375	0.0	80	371326	14	63	60	1	1	1067364.6529482	1067364.6534196	80	1067368.125467	1067368.1259613	40	1067371.1648302	1067371.16527	100	del	1067372.8877035	3.0	1067374.7835671	1067373.3977369	1067373.3980605	120.0
184.7841796875	0.0	40	378438	14	63	60	1	1	1067364.6529482	1067364.6534196	80	1067368.125467	1067368.1259613	40	1067371.1648302	1067371.16527	100	del	1067372.8877035	3.0	1067374.7835671	1067373.3977369	1067373.3980605	120.0
187.8232421875	0.0	100	384662	14	63	60	1	1	1067364.6529482	1067364.6534196	80	1067368.125467	1067368.1259613	40	1067371.1648302	1067371.16527	100	del	1067372.8877035	3.0	1067374.7835671	1067373.3977369	1067373.3980605	120.0
190.05615234375	0.0	120	389235	14	63	60	1	1	1067364.6529482	1067364.6534196	80	1067368.125467	1067368.1259613	40	1067371.1648302	1067371.16527	100	del	1067372.8877035	3.0	1067374.7835671	1067373.3977369	1067373.3980605	120.0
193.74951171875	0.0	80	396799	15	87	7	1	0	1067377.0911772	1067377.0915141	80	1067380.1791399	1067380.1795937	40	1067383.6119192	1067383.6124198	100	del	1067384.5111521	3.0	1067386.7504018	1067385.0248972	1067385.0254179	120.0
196.83740234375	0.0	40	403123	15	87	7	1	0	1067377.0911772	1067377.0915141	80	1067380.1791399	1067380.1795937	40	1067383.6119192	1067383.6124198	100	del	1067384.5111521	3.0	1067386.7504018	1067385.0248972	1067385.0254179	120.0
200.27001953125	0.0	100	410153	15	87	7	1	0	1067377.0911772	1067377.0915141	80	1067380.1791399	1067380.1795937	40	1067383.6119192	1067383.6124198	100	del	1067384.5111521	3.0	1067386.7504018	1067385.0248972	1067385.0254179	120.0
201.68310546875	0.0	120	413047	15	87	7	1	0	1067377.0911772	1067377.0915141	80	1067380.1791399	1067380.1795937	40	1067383.6119192	1067383.6124198	100	del	1067384.5111521	3.0	1067386.7504018	1067385.0248972	1067385.0254179	120.0
205.505859375	0.0	80	420876	16	57	700	1	0	1067388.8476634	1067388.8481588	80	1067392.1065033	1067392.106969	40	1067395.6231409	1067395.6236954	100	imm	1067396.6056147	2.0	1067399.0705549	1067397.1163793	1067397.1166856	120.0
208.7646484375	0.0	40	427550	16	57	700	1	0	1067388.8476634	1067388.8481588	80	1067392.1065033	1067392.106969	40	1067395.6231409	1067395.6236954	100	imm	1067396.6056147	2.0	1067399.0705549	1067397.1163793	1067397.1166856	120.0
212.28125	0.0	100	434752	16	57	700	1	0	1067388.8476634	1067388.8481588	80	1067392.1065033	1067392.106969	40	1067395.6231409	1067395.6236954	100	imm	1067396.6056147	2.0	1067399.0705549	1067397.1163793	1067397.1166856	120.0
213.7744140625	0.0	120	437810	16	57	700	1	0	1067388.8476634	1067388.8481588	80	1067392.1065033	1067392.106969	40	1067395.6231409	1067395.6236954	100	imm	1067396.6056147	2.0	1067399.0705549	1067397.1163793	1067397.1166856	120.0
217.9169921875	0.0	80	446294	17	63	200	1	0	1067401.2592441	1067401.259638	80	1067404.2902699	1067404.2907447	40	1067407.4105649	1067407.4110743	100	del	1067408.6785998	4.0	1067412.6384308	1067409.1920034	1067409.1925494	120.0
220.9482421875	0.0	40	452502	17	63	200	1	0	1067401.2592441	1067401.259638	80	1067404.2902699	1067404.2907447	40	1067407.4105649	1067407.4110743	100	del	1067408.6785998	4.0	1067412.6384308	1067409.1920034	1067409.1925494	120.0
224.068359375	0.0	100	458892	17	63	200	1	0	1067401.2592441	1067401.259638	80	1067404.2902699	1067404.2907447	40	1067407.4105649	1067407.4110743	100	del	1067408.6785998	4.0	1067412.6384308	1067409.1920034	1067409.1925494	120.0
225.849609375	0.0	120	462540	17	63	200	1	0	1067401.2592441	1067401.259638	80	1067404.2902699	1067404.2907447	40	1067407.4105649	1067407.4110743	100	del	1067408.6785998	4.0	1067412.6384308	1067409.1920034	1067409.1925494	120.0
231.5087890625	0.0	80	474130	18	77	200	1	1	1067414.8514661	1067414.8519507	80	1067418.025992	1067418.026469	40	1067421.1547467	1067421.1552305	100	del	1067422.2704984	4.0	1067424.2698332	1067422.7830689	1067422.7835549	120.0
234.68359375	0.0	40	480632	18	77	200	1	1	1067414.8514661	1067414.8519507	80	1067418.025992	1067418.026469	40	1067421.1547467	1067421.1552305	100	del	1067422.2704984	4.0	1067424.2698332	1067422.7830689	1067422.7835549	120.0
237.81201171875	0.0	100	487039	18	77	200	1	1	1067414.8514661	1067414.8519507	80	1067418.025992	1067418.026469	40	1067421.1547467	1067421.1552305	100	del	1067422.2704984	4.0	1067424.2698332	1067422.7830689	1067422.7835549	120.0
239.4404296875	0.0	120	490374	18	77	200	1	1	1067414.8514661	1067414.8519507	80	1067418.025992	1067418.026469	40	1067421.1547467	1067421.1552305	100	del	1067422.2704984	4.0	1067424.2698332	1067422.7830689	1067422.7835549	120.0
243.40869140625	0.0	80	498501	19	57	200	1	0	1067426.751571	1067426.7520382	80	1067430.1012311	1067430.1017796	40	1067433.5953921	1067433.5958637	100	imm	1067434.5821933	4.0	1067436.6788791	1067435.0913723	1067435.0916734	120.0
246.75830078125	0.0	40	505361	19	57	200	1	0	1067426.751571	1067426.7520382	80	1067430.1012311	1067430.1017796	40	1067433.5953921	1067433.5958637	100	imm	1067434.5821933	4.0	1067436.6788791	1067435.0913723	1067435.0916734	120.0
250.25244140625	0.0	100	512517	19	57	200	1	0	1067426.751571	1067426.7520382	80	1067430.1012311	1067430.1017796	40	1067433.5953921	1067433.5958637	100	imm	1067434.5821933	4.0	1067436.6788791	1067435.0913723	1067435.0916734	120.0
251.748046875	0.0	120	515580	19	57	200	1	0	1067426.751571	1067426.7520382	80	1067430.1012311	1067430.1017796	40	1067433.5953921	1067433.5958637	100	imm	1067434.5821933	4.0	1067436.6788791	1067435.0913723	1067435.0916734	120.0
255.5703125	0.0	80	523408	20	100	30	0	0	1067438.9135125	1067438.9141133	80	1067442.3915146	1067442.3919568	40	1067445.4073062	1067445.4078181	100	del	1067446.4784561	nan	nan	nan	nan	nan
259.04833984375	0.0	40	530531	20	100	30	0	0	1067438.9135125	1067438.9141133	80	1067442.3915146	1067442.3919568	40	1067445.4073062	1067445.4078181	100	del	1067446.4784561	nan	nan	nan	nan	nan
262.06396484375	0.0	100	536707	20	100	30	0	0	1067438.9135125	1067438.9141133	80	1067442.3915146	1067442.3919568	40	1067445.4073062	1067445.4078181	100	del	1067446.4784561	nan	nan	nan	nan	nan
274.06396484375	0.0	80	561283	21	87	250	0	1	1067457.407582	1067457.4079975	80	1067460.8156781	1067460.816167	40	1067463.9457908	1067463.946285	100	imm	1067465.8382863	nan	nan	nan	nan	nan
277.47216796875	0.0	40	568263	21	87	250	0	1	1067457.407582	1067457.4079975	80	1067460.8156781	1067460.816167	40	1067463.9457908	1067463.946285	100	imm	1067465.8382863	nan	nan	nan	nan	nan
280.60205078125	0.0	100	574673	21	87	250	0	1	1067457.407582	1067457.4079975	80	1067460.8156781	1067460.816167	40	1067463.9457908	1067463.946285	100	imm	1067465.8382863	nan	nan	nan	nan	nan
285.4775390625	0.0	80	584658	22	93	300	1	0	1067468.8215989	1067468.8219871	80	1067472.2113663	1067472.2118696	40	1067475.6347426	1067475.6351511	100	del	1067476.5339389	3.0	1067477.6776857	1067477.0439811	1067477.0442809	120.0
288.86767578125	0.0	40	591601	22	93	300	1	0	1067468.8215989	1067468.8219871	80	1067472.2113663	1067472.2118696	40	1067475.6347426	1067475.6351511	100	del	1067476.5339389	3.0	1067477.6776857	1067477.0439811	1067477.0442809	120.0
292.29052734375	0.0	100	598611	22	93	300	1	0	1067468.8215989	1067468.8219871	80	1067472.2113663	1067472.2118696	40	1067475.6347426	1067475.6351511	100	del	1067476.5339389	3.0	1067477.6776857	1067477.0439811	1067477.0442809	120.0
293.69970703125	0.0	120	601497	22	93	300	1	0	1067468.8215989	1067468.8219871	80	1067472.2113663	1067472.2118696	40	1067475.6347426	1067475.6351511	100	del	1067476.5339389	3.0	1067477.6776857	1067477.0439811	1067477.0442809	120.0
296.63330078125	0.0	80	607505	23	90	460	0	1	1067479.9774061	1067479.9777504	80	1067483.3810741	1067483.3814655	40	1067486.5593204	1067486.5599229	100	imm	1067488.0542853	nan	nan	nan	nan	nan
300.03662109375	0.0	40	614475	23	90	460	0	1	1067479.9774061	1067479.9777504	80	1067483.3810741	1067483.3814655	40	1067486.5593204	1067486.5599229	100	imm	1067488.0542853	nan	nan	nan	nan	nan
303.21484375	0.0	100	620984	23	90	460	0	1	1067479.9774061	1067479.9777504	80	1067483.3810741	1067483.3814655	40	1067486.5593204	1067486.5599229	100	imm	1067488.0542853	nan	nan	nan	nan	nan
307.34033203125	0.0	80	629433	24	50	300	1	1	1067490.6848217	1067490.6853222	80	1067493.8485708	1067493.8490429	40	1067497.1539515	1067497.1544796	100	imm	1067498.4951311	3.0	1067500.5901363	1067499.0084564	1067499.008903	120.0
310.50390625	0.0	40	635912	24	50	300	1	1	1067490.6848217	1067490.6853222	80	1067493.8485708	1067493.8490429	40	1067497.1539515	1067497.1544796	100	imm	1067498.4951311	3.0	1067500.5901363	1067499.0084564	1067499.008903	120.0
313.8095703125	0.0	100	642682	24	50	300	1	1	1067490.6848217	1067490.6853222	80	1067493.8485708	1067493.8490429	40	1067497.1539515	1067497.1544796	100	imm	1067498.4951311	3.0	1067500.5901363	1067499.0084564	1067499.008903	120.0
315.6640625	0.0	120	646480	24	50	300	1	1	1067490.6848217	1067490.6853222	80	1067493.8485708	1067493.8490429	40	1067497.1539515	1067497.1544796	100	imm	1067498.4951311	3.0	1067500.5901363	1067499.0084564	1067499.008903	120.0
319.67431640625	0.0	80	654693	25	67	460	0	1	1067503.0188458	1067503.0192626	80	1067506.1715409	1067506.1719988	40	1067509.3859635	1067509.38646	100	imm	1067510.2223561	nan	nan	nan	nan	nan
322.82666015625	0.0	40	661149	25	67	460	0	1	1067503.0188458	1067503.0192626	80	1067506.1715409	1067506.1719988	40	1067509.3859635	1067509.38646	100	imm	1067510.2223561	nan	nan	nan	nan	nan
326.041015625	0.0	100	667732	25	67	460	0	1	1067503.0188458	1067503.0192626	80	1067506.1715409	1067506.1719988	40	1067509.3859635	1067509.38646	100	imm	1067510.2223561	nan	nan	nan	nan	nan
329.82763671875	0.0	80	675487	26	87	110	0	1	1067513.1723147	1067513.1728148	80	1067516.4862234	1067516.4866534	40	1067519.9968275	1067519.9973284	100	del	1067521.2776243	nan	nan	nan	nan	nan
333.14111328125	0.0	40	682273	26	87	110	0	1	1067513.1723147	1067513.1728148	80	1067516.4862234	1067516.4866534	40	1067519.9968275	1067519.9973284	100	del	1067521.2776243	nan	nan	nan	nan	nan
336.65185546875	0.0	100	689463	26	87	110	0	1	1067513.1723147	1067513.1728148	80	1067516.4862234	1067516.4866534	40	1067519.9968275	1067519.9973284	100	del	1067521.2776243	nan	nan	nan	nan	nan
340.55224609375	0.0	80	697451	27	53	700	1	0	1067523.8975361	1067523.8980281	80	1067527.3191951	1067527.3196577	40	1067530.6714451	1067530.6719736	100	imm	1067531.8703142	3.0	1067533.9102813	1067532.3794433	1067532.3797288	120.0
343.97412109375	0.0	40	704459	27	53	700	1	0	1067523.8975361	1067523.8980281	80	1067527.3191951	1067527.3196577	40	1067530.6714451	1067530.6719736	100	imm	1067531.8703142	3.0	1067533.9102813	1067532.3794433	1067532.3797288	120.0
347.326171875	0.0	100	711324	27	53	700	1	0	1067523.8975361	1067523.8980281	80	1067527.3191951	1067527.3196577	40	1067530.6714451	1067530.6719736	100	imm	1067531.8703142	3.0	1067533.9102813	1067532.3794433	1067532.3797288	120.0
349.03369140625	0.0	120	714821	27	53	700	1	0	1067523.8975361	1067523.8980281	80	1067527.3191951	1067527.3196577	40	1067530.6714451	1067530.6719736	100	imm	1067531.8703142	3.0	1067533.9102813	1067532.3794433	1067532.3797288	120.0
352.70263671875	0.0	80	722335	28	97	110	0	1	1067536.0483536	1067536.0488312	80	1067539.2939647	1067539.2943851	40	1067542.5072164	1067542.5077538	100	del	1067543.8220621	nan	nan	nan	nan	nan
355.9482421875	0.0	40	728982	28	97	110	0	1	1067536.0483536	1067536.0488312	80	1067539.2939647	1067539.2943851	40	1067542.5072164	1067542.5077538	100	del	1067543.8220621	nan	nan	nan	nan	nan
359.16162109375	0.0	100	735563	28	97	110	0	1	1067536.0483536	1067536.0488312	80	1067539.2939647	1067539.2943851	40	1067542.5072164	1067542.5077538	100	del	1067543.8220621	nan	nan	nan	nan	nan
363.29345703125	0.0	80	744025	29	83	30	0	1	1067546.6393624	1067546.6398449	80	1067550.0472014	1067550.0476784	40	1067553.1131587	1067553.1137038	100	del	1067554.5430368	nan	nan	nan	nan	nan
366.701171875	0.0	40	751004	29	83	30	0	1	1067546.6393624	1067546.6398449	80	1067550.0472014	1067550.0476784	40	1067553.1131587	1067553.1137038	100	del	1067554.5430368	nan	nan	nan	nan	nan
369.76708984375	0.0	100	757283	29	83	30	0	1	1067546.6393624	1067546.6398449	80	1067550.0472014	1067550.0476784	40	1067553.1131587	1067553.1137038	100	del	1067554.5430368	nan	nan	nan	nan	nan
374.12353515625	0.0	80	766205	30	53	1070	0	0	1067557.4697683	1067557.4702736	80	1067560.8980269	1067560.8985018	40	1067564.0893447	1067564.089818	100	del	1067565.9749744	nan	nan	nan	nan	nan
377.5517578125	0.0	40	773226	30	53	1070	0	0	1067557.4697683	1067557.4702736	80	1067560.8980269	1067560.8985018	40	1067564.0893447	1067564.089818	100	del	1067565.9749744	nan	nan	nan	nan	nan
380.7431640625	0.0	100	779762	30	53	1070	0	0	1067557.4697683	1067557.4702736	80	1067560.8980269	1067560.8985018	40	1067564.0893447	1067564.089818	100	del	1067565.9749744	nan	nan	nan	nan	nan
385.3583984375	0.0	80	789214	31	97	200	1	0	1067568.7045988	1067568.7048738	80	1067571.9996271	1067572.0001058	40	1067575.3639625	1067575.3644745	100	del	1067576.7412882	3.0	1067578.8937899	1067577.2555872	1067577.2561599	120.0
388.6533203125	0.0	40	795962	31	97	200	1	0	1067568.7045988	1067568.7048738	80	1067571.9996271	1067572.0001058	40	1067575.3639625	1067575.3644745	100	del	1067576.7412882	3.0	1067578.8937899	1067577.2555872	1067577.2561599	120.0
392.017578125	0.0	100	802852	31	97	200	1	0	1067568.7045988	1067568.7048738	80	1067571.9996271	1067572.0001058	40	1067575.3639625	1067575.3644745	100	del	1067576.7412882	3.0	1067578.8937899	1067577.2555872	1067577.2561599	120.0
393.9091796875	0.0	120	806726	31	97	200	1	0	1067568.7045988	1067568.7048738	80	1067571.9996271	1067572.0001058	40	1067575.3639625	1067575.3644745	100	del	1067576.7412882	3.0	1067578.8937899	1067577.2555872	1067577.2561599	120.0
397.9306640625	0.0	80	814962	32	70	250	0	1	1067581.2775922	1067581.2779574	80	1067584.6637422	1067584.664115	40	1067587.8724763	1067587.8729614	100	del	1067588.8216271	nan	nan	nan	nan	nan
401.31689453125	0.0	40	821897	32	70	250	0	1	1067581.2775922	1067581.2779574	80	1067584.6637422	1067584.664115	40	1067587.8724763	1067587.8729614	100	del	1067588.8216271	nan	nan	nan	nan	nan
404.52587890625	0.0	100	828469	32	70	250	0	1	1067581.2775922	1067581.2779574	80	1067584.6637422	1067584.664115	40	1067587.8724763	1067587.8729614	100	del	1067588.8216271	nan	nan	nan	nan	nan
408.20458984375	0.0	80	836003	33	97	30	0	1	1067591.5515677	1067591.5519035	80	1067595.0370421	1067595.0375516	40	1067598.3371354	1067598.3375818	100	del	1067599.6133004	nan	nan	nan	nan	nan
411.68994140625	0.0	40	843141	33	97	30	0	1	1067591.5515677	1067591.5519035	80	1067595.0370421	1067595.0375516	40	1067598.3371354	1067598.3375818	100	del	1067599.6133004	nan	nan	nan	nan	nan
414.990234375	0.0	100	849900	33	97	30	0	1	1067591.5515677	1067591.5519035	80	1067595.0370421	1067595.0375516	40	1067598.3371354	1067598.3375818	100	del	1067599.6133004	nan	nan	nan	nan	nan
419.20849609375	0.0	80	858539	34	73	110	0	0	1067602.5555245	1067602.5560005	80	1067605.7012679	1067605.7017155	40	1067609.0256972	1067609.0262305	100	del	1067610.4458293	nan	nan	nan	nan	nan
422.35400390625	0.0	40	864981	34	73	110	0	0	1067602.5555245	1067602.5560005	80	1067605.7012679	1067605.7017155	40	1067609.0256972	1067609.0262305	100	del	1067610.4458293	nan	nan	nan	nan	nan
425.6787109375	0.0	100	871790	34	73	110	0	0	1067602.5555245	1067602.5560005	80	1067605.7012679	1067605.7017155	40	1067609.0256972	1067609.0262305	100	del	1067610.4458293	nan	nan	nan	nan	nan
429.9091796875	0.0	80	880454	35	77	60	1	0	1067613.2567005	1067613.2573531	80	1067616.746995	1067616.747429	40	1067619.8049017	1067619.8055928	100	del	1067620.9893725	3.0	1067623.2061043	1067621.5007089	1067621.5010658	120.0
433.3994140625	0.0	40	887602	35	77	60	1	0	1067613.2567005	1067613.2573531	80	1067616.746995	1067616.747429	40	1067619.8049017	1067619.8055928	100	del	1067620.9893725	3.0	1067623.2061043	1067621.5007089	1067621.5010658	120.0
436.45751953125	0.0	100	893865	35	77	60	1	0	1067613.2567005	1067613.2573531	80	1067616.746995	1067616.747429	40	1067619.8049017	1067619.8055928	100	del	1067620.9893725	3.0	1067623.2061043	1067621.5007089	1067621.5010658	120.0
438.15283203125	0.0	120	897337	35	77	60	1	0	1067613.2567005	1067613.2573531	80	1067616.746995	1067616.747429	40	1067619.8049017	1067619.8055928	100	del	1067620.9893725	3.0	1067623.2061043	1067621.5007089	1067621.5010658	120.0
442.12255859375	0.0	80	905467	36	57	250	0	1	1067625.4702295	1067625.470699	80	1067628.7384863	1067628.7389785	40	1067631.7983693	1067631.7988615	100	imm	1067632.9897545	nan	nan	nan	nan	nan
445.390625	0.0	40	912160	36	57	250	0	1	1067625.4702295	1067625.470699	80	1067628.7384863	1067628.7389785	40	1067631.7983693	1067631.7988615	100	imm	1067632.9897545	nan	nan	nan	nan	nan
448.45068359375	0.0	100	918427	36	57	250	0	1	1067625.4702295	1067625.470699	80	1067628.7384863	1067628.7389785	40	1067631.7983693	1067631.7988615	100	imm	1067632.9897545	nan	nan	nan	nan	nan
452.60888671875	0.0	80	926943	37	83	1070	0	0	1067635.9571801	1067635.9579384	80	1067639.4082403	1067639.4087269	40	1067642.641849	1067642.6423022	100	del	1067643.7898116	nan	nan	nan	nan	nan
456.06005859375	0.0	40	934011	37	83	1070	0	0	1067635.9571801	1067635.9579384	80	1067639.4082403	1067639.4087269	40	1067642.641849	1067642.6423022	100	del	1067643.7898116	nan	nan	nan	nan	nan
459.2939453125	0.0	100	940634	37	83	1070	0	0	1067635.9571801	1067635.9579384	80	1067639.4082403	1067639.4087269	40	1067642.641849	1067642.6423022	100	del	1067643.7898116	nan	nan	nan	nan	nan
463.3505859375	0.0	80	948942	38	60	1070	0	1	1067646.6989721	1067646.6993922	80	1067649.7806965	1067649.7811624	40	1067653.1034837	1067653.1041851	100	del	1067654.3011746	nan	nan	nan	nan	nan
466.43212890625	0.0	40	955253	38	60	1070	0	1	1067646.6989721	1067646.6993922	80	1067649.7806965	1067649.7811624	40	1067653.1034837	1067653.1041851	100	del	1067654.3011746	nan	nan	nan	nan	nan
469.75537109375	0.0	100	962059	38	60	1070	0	1	1067646.6989721	1067646.6993922	80	1067649.7806965	1067649.7811624	40	1067653.1034837	1067653.1041851	100	del	1067654.3011746	nan	nan	nan	nan	nan
473.6015625	0.0	80	969936	39	97	700	1	1	1067656.9498976	1067656.9503944	80	1067660.1805124	1067660.1809645	40	1067663.6154043	1067663.6158979	100	del	1067664.3332199	3.0	1067665.5331538	1067664.8475904	1067664.8481351	120.0
476.83203125	0.0	40	976552	39	97	700	1	1	1067656.9498976	1067656.9503944	80	1067660.1805124	1067660.1809645	40	1067663.6154043	1067663.6158979	100	del	1067664.3332199	3.0	1067665.5331538	1067664.8475904	1067664.8481351	120.0
480.2666015625	0.0	100	983586	39	97	700	1	1	1067656.9498976	1067656.9503944	80	1067660.1805124	1067660.1809645	40	1067663.6154043	1067663.6158979	100	del	1067664.3332199	3.0	1067665.5331538	1067664.8475904	1067664.8481351	120.0
481.4990234375	0.0	120	986110	39	97	700	1	1	1067656.9498976	1067656.9503944	80	1067660.1805124	1067660.1809645	40	1067663.6154043	1067663.6158979	100	del	1067664.3332199	3.0	1067665.5331538	1067664.8475904	1067664.8481351	120.0
484.298828125	0.0	80	991844	40	67	60	1	0	1067667.6478173	1067667.6482453	80	1067670.8077362	1067670.8081648	40	1067674.0632079	1067674.0636458	100	del	1067675.8055804	4.0	1067676.9574783	1067676.3152745	1067676.3155957	120.0
487.458984375	0.0	40	998316	40	67	60	1	0	1067667.6478173	1067667.6482453	80	1067670.8077362	1067670.8081648	40	1067674.0632079	1067674.0636458	100	del	1067675.8055804	4.0	1067676.9574783	1067676.3152745	1067676.3155957	120.0
490.71435546875	0.0	100	1004983	40	67	60	1	0	1067667.6478173	1067667.6482453	80	1067670.8077362	1067670.8081648	40	1067674.0632079	1067674.0636458	100	del	1067675.8055804	4.0	1067676.9574783	1067676.3152745	1067676.3155957	120.0
492.96630859375	0.0	120	1009595	40	67	60	1	0	1067667.6478173	1067667.6482453	80	1067670.8077362	1067670.8081648	40	1067674.0632079	1067674.0636458	100	del	1067675.8055804	4.0	1067676.9574783	1067676.3152745	1067676.3155957	120.0
501.1943359375	0.0	80	1026446	41	97	300	1	1	1067684.5434678	1067684.5438973	80	1067687.9504569	1067687.9510947	40	1067691.457657	1067691.4581277	100	del	1067692.6620055	2.0	1067695.1097522	1067693.1749138	1067693.1753943	120.0
504.6015625	0.0	40	1033424	41	97	300	1	1	1067684.5434678	1067684.5438973	80	1067687.9504569	1067687.9510947	40	1067691.457657	1067691.4581277	100	del	1067692.6620055	2.0	1067695.1097522	1067693.1749138	1067693.1753943	120.0
508.1083984375	0.0	100	1040606	41	97	300	1	1	1067684.5434678	1067684.5438973	80	1067687.9504569	1067687.9510947	40	1067691.457657	1067691.4581277	100	del	1067692.6620055	2.0	1067695.1097522	1067693.1749138	1067693.1753943	120.0
509.82568359375	0.0	120	1044123	41	97	300	1	1	1067684.5434678	1067684.5438973	80	1067687.9504569	1067687.9510947	40	1067691.457657	1067691.4581277	100	del	1067692.6620055	2.0	1067695.1097522	1067693.1749138	1067693.1753943	120.0
513.8515625	0.0	80	1052368	42	80	1070	0	1	1067697.2013382	1067697.2016262	80	1067700.3252971	1067700.3256214	40	1067703.6898149	1067703.6902933	100	del	1067704.6934748	nan	nan	nan	nan	nan
516.9755859375	0.0	40	1058766	42	80	1070	0	1	1067697.2013382	1067697.2016262	80	1067700.3252971	1067700.3256214	40	1067703.6898149	1067703.6902933	100	del	1067704.6934748	nan	nan	nan	nan	nan
520.34033203125	0.0	100	1065657	42	80	1070	0	1	1067697.2013382	1067697.2016262	80	1067700.3252971	1067700.3256214	40	1067703.6898149	1067703.6902933	100	del	1067704.6934748	nan	nan	nan	nan	nan
524.0478515625	0.0	80	1073250	43	87	200	1	0	1067707.3976804	1067707.3981446	80	1067710.8918207	1067710.8922906	40	1067714.3912405	1067714.3917693	100	del	1067715.7348341	3.0	1067717.6139326	1067716.2445935	1067716.2449713	120.0
527.5419921875	0.0	40	1080406	43	87	200	1	0	1067707.3976804	1067707.3981446	80	1067710.8918207	1067710.8922906	40	1067714.3912405	1067714.3917693	100	del	1067715.7348341	3.0	1067717.6139326	1067716.2445935	1067716.2449713	120.0
531.04150390625	0.0	100	1087573	43	87	200	1	0	1067707.3976804	1067707.3981446	80	1067710.8918207	1067710.8922906	40	1067714.3912405	1067714.3917693	100	del	1067715.7348341	3.0	1067717.6139326	1067716.2445935	1067716.2449713	120.0
532.89453125	0.0	120	1091368	43	87	200	1	0	1067707.3976804	1067707.3981446	80	1067710.8918207	1067710.8922906	40	1067714.3912405	1067714.3917693	100	del	1067715.7348341	3.0	1067717.6139326	1067716.2445935	1067716.2449713	120.0
536.60205078125	0.0	80	1098961	44	70	700	1	1	1067719.9521221	1067719.9536458	80	1067723.3908373	1067723.39127	40	1067726.6051844	1067726.6056491	100	del	1067727.5348645	2.0	1067729.0138709	1067728.0491932	1067728.0497095	120.0
540.04052734375	0.0	40	1106003	44	70	700	1	1	1067719.9521221	1067719.9536458	80	1067723.3908373	1067723.39127	40	1067726.6051844	1067726.6056491	100	del	1067727.5348645	2.0	1067729.0138709	1067728.0491932	1067728.0497095	120.0
543.2548828125	0.0	100	1112586	44	70	700	1	1	1067719.9521221	1067719.9536458	80	1067723.3908373	1067723.39127	40	1067726.6051844	1067726.6056491	100	del	1067727.5348645	2.0	1067729.0138709	1067728.0491932	1067728.0497095	120.0
544.69873046875	0.0	120	1115543	44	70	700	1	1	1067719.9521221	1067719.9536458	80	1067723.3908373	1067723.39127	40	1067726.6051844	1067726.6056491	100	del	1067727.5348645	2.0	1067729.0138709	1067728.0491932	1067728.0497095	120.0
547.9951171875	0.0	80	1122294	45	70	1070	0	0	1067731.3451037	1067731.3458213	80	1067734.8456068	1067734.8463979	40	1067738.1391966	1067738.1396095	100	del	1067738.9108849	nan	nan	nan	nan	nan
551.4951171875	0.0	40	1129462	45	70	1070	0	0	1067731.3451037	1067731.3458213	80	1067734.8456068	1067734.8463979	40	1067738.1391966	1067738.1396095	100	del	1067738.9108849	nan	nan	nan	nan	nan
554.78857421875	0.0	100	1136207	45	70	1070	0	0	1067731.3451037	1067731.3458213	80	1067734.8456068	1067734.8463979	40	1067738.1391966	1067738.1396095	100	del	1067738.9108849	nan	nan	nan	nan	nan
558.5419921875	0.0	80	1143894	46	80	30	0	0	1067741.8926327	1067741.8930717	80	1067745.2589027	1067745.2592465	40	1067748.512292	1067748.5126679	100	del	1067749.5578384	nan	nan	nan	nan	nan
561.908203125	0.0	40	1150788	46	80	30	0	0	1067741.8926327	1067741.8930717	80	1067745.2589027	1067745.2592465	40	1067748.512292	1067748.5126679	100	del	1067749.5578384	nan	nan	nan	nan	nan
565.16162109375	0.0	100	1157451	46	80	30	0	0	1067741.8926327	1067741.8930717	80	1067745.2589027	1067745.2592465	40	1067748.512292	1067748.5126679	100	del	1067749.5578384	nan	nan	nan	nan	nan
569.04150390625	0.0	80	1165397	47	57	1070	0	1	1067752.3923237	1067752.3927924	80	1067755.8443556	1067755.844715	40	1067758.9570017	1067758.9574334	100	imm	1067760.1012902	nan	nan	nan	nan	nan
572.4931640625	0.0	40	1172466	47	57	1070	0	1	1067752.3923237	1067752.3927924	80	1067755.8443556	1067755.844715	40	1067758.9570017	1067758.9574334	100	imm	1067760.1012902	nan	nan	nan	nan	nan
575.60595703125	0.0	100	1178841	47	57	1070	0	1	1067752.3923237	1067752.3927924	80	1067755.8443556	1067755.844715	40	1067758.9570017	1067758.9574334	100	imm	1067760.1012902	nan	nan	nan	nan	nan
579.46240234375	0.0	80	1186739	48	97	460	0	1	1067762.8134509	1067762.8137815	80	1067766.3170986	1067766.3175555	40	1067769.5321258	1067769.5325775	100	del	1067770.9811185	nan	nan	nan	nan	nan
582.9658203125	0.0	40	1193914	48	97	460	0	1	1067762.8134509	1067762.8137815	80	1067766.3170986	1067766.3175555	40	1067769.5321258	1067769.5325775	100	del	1067770.9811185	nan	nan	nan	nan	nan
586.1806640625	0.0	100	1200498	48	97	460	0	1	1067762.8134509	1067762.8137815	80	1067766.3170986	1067766.3175555	40	1067769.5321258	1067769.5325775	100	del	1067770.9811185	nan	nan	nan	nan	nan
590.4775390625	0.0	80	1209298	49	73	1070	0	1	1067773.8290365	1067773.8296365	80	1067777.2874782	1067777.2879664	40	1067780.7951508	1067780.7954596	100	del	1067781.8052191	nan	nan	nan	nan	nan
593.93603515625	0.0	40	1216381	49	73	1070	0	1	1067773.8290365	1067773.8296365	80	1067777.2874782	1067777.2879664	40	1067780.7951508	1067780.7954596	100	del	1067781.8052191	nan	nan	nan	nan	nan
597.443359375	0.0	100	1223564	49	73	1070	0	1	1067773.8290365	1067773.8296365	80	1067777.2874782	1067777.2879664	40	1067780.7951508	1067780.7954596	100	del	1067781.8052191	nan	nan	nan	nan	nan
601.29833984375	0.0	80	1231459	50	50	200	1	1	1067784.6498528	1067784.6503174	80	1067787.7118991	1067787.7123517	40	1067790.7405561	1067790.7410218	100	imm	1067792.198765	2.0	1067794.5265148	1067792.7100316	1067792.7104085	120.0
604.3603515625	0.0	40	1237730	50	50	200	1	1	1067784.6498528	1067784.6503174	80	1067787.7118991	1067787.7123517	40	1067790.7405561	1067790.7410218	100	imm	1067792.198765	2.0	1067794.5265148	1067792.7100316	1067792.7104085	120.0
607.388671875	0.0	100	1243932	50	50	200	1	1	1067784.6498528	1067784.6503174	80	1067787.7118991	1067787.7123517	40	1067790.7405561	1067790.7410218	100	imm	1067792.198765	2.0	1067794.5265148	1067792.7100316	1067792.7104085	120.0
609.35791015625	0.0	120	1247965	50	50	200	1	1	1067784.6498528	1067784.6503174	80	1067787.7118991	1067787.7123517	40	1067790.7405561	1067790.7410218	100	imm	1067792.198765	2.0	1067794.5265148	1067792.7100316	1067792.7104085	120.0
613.49560546875	0.0	80	1256439	51	67	7	1	1	1067796.8475769	1067796.8481207	80	1067800.1395187	1067800.1400114	40	1067803.6333139	1067803.6338396	100	del	1067805.3012308	3.0	1067808.3488104	1067805.8125719	1067805.8129699	120.0
616.78759765625	0.0	40	1263181	51	67	7	1	1	1067796.8475769	1067796.8481207	80	1067800.1395187	1067800.1400114	40	1067803.6333139	1067803.6338396	100	del	1067805.3012308	3.0	1067808.3488104	1067805.8125719	1067805.8129699	120.0
620.28125	0.0	100	1270336	51	67	7	1	1	1067796.8475769	1067796.8481207	80	1067800.1395187	1067800.1400114	40	1067803.6333139	1067803.6338396	100	del	1067805.3012308	3.0	1067808.3488104	1067805.8125719	1067805.8129699	120.0
622.46044921875	0.0	120	1274799	51	67	7	1	1	1067796.8475769	1067796.8481207	80	1067800.1395187	1067800.1400114	40	1067803.6333139	1067803.6338396	100	del	1067805.3012308	3.0	1067808.3488104	1067805.8125719	1067805.8129699	120.0
627.38623046875	0.0	80	1284887	52	100	200	1	1	1067810.7384805	1067810.7389667	80	1067814.0771066	1067814.0775489	40	1067817.3516995	1067817.352294	100	del	1067818.3812352	4.0	1067820.5582706	1067818.896211	1067818.8967195	120.0
630.724609375	0.0	40	1291724	52	100	200	1	1	1067810.7384805	1067810.7389667	80	1067814.0771066	1067814.0775489	40	1067817.3516995	1067817.352294	100	del	1067818.3812352	4.0	1067820.5582706	1067818.896211	1067818.8967195	120.0
633.99951171875	0.0	100	1298431	52	100	200	1	1	1067810.7384805	1067810.7389667	80	1067814.0771066	1067814.0775489	40	1067817.3516995	1067817.352294	100	del	1067818.3812352	4.0	1067820.5582706	1067818.896211	1067818.8967195	120.0
635.5439453125	0.0	120	1301594	52	100	200	1	1	1067810.7384805	1067810.7389667	80	1067814.0771066	1067814.0775489	40	1067817.3516995	1067817.352294	100	del	1067818.3812352	4.0	1067820.5582706	1067818.896211	1067818.8967195	120.0
639.3515625	0.0	80	1309392	53	80	110	0	1	1067822.704303	1067822.7048296	80	1067826.1927039	1067826.1930867	40	1067829.476382	1067829.4768663	100	del	1067830.5173235	nan	nan	nan	nan	nan
642.83984375	0.0	40	1316536	53	80	110	0	1	1067822.704303	1067822.7048296	80	1067826.1927039	1067826.1930867	40	1067829.476382	1067829.4768663	100	del	1067830.5173235	nan	nan	nan	nan	nan
646.12353515625	0.0	100	1323261	53	80	110	0	1	1067822.704303	1067822.7048296	80	1067826.1927039	1067826.1930867	40	1067829.476382	1067829.4768663	100	del	1067830.5173235	nan	nan	nan	nan	nan
649.6962890625	0.0	80	1330578	54	53	60	1	0	1067833.049188	1067833.0498396	80	1067836.4050215	1067836.4055082	40	1067839.677935	1067839.6784197	100	del	1067841.078673	2.0	1067842.6134344	1067841.5888083	1067841.5891171	120.0
653.05224609375	0.0	40	1337451	54	53	60	1	0	1067833.049188	1067833.0498396	80	1067836.4050215	1067836.4055082	40	1067839.677935	1067839.6784197	100	del	1067841.078673	2.0	1067842.6134344	1067841.5888083	1067841.5891171	120.0
656.32470703125	0.0	100	1344153	54	53	60	1	0	1067833.049188	1067833.0498396	80	1067836.4050215	1067836.4055082	40	1067839.677935	1067839.6784197	100	del	1067841.078673	2.0	1067842.6134344	1067841.5888083	1067841.5891171	120.0
658.23583984375	0.0	120	1348067	54	53	60	1	0	1067833.049188	1067833.0498396	80	1067836.4050215	1067836.4055082	40	1067839.677935	1067839.6784197	100	del	1067841.078673	2.0	1067842.6134344	1067841.5888083	1067841.5891171	120.0
661.3046875	0.0	80	1354352	55	70	200	1	0	1067844.6576319	1067844.6581189	80	1067848.1101651	1067848.1106608	40	1067851.2890334	1067851.2894837	100	del	1067853.253644	3.0	1067854.8848128	1067853.763554	1067853.7639799	120.0
664.7568359375	0.0	40	1361422	55	70	200	1	0	1067844.6576319	1067844.6581189	80	1067848.1101651	1067848.1106608	40	1067851.2890334	1067851.2894837	100	del	1067853.253644	3.0	1067854.8848128	1067853.763554	1067853.7639799	120.0
667.935546875	0.0	100	1367932	55	70	200	1	0	1067844.6576319	1067844.6581189	80	1067848.1101651	1067848.1106608	40	1067851.2890334	1067851.2894837	100	del	1067853.253644	3.0	1067854.8848128	1067853.763554	1067853.7639799	120.0
670.41015625	0.0	120	1373000	55	70	200	1	0	1067844.6576319	1067844.6581189	80	1067848.1101651	1067848.1106608	40	1067851.2890334	1067851.2894837	100	del	1067853.253644	3.0	1067854.8848128	1067853.763554	1067853.7639799	120.0
673.662109375	0.0	80	1379660	56	53	30	0	1	1067857.0156795	1067857.0161915	80	1067860.0804982	1067860.0810108	40	1067863.2491042	1067863.2495432	100	del	1067865.1009002	nan	nan	nan	nan	nan
676.72705078125	0.0	40	1385937	56	53	30	0	1	1067857.0156795	1067857.0161915	80	1067860.0804982	1067860.0810108	40	1067863.2491042	1067863.2495432	100	del	1067865.1009002	nan	nan	nan	nan	nan
679.8955078125	0.0	100	1392426	56	53	30	0	1	1067857.0156795	1067857.0161915	80	1067860.0804982	1067860.0810108	40	1067863.2491042	1067863.2495432	100	del	1067865.1009002	nan	nan	nan	nan	nan
684.37841796875	0.0	80	1401607	57	73	7	1	1	1067867.7322078	1067867.7327299	80	1067871.0667394	1067871.0671994	40	1067874.1138225	1067874.11432	100	del	1067875.3575678	4.0	1067876.6952758	1067875.8649145	1067875.8651624	120.0
687.712890625	0.0	40	1408436	57	73	7	1	1	1067867.7322078	1067867.7327299	80	1067871.0667394	1067871.0671994	40	1067874.1138225	1067874.11432	100	del	1067875.3575678	4.0	1067876.6952758	1067875.8649145	1067875.8651624	120.0
690.759765625	0.0	100	1414676	57	73	7	1	1	1067867.7322078	1067867.7327299	80	1067871.0667394	1067871.0671994	40	1067874.1138225	1067874.11432	100	del	1067875.3575678	4.0	1067876.6952758	1067875.8649145	1067875.8651624	120.0
692.5107421875	0.0	120	1418262	57	73	7	1	1	1067867.7322078	1067867.7327299	80	1067871.0667394	1067871.0671994	40	1067874.1138225	1067874.11432	100	del	1067875.3575678	4.0	1067876.6952758	1067875.8649145	1067875.8651624	120.0
695.4951171875	0.0	80	1424374	58	87	1070	0	1	1067878.8493289	1067878.8497754	80	1067881.9983448	1067881.9988371	40	1067885.4520141	1067885.4525224	100	del	1067886.8935674	nan	nan	nan	nan	nan
698.64404296875	0.0	40	1430823	58	87	1070	0	1	1067878.8493289	1067878.8497754	80	1067881.9983448	1067881.9988371	40	1067885.4520141	1067885.4525224	100	del	1067886.8935674	nan	nan	nan	nan	nan
702.09765625	0.0	100	1437896	58	87	1070	0	1	1067878.8493289	1067878.8497754	80	1067881.9983448	1067881.9988371	40	1067885.4520141	1067885.4525224	100	del	1067886.8935674	nan	nan	nan	nan	nan
706.27685546875	0.0	80	1446455	59	50	700	1	0	1067889.6313469	1067889.6317453	80	1067893.0167074	1067893.0171827	40	1067896.3323864	1067896.3328159	100	imm	1067897.27715	2.0	1067898.5894139	1067897.7900623	1067897.7905338	120.0
709.662109375	0.0	40	1453388	59	50	700	1	0	1067889.6313469	1067889.6317453	80	1067893.0167074	1067893.0171827	40	1067896.3323864	1067896.3328159	100	imm	1067897.27715	2.0	1067898.5894139	1067897.7900623	1067897.7905338	120.0
712.97802734375	0.0	100	1460179	59	50	700	1	0	1067889.6313469	1067889.6317453	80	1067893.0167074	1067893.0171827	40	1067896.3323864	1067896.3328159	100	imm	1067897.27715	2.0	1067898.5894139	1067897.7900623	1067897.7905338	120.0
714.435546875	0.0	120	1463164	59	50	700	1	0	1067889.6313469	1067889.6317453	80	1067893.0167074	1067893.0171827	40	1067896.3323864	1067896.3328159	100	imm	1067897.27715	2.0	1067898.5894139	1067897.7900623	1067897.7905338	120.0
717.642578125	0.0	80	1469732	60	97	60	1	1	1067900.9969806	1067900.9974584	80	1067904.0619542	1067904.06245	40	1067907.5648233	1067907.565326	100	del	1067909.2132052	4.0	1067910.2369751	1067909.7251943	1067909.7258847	120.0
720.70751953125	0.0	40	1476009	60	97	60	1	1	1067900.9969806	1067900.9974584	80	1067904.0619542	1067904.06245	40	1067907.5648233	1067907.565326	100	del	1067909.2132052	4.0	1067910.2369751	1067909.7251943	1067909.7258847	120.0
724.2099609375	0.0	100	1483182	60	97	60	1	1	1067900.9969806	1067900.9974584	80	1067904.0619542	1067904.06245	40	1067907.5648233	1067907.565326	100	del	1067909.2132052	4.0	1067910.2369751	1067909.7251943	1067909.7258847	120.0
726.37060546875	0.0	120	1487607	60	97	60	1	1	1067900.9969806	1067900.9974584	80	1067904.0619542	1067904.06245	40	1067907.5648233	1067907.565326	100	del	1067909.2132052	4.0	1067910.2369751	1067909.7251943	1067909.7258847	120.0
739.99609375	0.0	80	1515512	61	100	300	1	0	1067923.3513355	1067923.3518073	80	1067926.3844082	1067926.3849082	40	1067929.6324384	1067929.6329423	100	del	1067930.5339567	2.0	1067932.7814527	1067931.0469238	1067931.0474212	120.0
743.029296875	0.0	40	1521724	61	100	300	1	0	1067923.3513355	1067923.3518073	80	1067926.3844082	1067926.3849082	40	1067929.6324384	1067929.6329423	100	del	1067930.5339567	2.0	1067932.7814527	1067931.0469238	1067931.0474212	120.0
746.27734375	0.0	100	1528376	61	100	300	1	0	1067923.3513355	1067923.3518073	80	1067926.3844082	1067926.3849082	40	1067929.6324384	1067929.6329423	100	del	1067930.5339567	2.0	1067932.7814527	1067931.0469238	1067931.0474212	120.0
747.69140625	0.0	120	1531272	61	100	300	1	0	1067923.3513355	1067923.3518073	80	1067926.3844082	1067926.3849082	40	1067929.6324384	1067929.6329423	100	del	1067930.5339567	2.0	1067932.7814527	1067931.0469238	1067931.0474212	120.0
751.6044921875	0.0	80	1539286	62	100	460	0	0	1067934.9599605	1067934.9604184	80	1067938.2822867	1067938.2827589	40	1067941.4116283	1067941.4121131	100	del	1067942.2213169	nan	nan	nan	nan	nan
754.9267578125	0.0	40	1546090	62	100	460	0	0	1067934.9599605	1067934.9604184	80	1067938.2822867	1067938.2827589	40	1067941.4116283	1067941.4121131	100	del	1067942.2213169	nan	nan	nan	nan	nan
758.05615234375	0.0	100	1552499	62	100	460	0	0	1067934.9599605	1067934.9604184	80	1067938.2822867	1067938.2827589	40	1067941.4116283	1067941.4121131	100	del	1067942.2213169	nan	nan	nan	nan	nan
761.673828125	0.0	80	1559908	63	50	7	1	1	1067945.0295378	1067945.0300246	80	1067948.3392948	1067948.3397603	40	1067951.6524137	1067951.6529308	100	del	1067953.6766417	4.0	1067955.8134063	1067954.1867305	1067954.1873141	120.0
764.9833984375	0.0	40	1566686	63	50	7	1	1	1067945.0295378	1067945.0300246	80	1067948.3392948	1067948.3397603	40	1067951.6524137	1067951.6529308	100	del	1067953.6766417	4.0	1067955.8134063	1067954.1867305	1067954.1873141	120.0
768.296875	0.0	100	1573472	63	50	7	1	1	1067945.0295378	1067945.0300246	80	1067948.3392948	1067948.3397603	40	1067951.6524137	1067951.6529308	100	del	1067953.6766417	4.0	1067955.8134063	1067954.1867305	1067954.1873141	120.0
770.8310546875	0.0	120	1578662	63	50	7	1	1	1067945.0295378	1067945.0300246	80	1067948.3392948	1067948.3397603	40	1067951.6524137	1067951.6529308	100	del	1067953.6766417	4.0	1067955.8134063	1067954.1867305	1067954.1873141	120.0
774.6962890625	0.0	80	1586578	64	63	250	0	0	1067958.0520291	1067958.0524816	80	1067961.0771702	1067961.077787	40	1067964.347133	1067964.3476015	100	del	1067965.0207082	nan	nan	nan	nan	nan
777.72119140625	0.0	40	1592773	64	63	250	0	0	1067958.0520291	1067958.0524816	80	1067961.0771702	1067961.077787	40	1067964.347133	1067964.3476015	100	del	1067965.0207082	nan	nan	nan	nan	nan
780.9912109375	0.0	100	1599470	64	63	250	0	0	1067958.0520291	1067958.0524816	80	1067961.0771702	1067961.077787	40	1067964.347133	1067964.3476015	100	del	1067965.0207082	nan	nan	nan	nan	nan
784.38623046875	0.0	80	1606423	65	87	300	1	0	1067967.7425229	1067967.7429901	80	1067970.8044128	1067970.8049219	40	1067974.0486157	1067974.0490698	100	del	1067974.8604693	4.0	1067976.5565587	1067975.3710994	1067975.3714554	120.0
787.4482421875	0.0	40	1612694	65	87	300	1	0	1067967.7425229	1067967.7429901	80	1067970.8044128	1067970.8049219	40	1067974.0486157	1067974.0490698	100	del	1067974.8604693	4.0	1067976.5565587	1067975.3710994	1067975.3714554	120.0
790.6923828125	0.0	100	1619338	65	87	300	1	0	1067967.7425229	1067967.7429901	80	1067970.8044128	1067970.8049219	40	1067974.0486157	1067974.0490698	100	del	1067974.8604693	4.0	1067976.5565587	1067975.3710994	1067975.3714554	120.0
792.0146484375	0.0	120	1622046	65	87	300	1	0	1067967.7425229	1067967.7429901	80	1067970.8044128	1067970.8049219	40	1067974.0486157	1067974.0490698	100	del	1067974.8604693	4.0	1067976.5565587	1067975.3710994	1067975.3714554	120.0
795.4384765625	0.0	80	1629058	66	100	250	0	0	1067978.7950949	1067978.7955351	80	1067982.0782345	1067982.0786212	40	1067985.4938208	1067985.4942189	100	del	1067992.5168481	nan	nan	nan	nan	nan
798.7216796875	0.0	40	1635782	66	100	250	0	0	1067978.7950949	1067978.7955351	80	1067982.0782345	1067982.0786212	40	1067985.4938208	1067985.4942189	100	del	1067992.5168481	nan	nan	nan	nan	nan
802.13720703125	0.0	100	1642777	66	100	250	0	0	1067978.7950949	1067978.7955351	80	1067982.0782345	1067982.0786212	40	1067985.4938208	1067985.4942189	100	del	1067992.5168481	nan	nan	nan	nan	nan
812.0283203125	0.0	80	1663034	67	63	30	0	0	1067995.3851441	1067995.385671	80	1067998.8290258	1067998.8295214	40	1068001.8697261	1068001.8701833	100	del	1068003.3331825	nan	nan	nan	nan	nan
815.47216796875	0.0	40	1670087	67	63	30	0	0	1067995.3851441	1067995.385671	80	1067998.8290258	1067998.8295214	40	1068001.8697261	1068001.8701833	100	del	1068003.3331825	nan	nan	nan	nan	nan
818.5126953125	0.0	100	1676314	67	63	30	0	0	1067995.3851441	1067995.385671	80	1067998.8290258	1067998.8295214	40	1068001.8697261	1068001.8701833	100	del	1068003.3331825	nan	nan	nan	nan	nan
822.5986328125	0.0	80	1684682	68	93	60	1	0	1068005.9557006	1068005.9559889	80	1068009.1927759	1068009.1932653	40	1068012.6858154	1068012.6862842	100	del	1068013.3645621	4.0	1068014.5567362	1068013.876684	1068013.8771798	120.0
825.83544921875	0.0	40	1691311	68	93	60	1	0	1068005.9557006	1068005.9559889	80	1068009.1927759	1068009.1932653	40	1068012.6858154	1068012.6862842	100	del	1068013.3645621	4.0	1068014.5567362	1068013.876684	1068013.8771798	120.0
829.32861328125	0.0	100	1698465	68	93	60	1	0	1068005.9557006	1068005.9559889	80	1068009.1927759	1068009.1932653	40	1068012.6858154	1068012.6862842	100	del	1068013.3645621	4.0	1068014.5567362	1068013.876684	1068013.8771798	120.0
830.51953125	0.0	120	1700904	68	93	60	1	0	1068005.9557006	1068005.9559889	80	1068009.1927759	1068009.1932653	40	1068012.6858154	1068012.6862842	100	del	1068013.3645621	4.0	1068014.5567362	1068013.876684	1068013.8771798	120.0
833.6083984375	0.0	80	1707230	69	57	110	0	1	1068016.9657009	1068016.9661177	80	1068020.1992517	1068020.199752	40	1068023.3802998	1068023.3808141	100	imm	1068024.1413586	nan	nan	nan	nan	nan
836.841796875	0.0	40	1713852	69	57	110	0	1	1068016.9657009	1068016.9661177	80	1068020.1992517	1068020.199752	40	1068023.3802998	1068023.3808141	100	imm	1068024.1413586	nan	nan	nan	nan	nan
840.02294921875	0.0	100	1720367	69	57	110	0	1	1068016.9657009	1068016.9661177	80	1068020.1992517	1068020.199752	40	1068023.3802998	1068023.3808141	100	imm	1068024.1413586	nan	nan	nan	nan	nan
843.32958984375	0.0	80	1727139	70	57	60	1	1	1068026.6870613	1068026.6875442	80	1068030.065276	1068030.065726	40	1068033.332072	1068033.3325237	100	imm	1068034.7010392	3.0	1068036.196473	1068035.2118813	1068035.2122443	120.0
846.70751953125	0.0	40	1734057	70	57	60	1	1	1068026.6870613	1068026.6875442	80	1068030.065276	1068030.065726	40	1068033.332072	1068033.3325237	100	imm	1068034.7010392	3.0	1068036.196473	1068035.2118813	1068035.2122443	120.0
849.97412109375	0.0	100	1740747	70	57	60	1	1	1068026.6870613	1068026.6875442	80	1068030.065276	1068030.065726	40	1068033.332072	1068033.3325237	100	imm	1068034.7010392	3.0	1068036.196473	1068035.2118813	1068035.2122443	120.0
851.85400390625	0.0	120	1744597	70	57	60	1	1	1068026.6870613	1068026.6875442	80	1068030.065276	1068030.065726	40	1068033.332072	1068033.3325237	100	imm	1068034.7010392	3.0	1068036.196473	1068035.2118813	1068035.2122443	120.0
854.9541015625	0.0	80	1750946	71	73	200	1	1	1068038.3118989	1068038.3123964	80	1068041.532928	1068041.5334045	40	1068044.6309385	1068044.6314355	100	del	1068046.5733331	4.0	1068047.5331768	1068047.085108	1068047.0855006	120.0
858.1748046875	0.0	40	1757542	71	73	200	1	1	1068038.3118989	1068038.3123964	80	1068041.532928	1068041.5334045	40	1068044.6309385	1068044.6314355	100	del	1068046.5733331	4.0	1068047.5331768	1068047.085108	1068047.0855006	120.0
861.27294921875	0.0	100	1763887	71	73	200	1	1	1068038.3118989	1068038.3123964	80	1068041.532928	1068041.5334045	40	1068044.6309385	1068044.6314355	100	del	1068046.5733331	4.0	1068047.5331768	1068047.085108	1068047.0855006	120.0
863.72705078125	0.0	120	1768913	71	73	200	1	1	1068038.3118989	1068038.3123964	80	1068041.532928	1068041.5334045	40	1068044.6309385	1068044.6314355	100	del	1068046.5733331	4.0	1068047.5331768	1068047.085108	1068047.0855006	120.0
866.56640625	0.0	80	1774728	72	100	7	1	0	1068049.924501	1068049.9249955	80	1068053.1160818	1068053.11654	40	1068056.5967511	1068056.5970336	100	del	1068059.0848763	4.0	1068060.3245276	1068059.5960743	1068059.5964104	120.0
869.7578125	0.0	40	1781264	72	100	7	1	0	1068049.924501	1068049.9249955	80	1068053.1160818	1068053.11654	40	1068056.5967511	1068056.5970336	100	del	1068059.0848763	4.0	1068060.3245276	1068059.5960743	1068059.5964104	120.0
873.23828125	0.0	100	1788392	72	100	7	1	0	1068049.924501	1068049.9249955	80	1068053.1160818	1068053.11654	40	1068056.5967511	1068056.5970336	100	del	1068059.0848763	4.0	1068060.3245276	1068059.5960743	1068059.5964104	120.0
876.2373046875	0.0	120	1794534	72	100	7	1	0	1068049.924501	1068049.9249955	80	1068053.1160818	1068053.11654	40	1068056.5967511	1068056.5970336	100	del	1068059.0848763	4.0	1068060.3245276	1068059.5960743	1068059.5964104	120.0
878.98876953125	0.0	80	1800169	73	87	700	1	1	1068062.347144	1068062.3476562	80	1068065.7682864	1068065.7686377	40	1068069.0933513	1068069.093904	100	del	1068070.7013013	2.0	1068071.8850437	1068071.2112993	1068071.2116426	120.0
882.40966796875	0.0	40	1807175	73	87	700	1	1	1068062.347144	1068062.3476562	80	1068065.7682864	1068065.7686377	40	1068069.0933513	1068069.093904	100	del	1068070.7013013	2.0	1068071.8850437	1068071.2112993	1068071.2116426	120.0
885.73486328125	0.0	100	1813985	73	87	700	1	1	1068062.347144	1068062.3476562	80	1068065.7682864	1068065.7686377	40	1068069.0933513	1068069.093904	100	del	1068070.7013013	2.0	1068071.8850437	1068071.2112993	1068071.2116426	120.0
887.8525390625	0.0	120	1818322	73	87	700	1	1	1068062.347144	1068062.3476562	80	1068065.7682864	1068065.7686377	40	1068069.0933513	1068069.093904	100	del	1068070.7013013	2.0	1068071.8850437	1068071.2112993	1068071.2116426	120.0
890.80908203125	0.0	80	1824377	74	70	300	1	1	1068074.1678787	1068074.1684457	80	1068077.5008951	1068077.5013566	40	1068080.8778029	1068080.8782683	100	del	1068082.3968545	3.0	1068083.629195	1068082.9062234	1068082.9065374	120.0
894.14208984375	0.0	40	1831203	74	70	300	1	1	1068074.1678787	1068074.1684457	80	1068077.5008951	1068077.5013566	40	1068080.8778029	1068080.8782683	100	del	1068082.3968545	3.0	1068083.629195	1068082.9062234	1068082.9065374	120.0
897.51904296875	0.0	100	1838119	74	70	300	1	1	1068074.1678787	1068074.1684457	80	1068077.5008951	1068077.5013566	40	1068080.8778029	1068080.8782683	100	del	1068082.3968545	3.0	1068083.629195	1068082.9062234	1068082.9065374	120.0
899.546875	0.0	120	1842272	74	70	300	1	1	1068074.1678787	1068074.1684457	80	1068077.5008951	1068077.5013566	40	1068080.8778029	1068080.8782683	100	del	1068082.3968545	3.0	1068083.629195	1068082.9062234	1068082.9065374	120.0
902.33349609375	0.0	80	1847979	75	83	60	1	0	1068085.6924689	1068085.6929707	80	1068089.1397678	1068089.1403161	40	1068092.1604203	1068092.1609178	100	del	1068093.020312	3.0	1068097.308347	1068093.5305146	1068093.5308795	120.0
905.78076171875	0.0	40	1855039	75	83	60	1	0	1068085.6924689	1068085.6929707	80	1068089.1397678	1068089.1403161	40	1068092.1604203	1068092.1609178	100	del	1068093.020312	3.0	1068097.308347	1068093.5305146	1068093.5308795	120.0
908.80126953125	0.0	100	1861225	75	83	60	1	0	1068085.6924689	1068085.6929707	80	1068089.1397678	1068089.1403161	40	1068092.1604203	1068092.1609178	100	del	1068093.020312	3.0	1068097.308347	1068093.5305146	1068093.5308795	120.0
910.1708984375	0.0	120	1864030	75	83	60	1	0	1068085.6924689	1068085.6929707	80	1068089.1397678	1068089.1403161	40	1068092.1604203	1068092.1609178	100	del	1068093.020312	3.0	1068097.308347	1068093.5305146	1068093.5308795	120.0
916.10986328125	0.0	80	1876193	76	87	30	0	0	1068099.4693695	1068099.4698836	80	1068102.5671511	1068102.5677481	40	1068106.0449969	1068106.0454662	100	del	1068106.9498912	nan	nan	nan	nan	nan
919.20751953125	0.0	40	1882537	76	87	30	0	0	1068099.4693695	1068099.4698836	80	1068102.5671511	1068102.5677481	40	1068106.0449969	1068106.0454662	100	del	1068106.9498912	nan	nan	nan	nan	nan
922.685546875	0.0	100	1889660	76	87	30	0	0	1068099.4693695	1068099.4698836	80	1068102.5671511	1068102.5677481	40	1068106.0449969	1068106.0454662	100	del	1068106.9498912	nan	nan	nan	nan	nan
926.14208984375	0.0	80	1896739	77	60	7	1	0	1068109.5017717	1068109.5024327	80	1068112.7998912	1068112.8003696	40	1068116.1269248	1068116.1272468	100	del	1068117.508994	4.0	1068118.6928368	1068118.0189967	1068118.0193257	120.0
929.43994140625	0.0	40	1903493	77	60	7	1	0	1068109.5017717	1068109.5024327	80	1068112.7998912	1068112.8003696	40	1068116.1269248	1068116.1272468	100	del	1068117.508994	4.0	1068118.6928368	1068118.0189967	1068118.0193257	120.0
932.76708984375	0.0	100	1910307	77	60	7	1	0	1068109.5017717	1068109.5024327	80	1068112.7998912	1068112.8003696	40	1068116.1269248	1068116.1272468	100	del	1068117.508994	4.0	1068118.6928368	1068118.0189967	1068118.0193257	120.0
934.6591796875	0.0	120	1914182	77	60	7	1	0	1068109.5017717	1068109.5024327	80	1068112.7998912	1068112.8003696	40	1068116.1269248	1068116.1272468	100	del	1068117.508994	4.0	1068118.6928368	1068118.0189967	1068118.0193257	120.0
937.669921875	0.0	80	1920348	78	77	250	0	0	1068121.0297955	1068121.030156	80	1068124.4701139	1068124.4706287	40	1068127.5092048	1068127.5097128	100	imm	1068128.5962375	nan	nan	nan	nan	nan
941.10986328125	0.0	40	1927393	78	77	250	0	0	1068121.0297955	1068121.030156	80	1068124.4701139	1068124.4706287	40	1068127.5092048	1068127.5097128	100	imm	1068128.5962375	nan	nan	nan	nan	nan
944.14892578125	0.0	100	1933617	78	77	250	0	0	1068121.0297955	1068121.030156	80	1068124.4701139	1068124.4706287	40	1068127.5092048	1068127.5097128	100	imm	1068128.5962375	nan	nan	nan	nan	nan
948.16357421875	0.0	80	1941839	79	73	60	1	1	1068131.5239159	1068131.524393	80	1068134.7958975	1068134.7963879	40	1068138.1575906	1068138.1580946	100	del	1068139.8362611	2.0	1068141.357935	1068140.3462054	1068140.3467026	120.0
951.435546875	0.0	40	1948540	79	73	60	1	1	1068131.5239159	1068131.524393	80	1068134.7958975	1068134.7963879	40	1068138.1575906	1068138.1580946	100	del	1068139.8362611	2.0	1068141.357935	1068140.3462054	1068140.3467026	120.0
954.79736328125	0.0	100	1955425	79	73	60	1	1	1068131.5239159	1068131.524393	80	1068134.7958975	1068134.7963879	40	1068138.1575906	1068138.1580946	100	del	1068139.8362611	2.0	1068141.357935	1068140.3462054	1068140.3467026	120.0
956.98583984375	0.0	120	1959907	79	73	60	1	1	1068131.5239159	1068131.524393	80	1068134.7958975	1068134.7963879	40	1068138.1575906	1068138.1580946	100	del	1068139.8362611	2.0	1068141.357935	1068140.3462054	1068140.3467026	120.0
960.11865234375	0.0	80	1966323	80	60	460	0	1	1068143.4790193	1068143.4794767	80	1068146.7589622	1068146.7594826	40	1068150.1231545	1068150.1236693	100	imm	1068151.180863	nan	nan	nan	nan	nan
963.3984375	0.0	40	1973040	80	60	460	0	1	1068143.4790193	1068143.4794767	80	1068146.7589622	1068146.7594826	40	1068150.1231545	1068150.1236693	100	imm	1068151.180863	nan	nan	nan	nan	nan
966.76220703125	0.0	100	1979929	80	60	460	0	1	1068143.4790193	1068143.4794767	80	1068146.7589622	1068146.7594826	40	1068150.1231545	1068150.1236693	100	imm	1068151.180863	nan	nan	nan	nan	nan
992.13818359375	0.0	80	2031899	81	73	700	1	0	1068175.4998381	1068175.5002158	80	1068178.7284402	1068178.7288106	40	1068181.7843035	1068181.7847736	100	del	1068182.7723959	2.0	1068184.3160848	1068183.2857205	1068183.2862477	120.0
995.36669921875	0.0	40	2038511	81	73	700	1	0	1068175.4998381	1068175.5002158	80	1068178.7284402	1068178.7288106	40	1068181.7843035	1068181.7847736	100	del	1068182.7723959	2.0	1068184.3160848	1068183.2857205	1068183.2862477	120.0
998.4228515625	0.0	100	2044770	81	73	700	1	0	1068175.4998381	1068175.5002158	80	1068178.7284402	1068178.7288106	40	1068181.7843035	1068181.7847736	100	del	1068182.7723959	2.0	1068184.3160848	1068183.2857205	1068183.2862477	120.0
999.92431640625	0.0	120	2047845	81	73	700	1	0	1068175.4998381	1068175.5002158	80	1068178.7284402	1068178.7288106	40	1068181.7843035	1068181.7847736	100	del	1068182.7723959	2.0	1068184.3160848	1068183.2857205	1068183.2862477	120.0
1002.99755859375	0.0	80	2054139	82	97	1070	0	1	1068186.3592463	1068186.359799	80	1068189.6815467	1068189.6820346	40	1068193.0928494	1068193.093442	100	del	1068193.916832	nan	nan	nan	nan	nan
1006.31982421875	0.0	40	2060943	82	97	1070	0	1	1068186.3592463	1068186.359799	80	1068189.6815467	1068189.6820346	40	1068193.0928494	1068193.093442	100	del	1068193.916832	nan	nan	nan	nan	nan
1009.73095703125	0.0	100	2067929	82	97	1070	0	1	1068186.3592463	1068186.359799	80	1068189.6815467	1068189.6820346	40	1068193.0928494	1068193.093442	100	del	1068193.916832	nan	nan	nan	nan	nan
1013.42138671875	0.0	80	2075487	83	77	110	0	0	1068196.7832887	1068196.7837814	80	1068199.9622205	1068199.9625528	40	1068203.449835	1068203.450337	100	del	1068206.8854267	nan	nan	nan	nan	nan
1016.60009765625	0.0	40	2081997	83	77	110	0	0	1068196.7832887	1068196.7837814	80	1068199.9622205	1068199.9625528	40	1068203.449835	1068203.450337	100	del	1068206.8854267	nan	nan	nan	nan	nan
1020.087890625	0.0	100	2089140	83	77	110	0	0	1068196.7832887	1068196.7837814	80	1068199.9622205	1068199.9625528	40	1068203.449835	1068203.450337	100	del	1068206.8854267	nan	nan	nan	nan	nan
1026.2998046875	0.0	80	2101862	84	90	700	1	1	1068209.6619978	1068209.6623281	80	1068213.1462342	1068213.146683	40	1068216.1964719	1068216.1970736	100	del	1068217.4685248	2.0	1068219.6138723	1068217.9779246	1068217.9781855	120.0
1029.78369140625	0.0	40	2108997	84	90	700	1	1	1068209.6619978	1068209.6623281	80	1068213.1462342	1068213.146683	40	1068216.1964719	1068216.1970736	100	del	1068217.4685248	2.0	1068219.6138723	1068217.9779246	1068217.9781855	120.0
1032.833984375	0.0	100	2115244	84	90	700	1	1	1068209.6619978	1068209.6623281	80	1068213.1462342	1068213.146683	40	1068216.1964719	1068216.1970736	100	del	1068217.4685248	2.0	1068219.6138723	1068217.9779246	1068217.9781855	120.0
1034.615234375	0.0	120	2118892	84	90	700	1	1	1068209.6619978	1068209.6623281	80	1068213.1462342	1068213.146683	40	1068216.1964719	1068216.1970736	100	del	1068217.4685248	2.0	1068219.6138723	1068217.9779246	1068217.9781855	120.0
1038.36865234375	0.0	80	2126579	85	80	7	1	0	1068221.7312831	1068221.731746	80	1068225.1262747	1068225.1267401	40	1068228.5970682	1068228.5974957	100	del	1068229.4297434	4.0	1068231.0604014	1068229.9400662	1068229.9403292	120.0
1041.763671875	0.0	40	2133532	85	80	7	1	0	1068221.7312831	1068221.731746	80	1068225.1262747	1068225.1267401	40	1068228.5970682	1068228.5974957	100	del	1068229.4297434	4.0	1068231.0604014	1068229.9400662	1068229.9403292	120.0
1045.234375	0.0	100	2140640	85	80	7	1	0	1068221.7312831	1068221.731746	80	1068225.1262747	1068225.1267401	40	1068228.5970682	1068228.5974957	100	del	1068229.4297434	4.0	1068231.0604014	1068229.9400662	1068229.9403292	120.0
1046.5771484375	0.0	120	2143390	85	80	7	1	0	1068221.7312831	1068221.731746	80	1068225.1262747	1068225.1267401	40	1068228.5970682	1068228.5974957	100	del	1068229.4297434	4.0	1068231.0604014	1068229.9400662	1068229.9403292	120.0
1050.1025390625	0.0	80	2150610	86	77	30	0	0	1068233.4654271	1068233.465891	80	1068236.6215996	1068236.6219183	40	1068239.7106434	1068239.7111568	100	del	1068240.8457578	nan	nan	nan	nan	nan
1053.2587890625	0.0	40	2157074	86	77	30	0	0	1068233.4654271	1068233.465891	80	1068236.6215996	1068236.6219183	40	1068239.7106434	1068239.7111568	100	del	1068240.8457578	nan	nan	nan	nan	nan
1056.34765625	0.0	100	2163400	86	77	30	0	0	1068233.4654271	1068233.465891	80	1068236.6215996	1068236.6219183	40	1068239.7106434	1068239.7111568	100	del	1068240.8457578	nan	nan	nan	nan	nan
1060.421875	0.0	80	2171744	87	67	250	0	1	1068243.7847822	1068243.7852062	80	1068247.1835908	1068247.1839172	40	1068250.3325066	1068250.3329547	100	imm	1068251.6449051	nan	nan	nan	nan	nan
1063.8203125	0.0	40	2178704	87	67	250	0	1	1068243.7847822	1068243.7852062	80	1068247.1835908	1068247.1839172	40	1068250.3325066	1068250.3329547	100	imm	1068251.6449051	nan	nan	nan	nan	nan
1066.96923828125	0.0	100	2185153	87	67	250	0	1	1068243.7847822	1068243.7852062	80	1068247.1835908	1068247.1839172	40	1068250.3325066	1068250.3329547	100	imm	1068251.6449051	nan	nan	nan	nan	nan
1070.91357421875	0.0	80	2193231	88	80	700	1	1	1068254.2768318	1068254.2773265	80	1068257.4448756	1068257.4453504	40	1068260.8733901	1068260.873962	100	del	1068262.0539061	2.0	1068263.2924698	1068262.5678848	1068262.5683936	120.0
1074.08154296875	0.0	40	2199719	88	80	700	1	1	1068254.2768318	1068254.2773265	80	1068257.4448756	1068257.4453504	40	1068260.8733901	1068260.873962	100	del	1068262.0539061	2.0	1068263.2924698	1068262.5678848	1068262.5683936	120.0
1077.509765625	0.0	100	2206740	88	80	700	1	1	1068254.2768318	1068254.2773265	80	1068257.4448756	1068257.4453504	40	1068260.8733901	1068260.873962	100	del	1068262.0539061	2.0	1068263.2924698	1068262.5678848	1068262.5683936	120.0
1079.20458984375	0.0	120	2210211	88	80	700	1	1	1068254.2768318	1068254.2773265	80	1068257.4448756	1068257.4453504	40	1068260.8733901	1068260.873962	100	del	1068262.0539061	2.0	1068263.2924698	1068262.5678848	1068262.5683936	120.0
1082.3515625	0.0	80	2216656	89	90	110	0	1	1068265.714968	1068265.7153755	80	1068269.0081214	1068269.0085918	40	1068272.3073558	1068272.3083344	100	del	1068273.8208233	nan	nan	nan	nan	nan
1085.64453125	0.0	40	2223400	89	90	110	0	1	1068265.714968	1068265.7153755	80	1068269.0081214	1068269.0085918	40	1068272.3073558	1068272.3083344	100	del	1068273.8208233	nan	nan	nan	nan	nan
1088.943359375	0.0	100	2230156	89	90	110	0	1	1068265.714968	1068265.7153755	80	1068269.0081214	1068269.0085918	40	1068272.3073558	1068272.3083344	100	del	1068273.8208233	nan	nan	nan	nan	nan
1093.11767578125	0.0	80	2238705	90	77	460	0	0	1068276.4815152	1068276.4821703	80	1068279.8387712	1068279.8405104	40	1068283.2512921	1068283.2517465	100	imm	1068283.9004337	nan	nan	nan	nan	nan
1096.474609375	0.0	40	2245580	90	77	460	0	0	1068276.4815152	1068276.4821703	80	1068279.8387712	1068279.8405104	40	1068283.2512921	1068283.2517465	100	imm	1068283.9004337	nan	nan	nan	nan	nan
1099.88720703125	0.0	100	2252569	90	77	460	0	0	1068276.4815152	1068276.4821703	80	1068279.8387712	1068279.8405104	40	1068283.2512921	1068283.2517465	100	imm	1068283.9004337	nan	nan	nan	nan	nan
1103.275390625	0.0	80	2259508	91	80	300	1	1	1068286.6394515	1068286.6398854	80	1068289.8699	1068289.8703959	40	1068293.1163832	1068293.1168569	100	del	1068294.0361215	1.0	1068297.220606	1068294.5464852	1068294.5470738	120.0
1106.505859375	0.0	40	2266124	91	80	300	1	1	1068286.6394515	1068286.6398854	80	1068289.8699	1068289.8703959	40	1068293.1163832	1068293.1168569	100	del	1068294.0361215	1.0	1068297.220606	1068294.5464852	1068294.5470738	120.0
1109.751953125	0.0	100	2272772	91	80	300	1	1	1068286.6394515	1068286.6398854	80	1068289.8699	1068289.8703959	40	1068293.1163832	1068293.1168569	100	del	1068294.0361215	1.0	1068297.220606	1068294.5464852	1068294.5470738	120.0
1111.18212890625	0.0	120	2275701	91	80	300	1	1	1068286.6394515	1068286.6398854	80	1068289.8699	1068289.8703959	40	1068293.1163832	1068293.1168569	100	del	1068294.0361215	1.0	1068297.220606	1068294.5464852	1068294.5470738	120.0
1116.01025390625	0.0	80	2285589	92	63	110	0	1	1068299.3745546	1068299.375049	80	1068302.7201412	1068302.7206221	40	1068306.1862954	1068306.1868772	100	imm	1068307.1637783	nan	nan	nan	nan	nan
1119.35546875	0.0	40	2292440	92	63	110	0	1	1068299.3745546	1068299.375049	80	1068302.7201412	1068302.7206221	40	1068306.1862954	1068306.1868772	100	imm	1068307.1637783	nan	nan	nan	nan	nan
1122.82177734375	0.0	100	2299539	92	63	110	0	1	1068299.3745546	1068299.375049	80	1068302.7201412	1068302.7206221	40	1068306.1862954	1068306.1868772	100	imm	1068307.1637783	nan	nan	nan	nan	nan
1126.77197265625	0.0	80	2307629	93	67	30	0	0	1068310.1367538	1068310.1372373	80	1068313.5158177	1068313.5160447	40	1068316.6589894	1068316.6595255	100	del	1068317.7800184	nan	nan	nan	nan	nan
1130.1513671875	0.0	40	2314550	93	67	30	0	0	1068310.1367538	1068310.1372373	80	1068313.5158177	1068313.5160447	40	1068316.6589894	1068316.6595255	100	del	1068317.7800184	nan	nan	nan	nan	nan
1133.2939453125	0.0	100	2320986	93	67	30	0	0	1068310.1367538	1068310.1372373	80	1068313.5158177	1068313.5160447	40	1068316.6589894	1068316.6595255	100	del	1068317.7800184	nan	nan	nan	nan	nan
1137.2783203125	0.0	80	2329146	94	93	460	0	1	1068320.6432318	1068320.6448448	80	1068323.7160914	1068323.716328	40	1068326.7903637	1068326.7909038	100	del	1068327.9007014	nan	nan	nan	nan	nan
1140.3515625	0.0	40	2335440	94	93	460	0	1	1068320.6432318	1068320.6448448	80	1068323.7160914	1068323.716328	40	1068326.7903637	1068326.7909038	100	del	1068327.9007014	nan	nan	nan	nan	nan
1143.42529296875	0.0	100	2341735	94	93	460	0	1	1068320.6432318	1068320.6448448	80	1068323.7160914	1068323.716328	40	1068326.7903637	1068326.7909038	100	del	1068327.9007014	nan	nan	nan	nan	nan
1147.146484375	0.0	80	2349356	95	60	250	0	1	1068330.5116989	1068330.5121076	80	1068333.5921841	1068333.5933803	40	1068336.8987393	1068336.899199	100	imm	1068337.6445982	nan	nan	nan	nan	nan
1150.22705078125	0.0	40	2355665	95	60	250	0	1	1068330.5116989	1068330.5121076	80	1068333.5921841	1068333.5933803	40	1068336.8987393	1068336.899199	100	imm	1068337.6445982	nan	nan	nan	nan	nan
1153.533203125	0.0	100	2362436	95	60	250	0	1	1068330.5116989	1068330.5121076	80	1068333.5921841	1068333.5933803	40	1068336.8987393	1068336.899199	100	imm	1068337.6445982	nan	nan	nan	nan	nan
1156.83447265625	0.0	80	2369197	96	50	1070	0	0	1068340.1997743	1068340.2002701	80	1068343.6184415	1068343.6189629	40	1068346.9934188	1068346.9939121	100	imm	1068348.0131237	nan	nan	nan	nan	nan
1160.2529296875	0.0	40	2376198	96	50	1070	0	0	1068340.1997743	1068340.2002701	80	1068343.6184415	1068343.6189629	40	1068346.9934188	1068346.9939121	100	imm	1068348.0131237	nan	nan	nan	nan	nan
1163.6279296875	0.0	100	2383110	96	50	1070	0	0	1068340.1997743	1068340.2002701	80	1068343.6184415	1068343.6189629	40	1068346.9934188	1068346.9939121	100	imm	1068348.0131237	nan	nan	nan	nan	nan
1167.6279296875	0.0	80	2391302	97	93	200	1	1	1068350.9938146	1068350.994292	80	1068354.2476869	1068354.2481543	40	1068357.5880035	1068357.5885828	100	del	1068358.643869	4.0	1068359.804593	1068359.1538845	1068359.1542109	120.0
1170.8818359375	0.0	40	2397966	97	93	200	1	1	1068350.9938146	1068350.994292	80	1068354.2476869	1068354.2481543	40	1068357.5880035	1068357.5885828	100	del	1068358.643869	4.0	1068359.804593	1068359.1538845	1068359.1542109	120.0
1174.22216796875	0.0	100	2404807	97	93	200	1	1	1068350.9938146	1068350.994292	80	1068354.2476869	1068354.2481543	40	1068357.5880035	1068357.5885828	100	del	1068358.643869	4.0	1068359.804593	1068359.1538845	1068359.1542109	120.0
1175.7880859375	0.0	120	2408014	97	93	200	1	1	1068350.9938146	1068350.994292	80	1068354.2476869	1068354.2481543	40	1068357.5880035	1068357.5885828	100	del	1068358.643869	4.0	1068359.804593	1068359.1538845	1068359.1542109	120.0
1178.89794921875	0.0	80	2414383	98	53	7	1	0	1068362.2638495	1068362.2643025	80	1068365.5410233	1068365.5415186	40	1068368.6958829	1068368.696391	100	imm	1068369.7335256	4.0	1068370.9643052	1068370.2451512	1068370.2455878	120.0
1182.1748046875	0.0	40	2421094	98	53	7	1	0	1068362.2638495	1068362.2643025	80	1068365.5410233	1068365.5415186	40	1068368.6958829	1068368.696391	100	imm	1068369.7335256	4.0	1068370.9643052	1068370.2451512	1068370.2455878	120.0
1185.32958984375	0.0	100	2427555	98	53	7	1	0	1068362.2638495	1068362.2643025	80	1068365.5410233	1068365.5415186	40	1068368.6958829	1068368.696391	100	imm	1068369.7335256	4.0	1068370.9643052	1068370.2451512	1068370.2455878	120.0
1186.87890625	0.0	120	2430728	98	53	7	1	0	1068362.2638495	1068362.2643025	80	1068365.5410233	1068365.5415186	40	1068368.6958829	1068368.696391	100	imm	1068369.7335256	4.0	1068370.9643052	1068370.2451512	1068370.2455878	120.0
1190.1015625	0.0	80	2437328	99	70	460	0	0	1068373.4677159	1068373.4681511	80	1068376.4942772	1068376.4947039	40	1068379.6742442	1068379.6746871	100	imm	1068384.5646315	nan	nan	nan	nan	nan
1193.1279296875	0.0	40	2443526	99	70	460	0	0	1068373.4677159	1068373.4681511	80	1068376.4942772	1068376.4947039	40	1068379.6742442	1068379.6746871	100	imm	1068384.5646315	nan	nan	nan	nan	nan
1196.3076171875	0.0	100	2450038	99	70	460	0	0	1068373.4677159	1068373.4681511	80	1068376.4942772	1068376.4947039	40	1068379.6742442	1068379.6746871	100	imm	1068384.5646315	nan	nan	nan	nan	nan
1204.2001953125	0.0	80	2466202	100	100	110	0	0	1068387.5667539	1068387.5670629	80	1068390.7579518	1068390.7584039	40	1068393.9257402	1068393.9262084	100	del	1068394.6919402	nan	nan	nan	nan	nan
1207.39111328125	0.0	40	2472737	100	100	110	0	0	1068387.5667539	1068387.5670629	80	1068390.7579518	1068390.7584039	40	1068393.9257402	1068393.9262084	100	del	1068394.6919402	nan	nan	nan	nan	nan
1210.55908203125	0.0	100	2479225	100	100	110	0	0	1068387.5667539	1068387.5670629	80	1068390.7579518	1068390.7584039	40	1068393.9257402	1068393.9262084	100	del	1068394.6919402	nan	nan	nan	nan	nan
1228.54638671875	0.0	80	2516063	101	53	300	1	0	1068411.9135803	1068411.9140587	80	1068415.3781898	1068415.3785737	40	1068418.4583886	1068418.4588638	100	imm	1068419.8123878	1.0	1068420.9083747	1068420.3220573	1068420.3223505	120.0
1232.0107421875	0.0	40	2523158	101	53	300	1	0	1068411.9135803	1068411.9140587	80	1068415.3781898	1068415.3785737	40	1068418.4583886	1068418.4588638	100	imm	1068419.8123878	1.0	1068420.9083747	1068420.3220573	1068420.3223505	120.0
1235.0908203125	0.0	100	2529466	101	53	300	1	0	1068411.9135803	1068411.9140587	80	1068415.3781898	1068415.3785737	40	1068418.4583886	1068418.4588638	100	imm	1068419.8123878	1.0	1068420.9083747	1068420.3220573	1068420.3223505	120.0
1236.95458984375	0.0	120	2533283	101	53	300	1	0	1068411.9135803	1068411.9140587	80	1068415.3781898	1068415.3785737	40	1068418.4583886	1068418.4588638	100	imm	1068419.8123878	1.0	1068420.9083747	1068420.3220573	1068420.3223505	120.0
1239.72216796875	0.0	80	2538951	102	100	60	1	0	1068423.0896895	1068423.090102	80	1068426.5458476	1068426.546378	40	1068429.8089678	1068429.8094857	100	del	1068430.8758333	3.0	1068432.0525093	1068431.3861514	1068431.3865557	120.0
1243.17822265625	0.0	40	2546029	102	100	60	1	0	1068423.0896895	1068423.090102	80	1068426.5458476	1068426.546378	40	1068429.8089678	1068429.8094857	100	del	1068430.8758333	3.0	1068432.0525093	1068431.3861514	1068431.3865557	120.0
1246.44140625	0.0	100	2552712	102	100	60	1	0	1068423.0896895	1068423.090102	80	1068426.5458476	1068426.546378	40	1068429.8089678	1068429.8094857	100	del	1068430.8758333	3.0	1068432.0525093	1068431.3861514	1068431.3865557	120.0
1248.0185546875	0.0	120	2555942	102	100	60	1	0	1068423.0896895	1068423.090102	80	1068426.5458476	1068426.546378	40	1068429.8089678	1068429.8094857	100	del	1068430.8758333	3.0	1068432.0525093	1068431.3861514	1068431.3865557	120.0
1251.0068359375	0.0	80	2562062	103	83	110	0	0	1068434.3744313	1068434.3749002	80	1068437.6736109	1068437.6741013	40	1068441.0360631	1068441.0365569	100	del	1068441.8355132	nan	nan	nan	nan	nan
1254.3056640625	0.0	40	2568818	103	83	110	0	0	1068434.3744313	1068434.3749002	80	1068437.6736109	1068437.6741013	40	1068441.0360631	1068441.0365569	100	del	1068441.8355132	nan	nan	nan	nan	nan
1257.66796875	0.0	100	2575704	103	83	110	0	0	1068434.3744313	1068434.3749002	80	1068437.6736109	1068437.6741013	40	1068441.0360631	1068441.0365569	100	del	1068441.8355132	nan	nan	nan	nan	nan
1261.0009765625	0.0	80	2582530	104	93	7	1	1	1068444.369176	1068444.3696322	80	1068447.640725	1068447.6411277	40	1068450.6708645	1068450.6713862	100	del	1068452.3881786	4.0	1068453.6359008	1068452.8984748	1068452.8988389	120.0
1264.2724609375	0.0	40	2589230	104	93	7	1	1	1068444.369176	1068444.3696322	80	1068447.640725	1068447.6411277	40	1068450.6708645	1068450.6713862	100	del	1068452.3881786	4.0	1068453.6359008	1068452.8984748	1068452.8988389	120.0
1267.302734375	0.0	100	2595436	104	93	7	1	1	1068444.369176	1068444.3696322	80	1068447.640725	1068447.6411277	40	1068450.6708645	1068450.6713862	100	del	1068452.3881786	4.0	1068453.6359008	1068452.8984748	1068452.8988389	120.0
1269.5302734375	0.0	120	2599998	104	93	7	1	1	1068444.369176	1068444.3696322	80	1068447.640725	1068447.6411277	40	1068450.6708645	1068450.6713862	100	del	1068452.3881786	4.0	1068453.6359008	1068452.8984748	1068452.8988389	120.0
1272.69775390625	0.0	80	2606485	105	83	700	1	1	1068456.0659398	1068456.0664128	80	1068459.2434991	1068459.2440315	40	1068462.680542	1068462.6810553	100	del	1068463.6444962	1.0	1068464.7794589	1068464.1540796	1068464.1544812	120.0
1275.875	0.0	40	2612992	105	83	700	1	1	1068456.0659398	1068456.0664128	80	1068459.2434991	1068459.2440315	40	1068462.680542	1068462.6810553	100	del	1068463.6444962	1.0	1068464.7794589	1068464.1540796	1068464.1544812	120.0
1279.31201171875	0.0	100	2620031	105	83	700	1	1	1068456.0659398	1068456.0664128	80	1068459.2434991	1068459.2440315	40	1068462.680542	1068462.6810553	100	del	1068463.6444962	1.0	1068464.7794589	1068464.1540796	1068464.1544812	120.0
1280.78564453125	0.0	120	2623049	105	83	700	1	1	1068456.0659398	1068456.0664128	80	1068459.2434991	1068459.2440315	40	1068462.680542	1068462.6810553	100	del	1068463.6444962	1.0	1068464.7794589	1068464.1540796	1068464.1544812	120.0
1283.55029296875	0.0	80	2628711	106	90	200	1	0	1068466.918835	1068466.919274	80	1068470.2169922	1068470.2175139	40	1068473.6996064	1068473.7001072	100	del	1068474.6361816	4.0	1068475.940287	1068475.1473734	1068475.1478483	120.0
1286.84814453125	0.0	40	2635465	106	90	200	1	0	1068466.918835	1068466.919274	80	1068470.2169922	1068470.2175139	40	1068473.6996064	1068473.7001072	100	del	1068474.6361816	4.0	1068475.940287	1068475.1473734	1068475.1478483	120.0
1290.3310546875	0.0	100	2642598	106	90	200	1	0	1068466.918835	1068466.919274	80	1068470.2169922	1068470.2175139	40	1068473.6996064	1068473.7001072	100	del	1068474.6361816	4.0	1068475.940287	1068475.1473734	1068475.1478483	120.0
1291.7783203125	0.0	120	2645562	106	90	200	1	0	1068466.918835	1068466.919274	80	1068470.2169922	1068470.2175139	40	1068473.6996064	1068473.7001072	100	del	1068474.6361816	4.0	1068475.940287	1068475.1473734	1068475.1478483	120.0
1294.60888671875	0.0	80	2651359	107	83	200	1	1	1068477.9777441	1068477.9782349	80	1068481.012575	1068481.0130369	40	1068484.0359405	1068484.0364753	100	del	1068484.9480969	3.0	1068486.4999117	1068485.4569415	1068485.4572774	120.0
1297.6435546875	0.0	40	2657574	107	83	200	1	1	1068477.9777441	1068477.9782349	80	1068481.012575	1068481.0130369	40	1068484.0359405	1068484.0364753	100	del	1068484.9480969	3.0	1068486.4999117	1068485.4569415	1068485.4572774	120.0
1300.6669921875	0.0	100	2663766	107	83	200	1	1	1068477.9777441	1068477.9782349	80	1068481.012575	1068481.0130369	40	1068484.0359405	1068484.0364753	100	del	1068484.9480969	3.0	1068486.4999117	1068485.4569415	1068485.4572774	120.0
1302.087890625	0.0	120	2666676	107	83	200	1	1	1068477.9777441	1068477.9782349	80	1068481.012575	1068481.0130369	40	1068484.0359405	1068484.0364753	100	del	1068484.9480969	3.0	1068486.4999117	1068485.4569415	1068485.4572774	120.0
1305.482421875	0.0	80	2673628	108	63	1070	0	0	1068488.8518637	1068488.8521278	80	1068492.158671	1068492.1591654	40	1068495.2294503	1068495.2299514	100	del	1068496.0838547	nan	nan	nan	nan	nan
1308.78955078125	0.0	40	2680401	108	63	1070	0	0	1068488.8518637	1068488.8521278	80	1068492.158671	1068492.1591654	40	1068495.2294503	1068495.2299514	100	del	1068496.0838547	nan	nan	nan	nan	nan
1311.8603515625	0.0	100	2686690	108	63	1070	0	0	1068488.8518637	1068488.8521278	80	1068492.158671	1068492.1591654	40	1068495.2294503	1068495.2299514	100	del	1068496.0838547	nan	nan	nan	nan	nan
1315.63037109375	0.0	80	2694411	109	70	30	0	0	1068498.999775	1068499.0002775	80	1068502.3161492	1068502.3165932	40	1068505.3645859	1068505.3650753	100	del	1068506.0843381	nan	nan	nan	nan	nan
1318.94677734375	0.0	40	2701203	109	70	30	0	0	1068498.999775	1068499.0002775	80	1068502.3161492	1068502.3165932	40	1068505.3645859	1068505.3650753	100	del	1068506.0843381	nan	nan	nan	nan	nan
1321.9951171875	0.0	100	2707446	109	70	30	0	0	1068498.999775	1068499.0002775	80	1068502.3161492	1068502.3165932	40	1068505.3645859	1068505.3650753	100	del	1068506.0843381	nan	nan	nan	nan	nan
1325.2666015625	0.0	80	2714146	110	90	60	1	0	1068508.6362791	1068508.6367787	80	1068511.7119829	1068511.7124009	40	1068515.1191087	1068515.1195584	100	del	1068517.6599251	3.0	1068518.7801807	1068518.1736083	1068518.1740442	120.0
1328.34228515625	0.0	40	2720445	110	90	60	1	0	1068508.6362791	1068508.6367787	80	1068511.7119829	1068511.7124009	40	1068515.1191087	1068515.1195584	100	del	1068517.6599251	3.0	1068518.7801807	1068518.1736083	1068518.1740442	120.0
1331.74951171875	0.0	100	2727423	110	90	60	1	0	1068508.6362791	1068508.6367787	80	1068511.7119829	1068511.7124009	40	1068515.1191087	1068515.1195584	100	del	1068517.6599251	3.0	1068518.7801807	1068518.1736083	1068518.1740442	120.0
1334.8037109375	0.0	120	2733678	110	90	60	1	0	1068508.6362791	1068508.6367787	80	1068511.7119829	1068511.7124009	40	1068515.1191087	1068515.1195584	100	del	1068517.6599251	3.0	1068518.7801807	1068518.1736083	1068518.1740442	120.0
1337.470703125	0.0	80	2739140	111	50	110	0	0	1068520.8404594	1068520.8409405	80	1068523.966819	1068523.9672861	40	1068527.1025999	1068527.1032341	100	imm	1068527.8602743	nan	nan	nan	nan	nan
1340.5966796875	0.0	40	2745542	111	50	110	0	0	1068520.8404594	1068520.8409405	80	1068523.966819	1068523.9672861	40	1068527.1025999	1068527.1032341	100	imm	1068527.8602743	nan	nan	nan	nan	nan
1343.732421875	0.0	100	2751964	111	50	110	0	0	1068520.8404594	1068520.8409405	80	1068523.966819	1068523.9672861	40	1068527.1025999	1068527.1032341	100	imm	1068527.8602743	nan	nan	nan	nan	nan
1347.05908203125	0.0	80	2758777	112	73	30	0	1	1068530.4294683	1068530.4299118	80	1068533.8663038	1068533.8667003	40	1068537.2283625	1068537.228844	100	del	1068538.3316195	nan	nan	nan	nan	nan
1350.49609375	0.0	40	2765816	112	73	30	0	1	1068530.4294683	1068530.4299118	80	1068533.8663038	1068533.8667003	40	1068537.2283625	1068537.228844	100	del	1068538.3316195	nan	nan	nan	nan	nan
1353.85791015625	0.0	100	2772701	112	73	30	0	1	1068530.4294683	1068530.4299118	80	1068533.8663038	1068533.8667003	40	1068537.2283625	1068537.228844	100	del	1068538.3316195	nan	nan	nan	nan	nan
1357.84619140625	0.0	80	2780869	113	53	460	0	1	1068541.2165042	1068541.2171279	80	1068544.5493958	1068544.5498457	40	1068547.820826	1068547.8213529	100	imm	1068548.6280512	nan	nan	nan	nan	nan
1361.1787109375	0.0	40	2787694	113	53	460	0	1	1068541.2165042	1068541.2171279	80	1068544.5493958	1068544.5498457	40	1068547.820826	1068547.8213529	100	imm	1068548.6280512	nan	nan	nan	nan	nan
1364.4501953125	0.0	100	2794394	113	53	460	0	1	1068541.2165042	1068541.2171279	80	1068544.5493958	1068544.5498457	40	1068547.820826	1068547.8213529	100	imm	1068548.6280512	nan	nan	nan	nan	nan
1367.93994140625	0.0	80	2801541	114	63	700	1	0	1068551.3104484	1068551.3109191	80	1068554.6489273	1068554.649596	40	1068557.7222708	1068557.722724	100	imm	1068558.6515181	3.0	1068560.0372205	1068559.1635942	1068559.1641428	120.0
1371.2783203125	0.0	40	2808378	114	63	700	1	0	1068551.3104484	1068551.3109191	80	1068554.6489273	1068554.649596	40	1068557.7222708	1068557.722724	100	imm	1068558.6515181	3.0	1068560.0372205	1068559.1635942	1068559.1641428	120.0
1374.3515625	0.0	100	2814672	114	63	700	1	0	1068551.3104484	1068551.3109191	80	1068554.6489273	1068554.649596	40	1068557.7222708	1068557.722724	100	imm	1068558.6515181	3.0	1068560.0372205	1068559.1635942	1068559.1641428	120.0
1375.79248046875	0.0	120	2817623	114	63	700	1	0	1068551.3104484	1068551.3109191	80	1068554.6489273	1068554.649596	40	1068557.7222708	1068557.722724	100	imm	1068558.6515181	3.0	1068560.0372205	1068559.1635942	1068559.1641428	120.0
1378.7509765625	0.0	80	2823682	115	63	460	0	0	1068562.1221957	1068562.1225076	80	1068565.1395851	1068565.1400575	40	1068568.6348393	1068568.6353725	100	imm	1068569.3236301	nan	nan	nan	nan	nan
1381.7685546875	0.0	40	2829862	115	63	460	0	0	1068562.1221957	1068562.1225076	80	1068565.1395851	1068565.1400575	40	1068568.6348393	1068568.6353725	100	imm	1068569.3236301	nan	nan	nan	nan	nan
1385.263671875	0.0	100	2837020	115	63	460	0	0	1068562.1221957	1068562.1225076	80	1068565.1395851	1068565.1400575	40	1068568.6348393	1068568.6353725	100	imm	1068569.3236301	nan	nan	nan	nan	nan
1388.955078125	0.0	80	2844580	116	90	300	1	0	1068572.3261095	1068572.326567	80	1068575.3957284	1068575.3961851	40	1068578.6421883	1068578.64265	100	del	1068579.4434756	1.0	1068581.3802466	1068579.953437	1068579.9537387	120.0
1392.0244140625	0.0	40	2850866	116	90	300	1	0	1068572.3261095	1068572.326567	80	1068575.3957284	1068575.3961851	40	1068578.6421883	1068578.64265	100	del	1068579.4434756	1.0	1068581.3802466	1068579.953437	1068579.9537387	120.0
1395.27099609375	0.0	100	2857515	116	90	300	1	0	1068572.3261095	1068572.326567	80	1068575.3957284	1068575.3961851	40	1068578.6421883	1068578.64265	100	del	1068579.4434756	1.0	1068581.3802466	1068579.953437	1068579.9537387	120.0
1396.58203125	0.0	120	2860200	116	90	300	1	0	1068572.3261095	1068572.326567	80	1068575.3957284	1068575.3961851	40	1068578.6421883	1068578.64265	100	del	1068579.4434756	1.0	1068581.3802466	1068579.953437	1068579.9537387	120.0
1400.35205078125	0.0	80	2867921	117	97	250	0	0	1068583.7234623	1068583.7238826	80	1068586.8760102	1068586.8764485	40	1068590.2676002	1068590.2680841	100	del	1068591.3475528	nan	nan	nan	nan	nan
1403.50439453125	0.0	40	2874377	117	97	250	0	0	1068583.7234623	1068583.7238826	80	1068586.8760102	1068586.8764485	40	1068590.2676002	1068590.2680841	100	del	1068591.3475528	nan	nan	nan	nan	nan
1406.89599609375	0.0	100	2881323	117	97	250	0	0	1068583.7234623	1068583.7238826	80	1068586.8760102	1068586.8764485	40	1068590.2676002	1068590.2680841	100	del	1068591.3475528	nan	nan	nan	nan	nan
1410.77197265625	0.0	80	2889261	118	63	300	1	1	1068594.1437275	1068594.1442734	80	1068597.3640038	1068597.3643618	40	1068600.5106711	1068600.5112223	100	imm	1068601.57969	1.0	1068603.004199	1068602.0908536	1068602.0912744	120.0
1413.9921875	0.0	40	2895856	118	63	300	1	1	1068594.1437275	1068594.1442734	80	1068597.3640038	1068597.3643618	40	1068600.5106711	1068600.5112223	100	imm	1068601.57969	1.0	1068603.004199	1068602.0908536	1068602.0912744	120.0
1417.138671875	0.0	100	2902300	118	63	300	1	1	1068594.1437275	1068594.1442734	80	1068597.3640038	1068597.3643618	40	1068600.5106711	1068600.5112223	100	imm	1068601.57969	1.0	1068603.004199	1068602.0908536	1068602.0912744	120.0
1418.71875	0.0	120	2905536	118	63	300	1	1	1068594.1437275	1068594.1442734	80	1068597.3640038	1068597.3643618	40	1068600.5106711	1068600.5112223	100	imm	1068601.57969	1.0	1068603.004199	1068602.0908536	1068602.0912744	120.0
1422.02490234375	0.0	80	2912307	119	93	700	1	1	1068605.3969347	1068605.3973949	80	1068608.8534604	1068608.8539224	40	1068612.2318259	1068612.2323052	100	del	1068613.1953376	3.0	1068614.1808766	1068613.7073051	1068613.707764	120.0
1425.4814453125	0.0	40	2919386	119	93	700	1	1	1068605.3969347	1068605.3973949	80	1068608.8534604	1068608.8539224	40	1068612.2318259	1068612.2323052	100	del	1068613.1953376	3.0	1068614.1808766	1068613.7073051	1068613.707764	120.0
1428.859375	0.0	100	2926304	119	93	700	1	1	1068605.3969347	1068605.3973949	80	1068608.8534604	1068608.8539224	40	1068612.2318259	1068612.2323052	100	del	1068613.1953376	3.0	1068614.1808766	1068613.7073051	1068613.707764	120.0
1430.3349609375	0.0	120	2929326	119	93	700	1	1	1068605.3969347	1068605.3973949	80	1068608.8534604	1068608.8539224	40	1068612.2318259	1068612.2323052	100	del	1068613.1953376	3.0	1068614.1808766	1068613.7073051	1068613.707764	120.0
1433.02880859375	0.0	80	2934843	120	100	1070	0	0	1068616.400936	1068616.4013476	80	1068619.8777971	1068619.878271	40	1068623.0181878	1068623.0186748	100	del	1068623.8594306	nan	nan	nan	nan	nan
1436.50537109375	0.0	40	2941963	120	100	1070	0	0	1068616.400936	1068616.4013476	80	1068619.8777971	1068619.878271	40	1068623.0181878	1068623.0186748	100	del	1068623.8594306	nan	nan	nan	nan	nan
1439.6455078125	0.0	100	2948394	120	100	1070	0	0	1068616.400936	1068616.4013476	80	1068619.8777971	1068619.878271	40	1068623.0181878	1068623.0186748	100	del	1068623.8594306	nan	nan	nan	nan	nan
1458.01171875	0.0	80	2986008	121	80	60	1	1	1068641.3846732	1068641.3850777	80	1068644.8696651	1068644.870187	40	1068648.017454	1068648.0180096	100	del	1068648.9155595	2.0	1068649.691755	1068649.4255551	1068649.4259145	120.0
1461.49658203125	0.0	40	2993145	121	80	60	1	1	1068641.3846732	1068641.3850777	80	1068644.8696651	1068644.870187	40	1068648.017454	1068648.0180096	100	del	1068648.9155595	2.0	1068649.691755	1068649.4255551	1068649.4259145	120.0
1464.64453125	0.0	100	2999592	121	80	60	1	1	1068641.3846732	1068641.3850777	80	1068644.8696651	1068644.870187	40	1068648.017454	1068648.0180096	100	del	1068648.9155595	2.0	1068649.691755	1068649.4255551	1068649.4259145	120.0
1466.05224609375	0.0	120	3002475	121	80	60	1	1	1068641.3846732	1068641.3850777	80	1068644.8696651	1068644.870187	40	1068648.017454	1068648.0180096	100	del	1068648.9155595	2.0	1068649.691755	1068649.4255551	1068649.4259145	120.0
1468.45947265625	0.0	80	3007405	122	60	700	1	1	1068651.8329369	1068651.8334279	80	1068655.3031121	1068655.3035385	40	1068658.3461867	1068658.3464865	100	del	1068659.6677293	4.0	1068660.3872359	1068660.1810391	1068660.1814489	120.0
1471.9296875	0.0	40	3014512	122	60	700	1	1	1068651.8329369	1068651.8334279	80	1068655.3031121	1068655.3035385	40	1068658.3461867	1068658.3464865	100	del	1068659.6677293	4.0	1068660.3872359	1068660.1810391	1068660.1814489	120.0
1474.97265625	0.0	100	3020744	122	60	700	1	1	1068651.8329369	1068651.8334279	80	1068655.3031121	1068655.3035385	40	1068658.3461867	1068658.3464865	100	del	1068659.6677293	4.0	1068660.3872359	1068660.1810391	1068660.1814489	120.0
1476.8076171875	0.0	120	3024502	122	60	700	1	1	1068651.8329369	1068651.8334279	80	1068655.3031121	1068655.3035385	40	1068658.3461867	1068658.3464865	100	del	1068659.6677293	4.0	1068660.3872359	1068660.1810391	1068660.1814489	120.0
1479.17626953125	0.0	80	3029353	123	53	110	0	0	1068662.5498623	1068662.5501631	80	1068665.8540042	1068665.8545124	40	1068668.969154	1068668.9701104	100	imm	1068669.9566449	nan	nan	nan	nan	nan
1482.48046875	0.0	40	3036120	123	53	110	0	0	1068662.5498623	1068662.5501631	80	1068665.8540042	1068665.8545124	40	1068668.969154	1068668.9701104	100	imm	1068669.9566449	nan	nan	nan	nan	nan
1485.595703125	0.0	100	3042500	123	53	110	0	0	1068662.5498623	1068662.5501631	80	1068665.8540042	1068665.8545124	40	1068668.969154	1068668.9701104	100	imm	1068669.9566449	nan	nan	nan	nan	nan
1489.41796875	0.0	80	3050328	124	57	30	0	0	1068672.7917095	1068672.7921526	80	1068676.1985979	1068676.1990911	40	1068679.4628395	1068679.4633473	100	del	1068680.2278585	nan	nan	nan	nan	nan
1492.82470703125	0.0	40	3057305	124	57	30	0	0	1068672.7917095	1068672.7921526	80	1068676.1985979	1068676.1990911	40	1068679.4628395	1068679.4633473	100	del	1068680.2278585	nan	nan	nan	nan	nan
1496.0888671875	0.0	100	3063990	124	57	30	0	0	1068672.7917095	1068672.7921526	80	1068676.1985979	1068676.1990911	40	1068679.4628395	1068679.4633473	100	del	1068680.2278585	nan	nan	nan	nan	nan
1499.6953125	0.0	80	3071376	125	50	250	0	1	1068683.0691251	1068683.0695243	80	1068686.4744249	1068686.474876	40	1068689.6046376	1068689.605145	100	imm	1068690.6272925	nan	nan	nan	nan	nan
1503.10009765625	0.0	40	3078349	125	50	250	0	1	1068683.0691251	1068683.0695243	80	1068686.4744249	1068686.474876	40	1068689.6046376	1068689.605145	100	imm	1068690.6272925	nan	nan	nan	nan	nan
1506.23046875	0.0	100	3084760	125	50	250	0	1	1068683.0691251	1068683.0695243	80	1068686.4744249	1068686.474876	40	1068689.6046376	1068689.605145	100	imm	1068690.6272925	nan	nan	nan	nan	nan
1510.06884765625	0.0	80	3092621	126	57	300	1	0	1068693.4431462	1068693.4436313	80	1068696.5069067	1068696.5073706	40	1068699.7778001	1068699.7783148	100	imm	1068700.5087702	3.0	1068702.0846992	1068701.0192335	1068701.019588	120.0
1513.13232421875	0.0	40	3098895	126	57	300	1	0	1068693.4431462	1068693.4436313	80	1068696.5069067	1068696.5073706	40	1068699.7778001	1068699.7783148	100	imm	1068700.5087702	3.0	1068702.0846992	1068701.0192335	1068701.019588	120.0
1516.4033203125	0.0	100	3105594	126	57	300	1	0	1068693.4431462	1068693.4436313	80	1068696.5069067	1068696.5073706	40	1068699.7778001	1068699.7783148	100	imm	1068700.5087702	3.0	1068702.0846992	1068701.0192335	1068701.019588	120.0
1517.64453125	0.0	120	3108136	126	57	300	1	0	1068693.4431462	1068693.4436313	80	1068696.5069067	1068696.5073706	40	1068699.7778001	1068699.7783148	100	imm	1068700.5087702	3.0	1068702.0846992	1068701.0192335	1068701.019588	120.0
1521.1455078125	0.0	80	3115306	127	77	1070	0	1	1068704.5199399	1068704.5204518	80	1068707.9889268	1068707.9894257	40	1068711.2516337	1068711.2521199	100	del	1068712.5319042	nan	nan	nan	nan	nan
1524.6142578125	0.0	40	3122410	127	77	1070	0	1	1068704.5199399	1068704.5204518	80	1068707.9889268	1068707.9894257	40	1068711.2516337	1068711.2521199	100	del	1068712.5319042	nan	nan	nan	nan	nan
1527.876953125	0.0	100	3129092	127	77	1070	0	1	1068704.5199399	1068704.5204518	80	1068707.9889268	1068707.9894257	40	1068711.2516337	1068711.2521199	100	del	1068712.5319042	nan	nan	nan	nan	nan
1531.81005859375	0.0	80	3137147	128	60	30	0	0	1068715.1848666	1068715.1851868	80	1068718.5183255	1068718.5187894	40	1068721.9870261	1068721.9873736	100	del	1068723.2117274	nan	nan	nan	nan	nan
1535.1435546875	0.0	40	3143974	128	60	30	0	0	1068715.1848666	1068715.1851868	80	1068718.5183255	1068718.5187894	40	1068721.9870261	1068721.9873736	100	del	1068723.2117274	nan	nan	nan	nan	nan
1538.61181640625	0.0	100	3151077	128	60	30	0	0	1068715.1848666	1068715.1851868	80	1068718.5183255	1068718.5187894	40	1068721.9870261	1068721.9873736	100	del	1068723.2117274	nan	nan	nan	nan	nan
1542.60693359375	0.0	80	3159259	129	50	460	0	0	1068725.9818187	1068725.9823101	80	1068729.4778058	1068729.4782526	40	1068732.5886779	1068732.5891734	100	imm	1068733.4998515	nan	nan	nan	nan	nan
1546.1025390625	0.0	40	3166418	129	50	460	0	0	1068725.9818187	1068725.9823101	80	1068729.4778058	1068729.4782526	40	1068732.5886779	1068732.5891734	100	imm	1068733.4998515	nan	nan	nan	nan	nan
1549.21337890625	0.0	100	3172789	129	50	460	0	0	1068725.9818187	1068725.9823101	80	1068729.4778058	1068729.4782526	40	1068732.5886779	1068732.5891734	100	imm	1068733.4998515	nan	nan	nan	nan	nan
1552.6982421875	0.0	80	3179926	130	67	700	1	0	1068736.0735403	1068736.0739707	80	1068739.2306126	1068739.2311	40	1068742.4413013	1068742.4417644	100	imm	1068742.9957177	4.0	1068744.0509609	1068743.5057548	1068743.506111	120.0
1555.85498046875	0.0	40	3186391	130	67	700	1	0	1068736.0735403	1068736.0739707	80	1068739.2306126	1068739.2311	40	1068742.4413013	1068742.4417644	100	imm	1068742.9957177	4.0	1068744.0509609	1068743.5057548	1068743.506111	120.0
1559.06591796875	0.0	100	3192967	130	67	700	1	0	1068736.0735403	1068736.0739707	80	1068739.2306126	1068739.2311	40	1068742.4413013	1068742.4417644	100	imm	1068742.9957177	4.0	1068744.0509609	1068743.5057548	1068743.506111	120.0
1560.13037109375	0.0	120	3195147	130	67	700	1	0	1068736.0735403	1068736.0739707	80	1068739.2306126	1068739.2311	40	1068742.4413013	1068742.4417644	100	imm	1068742.9957177	4.0	1068744.0509609	1068743.5057548	1068743.506111	120.0
1562.90283203125	0.0	80	3200825	131	67	1070	0	0	1068746.2786506	1068746.2791398	80	1068749.4420008	1068749.4425239	40	1068752.8021132	1068752.8026117	100	imm	1068753.555669	nan	nan	nan	nan	nan
1566.06640625	0.0	40	3207304	131	67	1070	0	0	1068746.2786506	1068746.2791398	80	1068749.4420008	1068749.4425239	40	1068752.8021132	1068752.8026117	100	imm	1068753.555669	nan	nan	nan	nan	nan
1569.42626953125	0.0	100	3214185	131	67	1070	0	0	1068746.2786506	1068746.2791398	80	1068749.4420008	1068749.4425239	40	1068752.8021132	1068752.8026117	100	imm	1068753.555669	nan	nan	nan	nan	nan
1572.74609375	0.0	80	3220984	132	67	300	1	0	1068756.1217938	1068756.122347	80	1068759.3305262	1068759.3310153	40	1068762.4910821	1068762.4915436	100	imm	1068763.3075416	1.0	1068764.2677495	1068763.818059	1068763.8184204	120.0
1575.95458984375	0.0	40	3227555	132	67	300	1	0	1068756.1217938	1068756.122347	80	1068759.3305262	1068759.3310153	40	1068762.4910821	1068762.4915436	100	imm	1068763.3075416	1.0	1068764.2677495	1068763.818059	1068763.8184204	120.0
1579.115234375	0.0	100	3234028	132	67	300	1	0	1068756.1217938	1068756.122347	80	1068759.3305262	1068759.3310153	40	1068762.4910821	1068762.4915436	100	imm	1068763.3075416	1.0	1068764.2677495	1068763.818059	1068763.8184204	120.0
1580.44189453125	0.0	120	3236745	132	67	300	1	0	1068756.1217938	1068756.122347	80	1068759.3305262	1068759.3310153	40	1068762.4910821	1068762.4915436	100	imm	1068763.3075416	1.0	1068764.2677495	1068763.818059	1068763.8184204	120.0
1583.06103515625	0.0	80	3242109	133	77	700	1	0	1068766.4369261	1068766.4373587	80	1068769.4974018	1068769.4978998	40	1068772.8038888	1068772.8042571	100	del	1068773.6437257	3.0	1068774.8275126	1068774.1558172	1068774.1562916	120.0
1586.12109375	0.0	40	3248376	133	77	700	1	0	1068766.4369261	1068766.4373587	80	1068769.4974018	1068769.4978998	40	1068772.8038888	1068772.8042571	100	del	1068773.6437257	3.0	1068774.8275126	1068774.1558172	1068774.1562916	120.0
1589.427734375	0.0	100	3255148	133	77	700	1	0	1068766.4369261	1068766.4373587	80	1068769.4974018	1068769.4978998	40	1068772.8038888	1068772.8042571	100	del	1068773.6437257	3.0	1068774.8275126	1068774.1558172	1068774.1562916	120.0
1590.77978515625	0.0	120	3257917	133	77	700	1	0	1068766.4369261	1068766.4373587	80	1068769.4974018	1068769.4978998	40	1068772.8038888	1068772.8042571	100	del	1068773.6437257	3.0	1068774.8275126	1068774.1558172	1068774.1562916	120.0
1593.6064453125	0.0	80	3263706	134	73	460	0	0	1068776.9830322	1068776.9835035	80	1068780.0681922	1068780.0686561	40	1068783.0821488	1068783.0826509	100	del	1068784.1791785	nan	nan	nan	nan	nan
1596.69189453125	0.0	40	3270025	134	73	460	0	0	1068776.9830322	1068776.9835035	80	1068780.0681922	1068780.0686561	40	1068783.0821488	1068783.0826509	100	del	1068784.1791785	nan	nan	nan	nan	nan
