onset	duration	value	sample	trial_idx	val	del	is_cued	rev_opts	del_pres_displaytime	del_pres_triggertime	del_pres_triggercode	val_pres_displaytime	val_pres_triggertime	val_pres_triggercode	choice_displaytime	choice_triggertime	choice_triggercode	choice	choice_time	viv	viv_time	viv_displaytime	viv_triggertime	viv_triggercode
27.03759765625	0.0	80	55373	1	60	790	0	0	1529164.8654312	1529164.86604	80	1529168.2294968	1529168.2300572	40	1529171.543195	1529171.5435242	100	imm	1529172.661247	nan	nan	nan	nan	nan
30.4013671875	0.0	40	62262	1	60	790	0	0	1529164.8654312	1529164.86604	80	1529168.2294968	1529168.2300572	40	1529171.543195	1529171.5435242	100	imm	1529172.661247	nan	nan	nan	nan	nan
33.71484375	0.0	100	69048	1	60	790	0	0	1529164.8654312	1529164.86604	80	1529168.2294968	1529168.2300572	40	1529171.543195	1529171.5435242	100	imm	1529172.661247	nan	nan	nan	nan	nan
37.66845703125	0.0	80	77145	2	67	210	1	0	1529175.4964297	1529175.4970098	80	1529178.9434367	1529178.9438838	40	1529182.2879745	1529182.2884076	100	imm	1529185.7348863	1.0	1529187.4939605	1529186.2540377	1529186.2545446	120.0
41.115234375	0.0	40	84204	2	67	210	1	0	1529175.4964297	1529175.4970098	80	1529178.9434367	1529178.9438838	40	1529182.2879745	1529182.2884076	100	imm	1529185.7348863	1.0	1529187.4939605	1529186.2540377	1529186.2545446	120.0
44.45947265625	0.0	100	91053	2	67	210	1	0	1529175.4964297	1529175.4970098	80	1529178.9434367	1529178.9438838	40	1529182.2879745	1529182.2884076	100	imm	1529185.7348863	1.0	1529187.4939605	1529186.2540377	1529186.2545446	120.0
48.42578125	0.0	120	99176	2	67	210	1	0	1529175.4964297	1529175.4970098	80	1529178.9434367	1529178.9438838	40	1529182.2879745	1529182.2884076	100	imm	1529185.7348863	1.0	1529187.4939605	1529186.2540377	1529186.2545446	120.0
52.119140625	0.0	80	106740	3	80	50	0	1	1529189.9478823	1529189.948403	80	1529193.189741	1529193.190243	40	1529196.2747513	1529196.2756133	100	del	1529197.7891601	nan	nan	nan	nan	nan
55.36083984375	0.0	40	113379	3	80	50	0	1	1529189.9478823	1529189.948403	80	1529193.189741	1529193.190243	40	1529196.2747513	1529196.2756133	100	del	1529197.7891601	nan	nan	nan	nan	nan
58.44580078125	0.0	100	119697	3	80	50	0	1	1529189.9478823	1529189.948403	80	1529193.189741	1529193.190243	40	1529196.2747513	1529196.2756133	100	del	1529197.7891601	nan	nan	nan	nan	nan
62.5126953125	0.0	80	128026	4	83	160	0	1	1529200.3415839	1529200.3420481	80	1529203.7063195	1529203.7068356	40	1529206.8736006	1529206.8741271	100	imm	1529209.3416322	nan	nan	nan	nan	nan
65.87744140625	0.0	40	134917	4	83	160	0	1	1529200.3415839	1529200.3420481	80	1529203.7063195	1529203.7068356	40	1529206.8736006	1529206.8741271	100	imm	1529209.3416322	nan	nan	nan	nan	nan
69.04443359375	0.0	100	141403	4	83	160	0	1	1529200.3415839	1529200.3420481	80	1529203.7063195	1529203.7068356	40	1529206.8736006	1529206.8741271	100	imm	1529209.3416322	nan	nan	nan	nan	nan
74.365234375	0.0	80	152300	5	60	15	1	1	1529212.1943338	1529212.1947833	80	1529215.5279072	1529215.5283317	40	1529218.8076929	1529218.8082463	100	imm	1529220.3094446	3.0	1529223.358749	1529220.8221038	1529220.8227047	120.0
77.69873046875	0.0	40	159127	5	60	15	1	1	1529212.1943338	1529212.1947833	80	1529215.5279072	1529215.5283317	40	1529218.8076929	1529218.8082463	100	imm	1529220.3094446	3.0	1529223.358749	1529220.8221038	1529220.8227047	120.0
80.978515625	0.0	100	165844	5	60	15	1	1	1529212.1943338	1529212.1947833	80	1529215.5279072	1529215.5283317	40	1529218.8076929	1529218.8082463	100	imm	1529220.3094446	3.0	1529223.358749	1529220.8221038	1529220.8227047	120.0
82.99267578125	0.0	120	169969	5	60	15	1	1	1529212.1943338	1529212.1947833	80	1529215.5279072	1529215.5283317	40	1529218.8076929	1529218.8082463	100	imm	1529220.3094446	3.0	1529223.358749	1529220.8221038	1529220.8227047	120.0
87.90234375	0.0	80	180024	6	93	600	1	1	1529225.7318419	1529225.7323212	80	1529228.9920438	1529228.9925015	40	1529232.2491483	1529232.2496319	100	imm	1529235.3336714	1.0	1529237.549326	1529235.8465493	1529235.8469962	120.0
91.162109375	0.0	40	186700	6	93	600	1	1	1529225.7318419	1529225.7323212	80	1529228.9920438	1529228.9925015	40	1529232.2491483	1529232.2496319	100	imm	1529235.3336714	1.0	1529237.549326	1529235.8465493	1529235.8469962	120.0
94.41943359375	0.0	100	193371	6	93	600	1	1	1529225.7318419	1529225.7323212	80	1529228.9920438	1529228.9925015	40	1529232.2491483	1529232.2496319	100	imm	1529235.3336714	1.0	1529237.549326	1529235.8465493	1529235.8469962	120.0
98.0166015625	0.0	120	200738	6	93	600	1	1	1529225.7318419	1529225.7323212	80	1529228.9920438	1529228.9925015	40	1529232.2491483	1529232.2496319	100	imm	1529235.3336714	1.0	1529237.549326	1529235.8465493	1529235.8469962	120.0
101.9833984375	0.0	80	208862	7	73	460	0	1	1529239.8134935	1529239.8139812	80	1529243.2894403	1529243.2899478	40	1529246.4970286	1529246.497611	100	imm	1529248.1100542	nan	nan	nan	nan	nan
105.45947265625	0.0	40	215981	7	73	460	0	1	1529239.8134935	1529239.8139812	80	1529243.2894403	1529243.2899478	40	1529246.4970286	1529246.497611	100	imm	1529248.1100542	nan	nan	nan	nan	nan
108.6669921875	0.0	100	222550	7	73	460	0	1	1529239.8134935	1529239.8139812	80	1529243.2894403	1529243.2899478	40	1529246.4970286	1529246.497611	100	imm	1529248.1100542	nan	nan	nan	nan	nan
112.8564453125	0.0	80	231130	8	67	160	0	0	1529250.6868317	1529250.6873442	80	1529253.8147712	1529253.8152749	40	1529257.1710216	1529257.1715154	100	imm	1529258.0220671	nan	nan	nan	nan	nan
115.984375	0.0	40	237536	8	67	160	0	0	1529250.6868317	1529250.6873442	80	1529253.8147712	1529253.8152749	40	1529257.1710216	1529257.1715154	100	imm	1529258.0220671	nan	nan	nan	nan	nan
119.34033203125	0.0	100	244409	8	67	160	0	0	1529250.6868317	1529250.6873442	80	1529253.8147712	1529253.8152749	40	1529257.1710216	1529257.1715154	100	imm	1529258.0220671	nan	nan	nan	nan	nan
123.12939453125	0.0	80	252169	9	73	210	1	1	1529260.9601186	1529260.9606263	80	1529264.4536822	1529264.4541616	40	1529267.5746303	1529267.5751706	100	imm	1529274.0541494	3.0	1529276.5980499	1529274.563988	1529274.5642692	120.0
126.623046875	0.0	40	259324	9	73	210	1	1	1529260.9601186	1529260.9606263	80	1529264.4536822	1529264.4541616	40	1529267.5746303	1529267.5751706	100	imm	1529274.0541494	3.0	1529276.5980499	1529274.563988	1529274.5642692	120.0
129.74365234375	0.0	100	265715	9	73	210	1	1	1529260.9601186	1529260.9606263	80	1529264.4536822	1529264.4541616	40	1529267.5746303	1529267.5751706	100	imm	1529274.0541494	3.0	1529276.5980499	1529274.563988	1529274.5642692	120.0
136.73291015625	0.0	120	280029	9	73	210	1	1	1529260.9601186	1529260.9606263	80	1529264.4536822	1529264.4541616	40	1529267.5746303	1529267.5751706	100	imm	1529274.0541494	3.0	1529276.5980499	1529274.563988	1529274.5642692	120.0
141.1630859375	0.0	80	289102	10	57	790	0	1	1529278.9942789	1529278.9947872	80	1529282.2938831	1529282.2944053	40	1529285.5085165	1529285.5089783	100	imm	1529286.8544127	nan	nan	nan	nan	nan
144.462890625	0.0	40	295860	10	57	790	0	1	1529278.9942789	1529278.9947872	80	1529282.2938831	1529282.2944053	40	1529285.5085165	1529285.5089783	100	imm	1529286.8544127	nan	nan	nan	nan	nan
147.67724609375	0.0	100	302443	10	57	790	0	1	1529278.9942789	1529278.9947872	80	1529282.2938831	1529282.2944053	40	1529285.5085165	1529285.5089783	100	imm	1529286.8544127	nan	nan	nan	nan	nan
151.79052734375	0.0	80	310867	11	77	600	1	1	1529289.6214725	1529289.6216268	80	1529292.8759924	1529292.8763949	40	1529296.2155489	1529296.2160165	100	imm	1529297.1973909	1.0	1529299.0934861	1529297.7103918	1529297.7109006	120.0
155.04443359375	0.0	40	317531	11	77	600	1	1	1529289.6214725	1529289.6216268	80	1529292.8759924	1529292.8763949	40	1529296.2155489	1529296.2160165	100	imm	1529297.1973909	1.0	1529299.0934861	1529297.7103918	1529297.7109006	120.0
158.3837890625	0.0	100	324370	11	77	600	1	1	1529289.6214725	1529289.6216268	80	1529292.8759924	1529292.8763949	40	1529296.2155489	1529296.2160165	100	imm	1529297.1973909	1.0	1529299.0934861	1529297.7103918	1529297.7109006	120.0
159.87890625	0.0	120	327432	11	77	600	1	1	1529289.6214725	1529289.6216268	80	1529292.8759924	1529292.8763949	40	1529296.2155489	1529296.2160165	100	imm	1529297.1973909	1.0	1529299.0934861	1529297.7103918	1529297.7109006	120.0
163.6494140625	0.0	80	335154	12	73	600	1	0	1529301.4812245	1529301.4817478	80	1529304.6397116	1529304.6401734	40	1529307.6983038	1529307.6987844	100	del	1529309.4061931	1.0	1529311.2540885	1529309.9201443	1529309.920648	120.0
166.80810546875	0.0	40	341623	12	73	600	1	0	1529301.4812245	1529301.4817478	80	1529304.6397116	1529304.6401734	40	1529307.6983038	1529307.6987844	100	del	1529309.4061931	1.0	1529311.2540885	1529309.9201443	1529309.920648	120.0
169.8662109375	0.0	100	347886	12	73	600	1	0	1529301.4812245	1529301.4817478	80	1529304.6397116	1529304.6401734	40	1529307.6983038	1529307.6987844	100	del	1529309.4061931	1.0	1529311.2540885	1529309.9201443	1529309.920648	120.0
172.08837890625	0.0	120	352437	12	73	600	1	0	1529301.4812245	1529301.4817478	80	1529304.6397116	1529304.6401734	40	1529307.6983038	1529307.6987844	100	del	1529309.4061931	1.0	1529311.2540885	1529309.9201443	1529309.920648	120.0
175.8515625	0.0	80	360144	13	87	460	0	1	1529313.6835479	1529313.6840085	80	1529316.8859081	1529316.8864048	40	1529320.2883738	1529320.2888362	100	imm	1529322.4216612	nan	nan	nan	nan	nan
179.0537109375	0.0	40	366702	13	87	460	0	1	1529313.6835479	1529313.6840085	80	1529316.8859081	1529316.8864048	40	1529320.2883738	1529320.2888362	100	imm	1529322.4216612	nan	nan	nan	nan	nan
182.4560546875	0.0	100	373670	13	87	460	0	1	1529313.6835479	1529313.6840085	80	1529316.8859081	1529316.8864048	40	1529320.2883738	1529320.2888362	100	imm	1529322.4216612	nan	nan	nan	nan	nan
187.1982421875	0.0	80	383382	14	97	600	1	1	1529325.0304494	1529325.0309814	80	1529328.0931153	1529328.0939212	40	1529331.5589885	1529331.5595828	100	del	1529333.7350094	1.0	1529336.0054459	1529334.2482678	1529334.2487613	120.0
190.2607421875	0.0	40	389654	14	97	600	1	1	1529325.0304494	1529325.0309814	80	1529328.0931153	1529328.0939212	40	1529331.5589885	1529331.5595828	100	del	1529333.7350094	1.0	1529336.0054459	1529334.2482678	1529334.2487613	120.0
193.7265625	0.0	100	396752	14	97	600	1	1	1529325.0304494	1529325.0309814	80	1529328.0931153	1529328.0939212	40	1529331.5589885	1529331.5595828	100	del	1529333.7350094	1.0	1529336.0054459	1529334.2482678	1529334.2487613	120.0
196.41552734375	0.0	120	402259	14	97	600	1	1	1529325.0304494	1529325.0309814	80	1529328.0931153	1529328.0939212	40	1529331.5589885	1529331.5595828	100	del	1529333.7350094	1.0	1529336.0054459	1529334.2482678	1529334.2487613	120.0
200.62744140625	0.0	80	410885	15	53	460	0	0	1529338.4601293	1529338.4607029	80	1529341.9677108	1529341.9682416	40	1529345.4145269	1529345.4150418	100	imm	1529348.1742725	nan	nan	nan	nan	nan
204.134765625	0.0	40	418068	15	53	460	0	0	1529338.4601293	1529338.4607029	80	1529341.9677108	1529341.9682416	40	1529345.4145269	1529345.4150418	100	imm	1529348.1742725	nan	nan	nan	nan	nan
207.58154296875	0.0	100	425127	15	53	460	0	0	1529338.4601293	1529338.4607029	80	1529341.9677108	1529341.9682416	40	1529345.4145269	1529345.4150418	100	imm	1529348.1742725	nan	nan	nan	nan	nan
212.876953125	0.0	80	435972	16	73	790	0	0	1529350.7101412	1529350.7105596	80	1529353.991806	1529353.9923236	40	1529357.5037251	1529357.5042387	100	imm	1529358.6464626	nan	nan	nan	nan	nan
216.15869140625	0.0	40	442693	16	73	790	0	0	1529350.7101412	1529350.7105596	80	1529353.991806	1529353.9923236	40	1529357.5037251	1529357.5042387	100	imm	1529358.6464626	nan	nan	nan	nan	nan
219.67041015625	0.0	100	449885	16	73	790	0	0	1529350.7101412	1529350.7105596	80	1529353.991806	1529353.9923236	40	1529357.5037251	1529357.5042387	100	imm	1529358.6464626	nan	nan	nan	nan	nan
223.5859375	0.0	80	457904	17	80	15	1	1	1529361.4191158	1529361.4196284	80	1529364.8634383	1529364.8638969	40	1529367.9119386	1529367.9124938	100	del	1529369.1099913	3.0	1529370.4055394	1529369.6234016	1529369.6239335	120.0
227.02978515625	0.0	40	464957	17	80	15	1	1	1529361.4191158	1529361.4196284	80	1529364.8634383	1529364.8638969	40	1529367.9119386	1529367.9124938	100	del	1529369.1099913	3.0	1529370.4055394	1529369.6234016	1529369.6239335	120.0
230.07861328125	0.0	100	471201	17	80	15	1	1	1529361.4191158	1529361.4196284	80	1529364.8634383	1529364.8638969	40	1529367.9119386	1529367.9124938	100	del	1529369.1099913	3.0	1529370.4055394	1529369.6234016	1529369.6239335	120.0
231.7900390625	0.0	120	474706	17	80	15	1	1	1529361.4191158	1529361.4196284	80	1529364.8634383	1529364.8638969	40	1529367.9119386	1529367.9124938	100	del	1529369.1099913	3.0	1529370.4055394	1529369.6234016	1529369.6239335	120.0
235.08154296875	0.0	80	481447	18	77	280	0	1	1529372.9150203	1529372.9155239	80	1529376.384034	1529376.384601	40	1529379.6798833	1529379.6806334	100	imm	1529381.9654031	nan	nan	nan	nan	nan
238.55029296875	0.0	40	488551	18	77	280	0	1	1529372.9150203	1529372.9155239	80	1529376.384034	1529376.384601	40	1529379.6798833	1529379.6806334	100	imm	1529381.9654031	nan	nan	nan	nan	nan
241.845703125	0.0	100	495300	18	77	280	0	1	1529372.9150203	1529372.9155239	80	1529376.384034	1529376.384601	40	1529379.6798833	1529379.6806334	100	imm	1529381.9654031	nan	nan	nan	nan	nan
246.86572265625	0.0	80	505581	19	87	600	1	0	1529384.7000164	1529384.7005042	80	1529387.8765808	1529387.8770535	40	1529391.2499449	1529391.2504354	100	imm	1529397.3108006	1.0	1529398.8212677	1529397.8237309	1529397.8241504	120.0
250.04248046875	0.0	40	512087	19	87	600	1	0	1529384.7000164	1529384.7005042	80	1529387.8765808	1529387.8770535	40	1529391.2499449	1529391.2504354	100	imm	1529397.3108006	1.0	1529398.8212677	1529397.8237309	1529397.8241504	120.0
253.41552734375	0.0	100	518995	19	87	600	1	0	1529384.7000164	1529384.7005042	80	1529387.8765808	1529387.8770535	40	1529391.2499449	1529391.2504354	100	imm	1529397.3108006	1.0	1529398.8212677	1529397.8237309	1529397.8241504	120.0
259.9892578125	0.0	120	532458	19	87	600	1	0	1529384.7000164	1529384.7005042	80	1529387.8765808	1529387.8770535	40	1529391.2499449	1529391.2504354	100	imm	1529397.3108006	1.0	1529398.8212677	1529397.8237309	1529397.8241504	120.0
263.00732421875	0.0	80	538639	20	53	15	1	1	1529400.8419467	1529400.8422254	80	1529404.0365716	1529404.0370636	40	1529407.5122389	1529407.5127558	100	del	1529409.1897709	3.0	1529411.1900995	1529409.7024687	1529409.7029162	120.0
266.2021484375	0.0	40	545182	20	53	15	1	1	1529400.8419467	1529400.8422254	80	1529404.0365716	1529404.0370636	40	1529407.5122389	1529407.5127558	100	del	1529409.1897709	3.0	1529411.1900995	1529409.7024687	1529409.7029162	120.0
269.677734375	0.0	100	552300	20	53	15	1	1	1529400.8419467	1529400.8422254	80	1529404.0365716	1529404.0370636	40	1529407.5122389	1529407.5127558	100	del	1529409.1897709	3.0	1529411.1900995	1529409.7024687	1529409.7029162	120.0
271.86767578125	0.0	120	556785	20	53	15	1	1	1529400.8419467	1529400.8422254	80	1529404.0365716	1529404.0370636	40	1529407.5122389	1529407.5127558	100	del	1529409.1897709	3.0	1529411.1900995	1529409.7024687	1529409.7029162	120.0
281.33984375	0.0	80	576184	21	100	280	0	0	1529419.1747363	1529419.1752305	80	1529422.4194725	1529422.4199429	40	1529425.6809514	1529425.6815024	100	del	1529426.9099406	nan	nan	nan	nan	nan
284.58447265625	0.0	40	582829	21	100	280	0	0	1529419.1747363	1529419.1752305	80	1529422.4194725	1529422.4199429	40	1529425.6809514	1529425.6815024	100	del	1529426.9099406	nan	nan	nan	nan	nan
287.845703125	0.0	100	589508	21	100	280	0	0	1529419.1747363	1529419.1752305	80	1529422.4194725	1529422.4199429	40	1529425.6809514	1529425.6815024	100	del	1529426.9099406	nan	nan	nan	nan	nan
291.748046875	0.0	80	597500	22	80	600	1	0	1529429.5833768	1529429.5838977	80	1529433.0667007	1529433.0672016	40	1529436.5712913	1529436.5718176	100	del	1529439.0223158	1.0	1529441.0697989	1529439.5351722	1529439.5356579	120.0
295.2314453125	0.0	40	604634	22	80	600	1	0	1529429.5833768	1529429.5838977	80	1529433.0667007	1529433.0672016	40	1529436.5712913	1529436.5718176	100	del	1529439.0223158	1.0	1529441.0697989	1529439.5351722	1529439.5356579	120.0
298.73583984375	0.0	100	611811	22	80	600	1	0	1529429.5833768	1529429.5838977	80	1529433.0667007	1529433.0672016	40	1529436.5712913	1529436.5718176	100	del	1529439.0223158	1.0	1529441.0697989	1529439.5351722	1529439.5356579	120.0
301.69970703125	0.0	120	617881	22	80	600	1	0	1529429.5833768	1529429.5838977	80	1529433.0667007	1529433.0672016	40	1529436.5712913	1529436.5718176	100	del	1529439.0223158	1.0	1529441.0697989	1529439.5351722	1529439.5356579	120.0
305.50634765625	0.0	80	625677	23	63	460	0	1	1529443.3421268	1529443.3426249	80	1529446.8460325	1529446.8465117	40	1529450.0872968	1529450.0878066	100	imm	1529451.5013199	nan	nan	nan	nan	nan
309.01025390625	0.0	40	632853	23	63	460	0	1	1529443.3421268	1529443.3426249	80	1529446.8460325	1529446.8465117	40	1529450.0872968	1529450.0878066	100	imm	1529451.5013199	nan	nan	nan	nan	nan
312.25146484375	0.0	100	639491	23	63	460	0	1	1529443.3421268	1529443.3426249	80	1529446.8460325	1529446.8465117	40	1529450.0872968	1529450.0878066	100	imm	1529451.5013199	nan	nan	nan	nan	nan
316.396484375	0.0	80	647980	24	67	350	1	1	1529454.2325694	1529454.2330526	80	1529457.3469949	1529457.3474909	40	1529460.4565319	1529460.4570537	100	imm	1529465.0301574	2.0	1529467.1502735	1529465.5439471	1529465.5445549	120.0
319.5107421875	0.0	40	654358	24	67	350	1	1	1529454.2325694	1529454.2330526	80	1529457.3469949	1529457.3474909	40	1529460.4565319	1529460.4570537	100	imm	1529465.0301574	2.0	1529467.1502735	1529465.5439471	1529465.5445549	120.0
322.62060546875	0.0	100	660727	24	67	350	1	1	1529454.2325694	1529454.2330526	80	1529457.3469949	1529457.3474909	40	1529460.4565319	1529460.4570537	100	imm	1529465.0301574	2.0	1529467.1502735	1529465.5439471	1529465.5445549	120.0
327.7080078125	0.0	120	671146	24	67	350	1	1	1529454.2325694	1529454.2330526	80	1529457.3469949	1529457.3474909	40	1529460.4565319	1529460.4570537	100	imm	1529465.0301574	2.0	1529467.1502735	1529465.5439471	1529465.5445549	120.0
331.74560546875	0.0	80	679415	25	87	280	0	1	1529469.582104	1529469.5826147	80	1529472.9529422	1529472.9534133	40	1529476.2316669	1529476.2321933	100	del	1529479.2548921	nan	nan	nan	nan	nan
335.1162109375	0.0	40	686318	25	87	280	0	1	1529469.582104	1529469.5826147	80	1529472.9529422	1529472.9534133	40	1529476.2316669	1529476.2321933	100	del	1529479.2548921	nan	nan	nan	nan	nan
338.39501953125	0.0	100	693033	25	87	280	0	1	1529469.582104	1529469.5826147	80	1529472.9529422	1529472.9534133	40	1529476.2316669	1529476.2321933	100	del	1529479.2548921	nan	nan	nan	nan	nan
344.3505859375	0.0	80	705230	26	93	790	0	0	1529482.1875655	1529482.188056	80	1529485.4508484	1529485.4513743	40	1529488.7398128	1529488.740303	100	imm	1529490.2310723	nan	nan	nan	nan	nan
347.6142578125	0.0	40	711914	26	93	790	0	0	1529482.1875655	1529482.188056	80	1529485.4508484	1529485.4513743	40	1529488.7398128	1529488.740303	100	imm	1529490.2310723	nan	nan	nan	nan	nan
350.90283203125	0.0	100	718649	26	93	790	0	0	1529482.1875655	1529482.188056	80	1529485.4508484	1529485.4513743	40	1529488.7398128	1529488.740303	100	imm	1529490.2310723	nan	nan	nan	nan	nan
355.01806640625	0.0	80	727077	27	67	280	0	1	1529492.8548904	1529492.8554	80	1529496.1570128	1529496.1575772	40	1529499.2423666	1529499.2428916	100	imm	1529502.0613762	nan	nan	nan	nan	nan
358.31982421875	0.0	40	733839	27	67	280	0	1	1529492.8548904	1529492.8554	80	1529496.1570128	1529496.1575772	40	1529499.2423666	1529499.2428916	100	imm	1529502.0613762	nan	nan	nan	nan	nan
361.4052734375	0.0	100	740158	27	67	280	0	1	1529492.8548904	1529492.8554	80	1529496.1570128	1529496.1575772	40	1529499.2423666	1529499.2428916	100	imm	1529502.0613762	nan	nan	nan	nan	nan
366.76806640625	0.0	80	751141	28	90	15	1	1	1529504.6052567	1529504.6057568	80	1529507.9547135	1529507.9552149	40	1529511.2722353	1529511.2729074	100	del	1529512.0935257	3.0	1529513.7741989	1529512.6073713	1529512.6078678	120.0
370.1171875	0.0	40	758000	28	90	15	1	1	1529504.6052567	1529504.6057568	80	1529507.9547135	1529507.9552149	40	1529511.2722353	1529511.2729074	100	del	1529512.0935257	3.0	1529513.7741989	1529512.6073713	1529512.6078678	120.0
373.43505859375	0.0	100	764795	28	90	15	1	1	1529504.6052567	1529504.6057568	80	1529507.9547135	1529507.9552149	40	1529511.2722353	1529511.2729074	100	del	1529512.0935257	3.0	1529513.7741989	1529512.6073713	1529512.6078678	120.0
374.77001953125	0.0	120	767529	28	90	15	1	1	1529504.6052567	1529504.6057568	80	1529507.9547135	1529507.9552149	40	1529511.2722353	1529511.2729074	100	del	1529512.0935257	3.0	1529513.7741989	1529512.6073713	1529512.6078678	120.0
378.06298828125	0.0	80	774273	29	100	50	0	0	1529515.9007588	1529515.9011686	80	1529519.1115367	1529519.1120284	40	1529522.4400573	1529522.4405502	100	del	1529523.3819303	nan	nan	nan	nan	nan
381.27392578125	0.0	40	780849	29	100	50	0	0	1529515.9007588	1529515.9011686	80	1529519.1115367	1529519.1120284	40	1529522.4400573	1529522.4405502	100	del	1529523.3819303	nan	nan	nan	nan	nan
384.60205078125	0.0	100	787665	29	100	50	0	0	1529515.9007588	1529515.9011686	80	1529519.1115367	1529519.1120284	40	1529522.4400573	1529522.4405502	100	del	1529523.3819303	nan	nan	nan	nan	nan
388.33935546875	0.0	80	795319	30	53	50	0	0	1529526.1771309	1529526.1775713	80	1529529.2482258	1529529.2486575	40	1529532.3465607	1529532.3470259	100	imm	1529542.2776324	nan	nan	nan	nan	nan
391.41015625	0.0	40	801608	30	53	50	0	0	1529526.1771309	1529526.1775713	80	1529529.2482258	1529529.2486575	40	1529532.3465607	1529532.3470259	100	imm	1529542.2776324	nan	nan	nan	nan	nan
394.50830078125	0.0	100	807953	30	53	50	0	0	1529526.1771309	1529526.1775713	80	1529529.2482258	1529529.2486575	40	1529532.3465607	1529532.3470259	100	imm	1529542.2776324	nan	nan	nan	nan	nan
406.95751953125	0.0	80	833449	31	50	120	1	0	1529544.7961183	1529544.7966273	80	1529548.0119883	1529548.012444	40	1529551.2694246	1529551.269914	100	imm	1529553.7334467	3.0	1529554.7494566	1529554.2465546	1529554.2469975	120.0
410.17333984375	0.0	40	840035	31	50	120	1	0	1529544.7961183	1529544.7966273	80	1529548.0119883	1529548.012444	40	1529551.2694246	1529551.269914	100	imm	1529553.7334467	3.0	1529554.7494566	1529554.2465546	1529554.2469975	120.0
413.4306640625	0.0	100	846706	31	50	120	1	0	1529544.7961183	1529544.7966273	80	1529548.0119883	1529548.012444	40	1529551.2694246	1529551.269914	100	imm	1529553.7334467	3.0	1529554.7494566	1529554.2465546	1529554.2469975	120.0
416.40771484375	0.0	120	852803	31	50	120	1	0	1529544.7961183	1529544.7966273	80	1529548.0119883	1529548.012444	40	1529551.2694246	1529551.269914	100	imm	1529553.7334467	3.0	1529554.7494566	1529554.2465546	1529554.2469975	120.0
419.0068359375	0.0	80	858126	32	93	50	0	0	1529556.8457901	1529556.8462881	80	1529560.1870807	1529560.1875081	40	1529563.2095103	1529563.2099663	100	del	1529565.7662665	nan	nan	nan	nan	nan
422.34814453125	0.0	40	864969	32	93	50	0	0	1529556.8457901	1529556.8462881	80	1529560.1870807	1529560.1875081	40	1529563.2095103	1529563.2099663	100	del	1529565.7662665	nan	nan	nan	nan	nan
425.37060546875	0.0	100	871159	32	93	50	0	0	1529556.8457901	1529556.8462881	80	1529560.1870807	1529560.1875081	40	1529563.2095103	1529563.2099663	100	del	1529565.7662665	nan	nan	nan	nan	nan
430.50439453125	0.0	80	881673	33	97	210	1	1	1529568.3435853	1529568.344034	80	1529571.8272239	1529571.8276907	40	1529575.3283164	1529575.3288493	100	del	1529576.5513644	2.0	1529579.0142399	1529577.0643154	1529577.0648448	120.0
433.98779296875	0.0	40	888807	33	97	210	1	1	1529568.3435853	1529568.344034	80	1529571.8272239	1529571.8276907	40	1529575.3283164	1529575.3288493	100	del	1529576.5513644	2.0	1529579.0142399	1529577.0643154	1529577.0648448	120.0
437.48876953125	0.0	100	895977	33	97	210	1	1	1529568.3435853	1529568.344034	80	1529571.8272239	1529571.8276907	40	1529575.3283164	1529575.3288493	100	del	1529576.5513644	2.0	1529579.0142399	1529577.0643154	1529577.0648448	120.0
439.22509765625	0.0	120	899533	33	97	210	1	1	1529568.3435853	1529568.344034	80	1529571.8272239	1529571.8276907	40	1529575.3283164	1529575.3288493	100	del	1529576.5513644	2.0	1529579.0142399	1529577.0643154	1529577.0648448	120.0
443.20556640625	0.0	80	907685	34	80	160	0	1	1529581.0449852	1529581.0459117	80	1529584.3009127	1529584.3013993	40	1529587.7458055	1529587.7463494	100	na	1529589.5821943	nan	nan	nan	nan	nan
446.46142578125	0.0	40	914353	34	80	160	0	1	1529581.0449852	1529581.0459117	80	1529584.3009127	1529584.3013993	40	1529587.7458055	1529587.7463494	100	na	1529589.5821943	nan	nan	nan	nan	nan
449.90625	0.0	100	921408	34	80	160	0	1	1529581.0449852	1529581.0459117	80	1529584.3009127	1529584.3013993	40	1529587.7458055	1529587.7463494	100	na	1529589.5821943	nan	nan	nan	nan	nan
454.38232421875	0.0	80	930575	35	70	15	1	0	1529592.2222069	1529592.2226802	80	1529595.6474952	1529595.647939	40	1529599.0677096	1529599.0681707	100	del	1529600.2060891	2.0	1529603.925681	1529600.7199754	1529600.7205095	120.0
457.8076171875	0.0	40	937590	35	70	15	1	0	1529592.2222069	1529592.2226802	80	1529595.6474952	1529595.647939	40	1529599.0677096	1529599.0681707	100	del	1529600.2060891	2.0	1529603.925681	1529600.7199754	1529600.7205095	120.0
461.2275390625	0.0	100	944594	35	70	15	1	0	1529592.2222069	1529592.2226802	80	1529595.6474952	1529595.647939	40	1529599.0677096	1529599.0681707	100	del	1529600.2060891	2.0	1529603.925681	1529600.7199754	1529600.7205095	120.0
462.8798828125	0.0	120	947978	35	70	15	1	0	1529592.2222069	1529592.2226802	80	1529595.6474952	1529595.647939	40	1529599.0677096	1529599.0681707	100	del	1529600.2060891	2.0	1529603.925681	1529600.7199754	1529600.7205095	120.0
468.416015625	0.0	80	959316	36	53	350	1	1	1529606.2563749	1529606.2568618	80	1529609.2652514	1529609.2656819	40	1529612.4687088	1529612.4692142	100	imm	1529613.6145	2.0	1529620.0778161	1529614.1289165	1529614.1294282	120.0
471.4248046875	0.0	40	965478	36	53	350	1	1	1529606.2563749	1529606.2568618	80	1529609.2652514	1529609.2656819	40	1529612.4687088	1529612.4692142	100	imm	1529613.6145	2.0	1529620.0778161	1529614.1289165	1529614.1294282	120.0
474.62841796875	0.0	100	972039	36	53	350	1	1	1529606.2563749	1529606.2568618	80	1529609.2652514	1529609.2656819	40	1529612.4687088	1529612.4692142	100	imm	1529613.6145	2.0	1529620.0778161	1529614.1289165	1529614.1294282	120.0
476.28857421875	0.0	120	975439	36	53	350	1	1	1529606.2563749	1529606.2568618	80	1529609.2652514	1529609.2656819	40	1529612.4687088	1529612.4692142	100	imm	1529613.6145	2.0	1529620.0778161	1529614.1289165	1529614.1294282	120.0
484.705078125	0.0	80	992676	37	67	790	0	1	1529622.5454742	1529622.5459519	80	1529625.8940932	1529625.8945986	40	1529629.0971612	1529629.0976656	100	imm	1529631.582245	nan	nan	nan	nan	nan
488.05322265625	0.0	40	999533	37	67	790	0	1	1529622.5454742	1529622.5459519	80	1529625.8940932	1529625.8945986	40	1529629.0971612	1529629.0976656	100	imm	1529631.582245	nan	nan	nan	nan	nan
491.25634765625	0.0	100	1006093	37	67	790	0	1	1529622.5454742	1529622.5459519	80	1529625.8940932	1529625.8945986	40	1529629.0971612	1529629.0976656	100	imm	1529631.582245	nan	nan	nan	nan	nan
496.57568359375	0.0	80	1016987	38	97	350	1	0	1529634.4168304	1529634.4173422	80	1529637.5460408	1529637.5464774	40	1529640.8452654	1529640.8458166	100	del	1529642.1910226	1.0	1529643.8540509	1529642.7039703	1529642.7045225	120.0
499.705078125	0.0	40	1023396	38	97	350	1	0	1529634.4168304	1529634.4173422	80	1529637.5460408	1529637.5464774	40	1529640.8452654	1529640.8458166	100	del	1529642.1910226	1.0	1529643.8540509	1529642.7039703	1529642.7045225	120.0
503.00390625	0.0	100	1030152	38	97	350	1	0	1529634.4168304	1529634.4173422	80	1529637.5460408	1529637.5464774	40	1529640.8452654	1529640.8458166	100	del	1529642.1910226	1.0	1529643.8540509	1529642.7039703	1529642.7045225	120.0
504.86279296875	0.0	120	1033959	38	97	350	1	0	1529634.4168304	1529634.4173422	80	1529637.5460408	1529637.5464774	40	1529640.8452654	1529640.8458166	100	del	1529642.1910226	1.0	1529643.8540509	1529642.7039703	1529642.7045225	120.0
508.5205078125	0.0	80	1041450	39	87	210	1	0	1529646.3616509	1529646.3621329	80	1529649.7922263	1529649.7925216	40	1529652.9472937	1529652.9478365	100	del	1529653.8460458	1.0	1529656.4782979	1529654.356816	1529654.3572051	120.0
511.95068359375	0.0	40	1048475	39	87	210	1	0	1529646.3616509	1529646.3621329	80	1529649.7922263	1529649.7925216	40	1529652.9472937	1529652.9478365	100	del	1529653.8460458	1.0	1529656.4782979	1529654.356816	1529654.3572051	120.0
515.10595703125	0.0	100	1054937	39	87	210	1	0	1529646.3616509	1529646.3621329	80	1529649.7922263	1529649.7925216	40	1529652.9472937	1529652.9478365	100	del	1529653.8460458	1.0	1529656.4782979	1529654.356816	1529654.3572051	120.0
516.51513671875	0.0	120	1057823	39	87	210	1	0	1529646.3616509	1529646.3621329	80	1529649.7922263	1529649.7925216	40	1529652.9472937	1529652.9478365	100	del	1529653.8460458	1.0	1529656.4782979	1529654.356816	1529654.3572051	120.0
520.9931640625	0.0	80	1066994	40	70	460	0	0	1529658.8345796	1529658.8350807	80	1529662.0215848	1529662.0220569	40	1529665.5284329	1529665.528913	100	imm	1529666.262334	nan	nan	nan	nan	nan
524.1796875	0.0	40	1073520	40	70	460	0	0	1529658.8345796	1529658.8350807	80	1529662.0215848	1529662.0220569	40	1529665.5284329	1529665.528913	100	imm	1529666.262334	nan	nan	nan	nan	nan
527.6865234375	0.0	100	1080702	40	70	460	0	0	1529658.8345796	1529658.8350807	80	1529662.0215848	1529662.0220569	40	1529665.5284329	1529665.528913	100	imm	1529666.262334	nan	nan	nan	nan	nan
539.17138671875	0.0	80	1104223	41	70	120	1	0	1529677.0137025	1529677.0141367	80	1529680.1464901	1529680.1469617	40	1529683.5652284	1529683.5657384	100	imm	1529685.3178835	2.0	1529688.7101799	1529685.8309656	1529685.8314607	120.0
542.30419921875	0.0	40	1110639	41	70	120	1	0	1529677.0137025	1529677.0141367	80	1529680.1464901	1529680.1469617	40	1529683.5652284	1529683.5657384	100	imm	1529685.3178835	2.0	1529688.7101799	1529685.8309656	1529685.8314607	120.0
545.72314453125	0.0	100	1117641	41	70	120	1	0	1529677.0137025	1529677.0141367	80	1529680.1464901	1529680.1469617	40	1529683.5652284	1529683.5657384	100	imm	1529685.3178835	2.0	1529688.7101799	1529685.8309656	1529685.8314607	120.0
547.98876953125	0.0	120	1122281	41	70	120	1	0	1529677.0137025	1529677.0141367	80	1529680.1464901	1529680.1469617	40	1529683.5652284	1529683.5657384	100	imm	1529685.3178835	2.0	1529688.7101799	1529685.8309656	1529685.8314607	120.0
552.9248046875	0.0	80	1132390	42	53	120	1	1	1529690.767294	1529690.7677599	80	1529694.0405349	1529694.0410188	40	1529697.454343	1529697.4548555	100	imm	1529698.1898413	1.0	1529703.0141226	1529698.7031601	1529698.7036933	120.0
556.19775390625	0.0	40	1139093	42	53	120	1	1	1529690.767294	1529690.7677599	80	1529694.0405349	1529694.0410188	40	1529697.454343	1529697.4548555	100	imm	1529698.1898413	1.0	1529703.0141226	1529698.7031601	1529698.7036933	120.0
559.61181640625	0.0	100	1146085	42	53	120	1	1	1529690.767294	1529690.7677599	80	1529694.0405349	1529694.0410188	40	1529697.454343	1529697.4548555	100	imm	1529698.1898413	1.0	1529703.0141226	1529698.7031601	1529698.7036933	120.0
560.8603515625	0.0	120	1148642	42	53	120	1	1	1529690.767294	1529690.7677599	80	1529694.0405349	1529694.0410188	40	1529697.454343	1529697.4548555	100	imm	1529698.1898413	1.0	1529703.0141226	1529698.7031601	1529698.7036933	120.0
567.556640625	0.0	80	1162356	43	83	50	0	1	1529705.3997307	1529705.4003133	80	1529708.4782086	1529708.4786647	40	1529711.7106108	1529711.7110997	100	del	1529714.1342904	nan	nan	nan	nan	nan
570.63525390625	0.0	40	1168661	43	83	50	0	1	1529705.3997307	1529705.4003133	80	1529708.4782086	1529708.4786647	40	1529711.7106108	1529711.7110997	100	del	1529714.1342904	nan	nan	nan	nan	nan
573.86767578125	0.0	100	1175281	43	83	50	0	1	1529705.3997307	1529705.4003133	80	1529708.4782086	1529708.4786647	40	1529711.7106108	1529711.7110997	100	del	1529714.1342904	nan	nan	nan	nan	nan
578.9833984375	0.0	80	1185758	44	90	350	1	1	1529716.8266935	1529716.8271882	80	1529720.0734322	1529720.0738985	40	1529723.3802267	1529723.3807609	100	imm	1529730.4464261	1.0	1529732.0618968	1529730.9582854	1529730.958727	120.0
582.22998046875	0.0	40	1192407	44	90	350	1	1	1529716.8266935	1529716.8271882	80	1529720.0734322	1529720.0738985	40	1529723.3802267	1529723.3807609	100	imm	1529730.4464261	1.0	1529732.0618968	1529730.9582854	1529730.958727	120.0
585.53662109375	0.0	100	1199179	44	90	350	1	1	1529716.8266935	1529716.8271882	80	1529720.0734322	1529720.0738985	40	1529723.3802267	1529723.3807609	100	imm	1529730.4464261	1.0	1529732.0618968	1529730.9582854	1529730.958727	120.0
593.11474609375	0.0	120	1214699	44	90	350	1	1	1529716.8266935	1529716.8271882	80	1529720.0734322	1529720.0738985	40	1529723.3802267	1529723.3807609	100	imm	1529730.4464261	1.0	1529732.0618968	1529730.9582854	1529730.958727	120.0
596.30712890625	0.0	80	1221237	45	73	50	0	1	1529734.1507871	1529734.1512543	80	1529737.6108875	1529737.6113535	40	1529740.9448543	1529740.9454153	100	del	1529744.4060021	nan	nan	nan	nan	nan
599.76708984375	0.0	40	1228323	45	73	50	0	1	1529734.1507871	1529734.1512543	80	1529737.6108875	1529737.6113535	40	1529740.9448543	1529740.9454153	100	del	1529744.4060021	nan	nan	nan	nan	nan
603.10107421875	0.0	100	1235151	45	73	50	0	1	1529734.1507871	1529734.1512543	80	1529737.6108875	1529737.6113535	40	1529740.9448543	1529740.9454153	100	del	1529744.4060021	nan	nan	nan	nan	nan
609.16162109375	0.0	80	1247563	46	80	280	0	1	1529747.0055212	1529747.0059831	80	1529750.2970791	1529750.2975656	40	1529753.7754909	1529753.7760054	100	imm	1529757.9179873	nan	nan	nan	nan	nan
612.453125	0.0	40	1254304	46	80	280	0	1	1529747.0055212	1529747.0059831	80	1529750.2970791	1529750.2975656	40	1529753.7754909	1529753.7760054	100	imm	1529757.9179873	nan	nan	nan	nan	nan
615.93115234375	0.0	100	1261427	46	80	280	0	1	1529747.0055212	1529747.0059831	80	1529750.2970791	1529750.2975656	40	1529753.7754909	1529753.7760054	100	imm	1529757.9179873	nan	nan	nan	nan	nan
622.986328125	0.0	80	1275876	47	87	50	0	0	1529760.8305938	1529760.8311618	80	1529764.1813553	1529764.1818635	40	1529767.428178	1529767.4286868	100	del	1529768.4136488	nan	nan	nan	nan	nan
626.3369140625	0.0	40	1282738	47	87	50	0	0	1529760.8305938	1529760.8311618	80	1529764.1813553	1529764.1818635	40	1529767.428178	1529767.4286868	100	del	1529768.4136488	nan	nan	nan	nan	nan
629.58349609375	0.0	100	1289387	47	87	50	0	0	1529760.8305938	1529760.8311618	80	1529764.1813553	1529764.1818635	40	1529767.428178	1529767.4286868	100	del	1529768.4136488	nan	nan	nan	nan	nan
633.2177734375	0.0	80	1296830	48	70	790	0	0	1529771.0624604	1529771.0628978	80	1529774.3548952	1529774.3554087	40	1529777.493202	1529777.4936659	100	imm	1529778.2058879	nan	nan	nan	nan	nan
636.51025390625	0.0	40	1303573	48	70	790	0	0	1529771.0624604	1529771.0628978	80	1529774.3548952	1529774.3554087	40	1529777.493202	1529777.4936659	100	imm	1529778.2058879	nan	nan	nan	nan	nan
639.6484375	0.0	100	1310000	48	70	790	0	0	1529771.0624604	1529771.0628978	80	1529774.3548952	1529774.3554087	40	1529777.493202	1529777.4936659	100	imm	1529778.2058879	nan	nan	nan	nan	nan
643.0390625	0.0	80	1316944	49	87	160	0	0	1529780.8840327	1529780.8845584	80	1529784.3470362	1529784.3475314	40	1529787.802408	1529787.802882	100	del	1529788.6781593	nan	nan	nan	nan	nan
646.501953125	0.0	40	1324036	49	87	160	0	0	1529780.8840327	1529780.8845584	80	1529784.3470362	1529784.3475314	40	1529787.802408	1529787.802882	100	del	1529788.6781593	nan	nan	nan	nan	nan
649.95703125	0.0	100	1331112	49	87	160	0	0	1529780.8840327	1529780.8845584	80	1529784.3470362	1529784.3475314	40	1529787.802408	1529787.802882	100	del	1529788.6781593	nan	nan	nan	nan	nan
653.74755859375	0.0	80	1338875	50	60	600	1	0	1529791.5930858	1529791.5935917	80	1529795.0634285	1529795.0638327	40	1529798.166242	1529798.1667362	100	imm	1529800.5426597	1.0	1529803.3818468	1529801.0549965	1529801.0555353	120.0
657.2177734375	0.0	40	1345982	50	60	600	1	0	1529791.5930858	1529791.5935917	80	1529795.0634285	1529795.0638327	40	1529798.166242	1529798.1667362	100	imm	1529800.5426597	1.0	1529803.3818468	1529801.0549965	1529801.0555353	120.0
660.32080078125	0.0	100	1352337	50	60	600	1	0	1529791.5930858	1529791.5935917	80	1529795.0634285	1529795.0638327	40	1529798.166242	1529798.1667362	100	imm	1529800.5426597	1.0	1529803.3818468	1529801.0549965	1529801.0555353	120.0
663.20947265625	0.0	120	1358253	50	60	600	1	0	1529791.5930858	1529791.5935917	80	1529795.0634285	1529795.0638327	40	1529798.166242	1529798.1667362	100	imm	1529800.5426597	1.0	1529803.3818468	1529801.0549965	1529801.0555353	120.0
667.8115234375	0.0	80	1367678	51	80	350	1	1	1529805.6570357	1529805.6574981	80	1529808.9779298	1529808.9784128	40	1529812.4477785	1529812.4483253	100	imm	1529817.42258	2.0	1529819.0539528	1529817.9354807	1529817.9359652	120.0
671.13232421875	0.0	40	1374479	51	80	350	1	1	1529805.6570357	1529805.6574981	80	1529808.9779298	1529808.9784128	40	1529812.4477785	1529812.4483253	100	imm	1529817.42258	2.0	1529819.0539528	1529817.9354807	1529817.9359652	120.0
674.60205078125	0.0	100	1381585	51	80	350	1	1	1529805.6570357	1529805.6574981	80	1529808.9779298	1529808.9784128	40	1529812.4477785	1529812.4483253	100	imm	1529817.42258	2.0	1529819.0539528	1529817.9354807	1529817.9359652	120.0
680.08935546875	0.0	120	1392823	51	80	350	1	1	1529805.6570357	1529805.6574981	80	1529808.9779298	1529808.9784128	40	1529812.4477785	1529812.4483253	100	imm	1529817.42258	2.0	1529819.0539528	1529817.9354807	1529817.9359652	120.0
683.5546875	0.0	80	1399920	52	87	15	1	0	1529821.4010218	1529821.4015378	80	1529824.6051311	1529824.6056289	40	1529827.9889769	1529827.9895102	100	del	1529828.8377461	2.0	1529830.3986962	1529829.3515724	1529829.35218	120.0
686.7587890625	0.0	40	1406482	52	87	15	1	0	1529821.4010218	1529821.4015378	80	1529824.6051311	1529824.6056289	40	1529827.9889769	1529827.9895102	100	del	1529828.8377461	2.0	1529830.3986962	1529829.3515724	1529829.35218	120.0
690.142578125	0.0	100	1413412	52	87	15	1	0	1529821.4010218	1529821.4015378	80	1529824.6051311	1529824.6056289	40	1529827.9889769	1529827.9895102	100	del	1529828.8377461	2.0	1529830.3986962	1529829.3515724	1529829.35218	120.0
691.50537109375	0.0	120	1416203	52	87	15	1	0	1529821.4010218	1529821.4015378	80	1529824.6051311	1529824.6056289	40	1529827.9889769	1529827.9895102	100	del	1529828.8377461	2.0	1529830.3986962	1529829.3515724	1529829.35218	120.0
694.97705078125	0.0	80	1423313	53	63	50	0	1	1529832.8234422	1529832.82392	80	1529836.131298	1529836.1318097	40	1529839.187365	1529839.1878585	100	del	1529843.0303274	nan	nan	nan	nan	nan
698.28466796875	0.0	40	1430087	53	63	50	0	1	1529832.8234422	1529832.82392	80	1529836.131298	1529836.1318097	40	1529839.187365	1529839.1878585	100	del	1529843.0303274	nan	nan	nan	nan	nan
701.3408203125	0.0	100	1436346	53	63	50	0	1	1529832.8234422	1529832.82392	80	1529836.131298	1529836.1318097	40	1529839.187365	1529839.1878585	100	del	1529843.0303274	nan	nan	nan	nan	nan
708.15625	0.0	80	1450304	54	67	50	0	1	1529846.0029674	1529846.0031819	80	1529849.0371538	1529849.0376579	40	1529852.313803	1529852.3142322	100	na	1529852.8782274	nan	nan	nan	nan	nan
711.1904296875	0.0	40	1456518	54	67	50	0	1	1529846.0029674	1529846.0031819	80	1529849.0371538	1529849.0376579	40	1529852.313803	1529852.3142322	100	na	1529852.8782274	nan	nan	nan	nan	nan
714.466796875	0.0	100	1463228	54	67	50	0	1	1529846.0029674	1529846.0031819	80	1529849.0371538	1529849.0376579	40	1529852.313803	1529852.3142322	100	na	1529852.8782274	nan	nan	nan	nan	nan
717.60888671875	0.0	80	1469663	55	90	790	0	0	1529855.4557627	1529855.4562353	80	1529858.6535772	1529858.6540464	40	1529862.0735831	1529862.0741061	100	imm	1529862.7901596	nan	nan	nan	nan	nan
720.806640625	0.0	40	1476212	55	90	790	0	0	1529855.4557627	1529855.4562353	80	1529858.6535772	1529858.6540464	40	1529862.0735831	1529862.0741061	100	imm	1529862.7901596	nan	nan	nan	nan	nan
724.2265625	0.0	100	1483216	55	90	790	0	0	1529855.4557627	1529855.4562353	80	1529858.6535772	1529858.6540464	40	1529862.0735831	1529862.0741061	100	imm	1529862.7901596	nan	nan	nan	nan	nan
727.58203125	0.0	80	1490088	56	83	790	0	0	1529865.4293505	1529865.4298398	80	1529868.8802392	1529868.880831	40	1529872.2503935	1529872.250922	100	na	1529872.8937986	nan	nan	nan	nan	nan
731.03271484375	0.0	40	1497155	56	83	790	0	0	1529865.4293505	1529865.4298398	80	1529868.8802392	1529868.880831	40	1529872.2503935	1529872.250922	100	na	1529872.8937986	nan	nan	nan	nan	nan
734.40283203125	0.0	100	1504057	56	83	790	0	0	1529865.4293505	1529865.4298398	80	1529868.8802392	1529868.880831	40	1529872.2503935	1529872.250922	100	na	1529872.8937986	nan	nan	nan	nan	nan
737.75390625	0.0	80	1510920	57	67	600	1	0	1529875.601303	1529875.6018128	80	1529878.7336693	1529878.7341445	40	1529881.8733687	1529881.8738182	100	imm	1529884.0381873	1.0	1529887.1821887	1529884.5514314	1529884.5519305	120.0
740.8857421875	0.0	40	1517334	57	67	600	1	0	1529875.601303	1529875.6018128	80	1529878.7336693	1529878.7341445	40	1529881.8733687	1529881.8738182	100	imm	1529884.0381873	1.0	1529887.1821887	1529884.5514314	1529884.5519305	120.0
744.025390625	0.0	100	1523764	57	67	600	1	0	1529875.601303	1529875.6018128	80	1529878.7336693	1529878.7341445	40	1529881.8733687	1529881.8738182	100	imm	1529884.0381873	1.0	1529887.1821887	1529884.5514314	1529884.5519305	120.0
746.70361328125	0.0	120	1529249	57	67	600	1	0	1529875.601303	1529875.6018128	80	1529878.7336693	1529878.7341445	40	1529881.8733687	1529881.8738182	100	imm	1529884.0381873	1.0	1529887.1821887	1529884.5514314	1529884.5519305	120.0
751.73388671875	0.0	80	1539551	58	90	460	0	0	1529889.5819351	1529889.5824146	80	1529892.6145391	1529892.6150112	40	1529895.970866	1529895.9713507	100	del	1529896.8464013	nan	nan	nan	nan	nan
754.7666015625	0.0	40	1545762	58	90	460	0	0	1529889.5819351	1529889.5824146	80	1529892.6145391	1529892.6150112	40	1529895.970866	1529895.9713507	100	del	1529896.8464013	nan	nan	nan	nan	nan
758.12255859375	0.0	100	1552635	58	90	460	0	0	1529889.5819351	1529889.5824146	80	1529892.6145391	1529892.6150112	40	1529895.970866	1529895.9713507	100	del	1529896.8464013	nan	nan	nan	nan	nan
761.8251953125	0.0	80	1560218	59	60	280	0	1	1529899.6736442	1529899.6740904	80	1529903.0548559	1529903.0553706	40	1529906.5566095	1529906.5571448	100	imm	1529907.4299317	nan	nan	nan	nan	nan
765.20654296875	0.0	40	1567143	59	60	280	0	1	1529899.6736442	1529899.6740904	80	1529903.0548559	1529903.0553706	40	1529906.5566095	1529906.5571448	100	imm	1529907.4299317	nan	nan	nan	nan	nan
768.7080078125	0.0	100	1574314	59	60	280	0	1	1529899.6736442	1529899.6740904	80	1529903.0548559	1529903.0553706	40	1529906.5566095	1529906.5571448	100	imm	1529907.4299317	nan	nan	nan	nan	nan
772.29052734375	0.0	80	1581651	60	80	120	1	1	1529910.1389988	1529910.1394634	80	1529913.27765	1529913.2781998	40	1529916.7299706	1529916.7304278	100	del	1529921.8299627	2.0	1529924.5111504	1529922.3417451	1529922.3421444	120.0
775.42919921875	0.0	40	1588079	60	80	120	1	1	1529910.1389988	1529910.1394634	80	1529913.27765	1529913.2781998	40	1529916.7299706	1529916.7304278	100	del	1529921.8299627	2.0	1529924.5111504	1529922.3417451	1529922.3421444	120.0
778.88134765625	0.0	100	1595149	60	80	120	1	1	1529910.1389988	1529910.1394634	80	1529913.27765	1529913.2781998	40	1529916.7299706	1529916.7304278	100	del	1529921.8299627	2.0	1529924.5111504	1529922.3417451	1529922.3421444	120.0
784.49267578125	0.0	120	1606641	60	80	120	1	1	1529910.1389988	1529910.1394634	80	1529913.27765	1529913.2781998	40	1529916.7299706	1529916.7304278	100	del	1529921.8299627	2.0	1529924.5111504	1529922.3417451	1529922.3421444	120.0
795.220703125	0.0	80	1628612	61	83	120	1	1	1529933.0699143	1529933.0703766	80	1529936.3087777	1529936.3092666	40	1529939.3673327	1529939.3678427	100	del	1529940.5116454	2.0	1529942.9986125	1529941.0243863	1529941.0248662	120.0
798.45947265625	0.0	40	1635245	61	83	120	1	1	1529933.0699143	1529933.0703766	80	1529936.3087777	1529936.3092666	40	1529939.3673327	1529939.3678427	100	del	1529940.5116454	2.0	1529942.9986125	1529941.0243863	1529941.0248662	120.0
801.51806640625	0.0	100	1641509	61	83	120	1	1	1529933.0699143	1529933.0703766	80	1529936.3087777	1529936.3092666	40	1529939.3673327	1529939.3678427	100	del	1529940.5116454	2.0	1529942.9986125	1529941.0243863	1529941.0248662	120.0
803.1748046875	0.0	120	1644902	61	83	120	1	1	1529933.0699143	1529933.0703766	80	1529936.3087777	1529936.3092666	40	1529939.3673327	1529939.3678427	100	del	1529940.5116454	2.0	1529942.9986125	1529941.0243863	1529941.0248662	120.0
807.44775390625	0.0	80	1653653	62	90	50	0	0	1529945.297081	1529945.2975657	80	1529948.3982998	1529948.3987935	40	1529951.6780515	1529951.6785777	100	del	1529953.0464169	nan	nan	nan	nan	nan
810.548828125	0.0	40	1660004	62	90	50	0	0	1529945.297081	1529945.2975657	80	1529948.3982998	1529948.3987935	40	1529951.6780515	1529951.6785777	100	del	1529953.0464169	nan	nan	nan	nan	nan
813.828125	0.0	100	1666720	62	90	50	0	0	1529945.297081	1529945.2975657	80	1529948.3982998	1529948.3987935	40	1529951.6780515	1529951.6785777	100	del	1529953.0464169	nan	nan	nan	nan	nan
817.8916015625	0.0	80	1675042	63	80	460	0	1	1529955.7414845	1529955.7419624	80	1529958.9070061	1529958.907507	40	1529962.2833021	1529962.2837844	100	imm	1529964.3502021	nan	nan	nan	nan	nan
821.05712890625	0.0	40	1681525	63	80	460	0	1	1529955.7414845	1529955.7419624	80	1529958.9070061	1529958.907507	40	1529962.2833021	1529962.2837844	100	imm	1529964.3502021	nan	nan	nan	nan	nan
824.43310546875	0.0	100	1688439	63	80	460	0	1	1529955.7414845	1529955.7419624	80	1529958.9070061	1529958.907507	40	1529962.2833021	1529962.2837844	100	imm	1529964.3502021	nan	nan	nan	nan	nan
829.27587890625	0.0	80	1698357	64	93	160	0	0	1529967.1258737	1529967.1263779	80	1529970.5287166	1529970.5292286	40	1529973.6441288	1529973.6446715	100	del	1529976.3341528	nan	nan	nan	nan	nan
832.67822265625	0.0	40	1705325	64	93	160	0	0	1529967.1258737	1529967.1263779	80	1529970.5287166	1529970.5292286	40	1529973.6441288	1529973.6446715	100	del	1529976.3341528	nan	nan	nan	nan	nan
835.7939453125	0.0	100	1711706	64	93	160	0	0	1529967.1258737	1529967.1263779	80	1529970.5287166	1529970.5292286	40	1529973.6441288	1529973.6446715	100	del	1529976.3341528	nan	nan	nan	nan	nan
841.33984375	0.0	80	1723064	65	77	790	0	1	1529979.1905031	1529979.1910251	80	1529982.2236791	1529982.2241071	40	1529985.6379819	1529985.6384779	100	imm	1529986.7998958	nan	nan	nan	nan	nan
844.373046875	0.0	40	1729276	65	77	790	0	1	1529979.1905031	1529979.1910251	80	1529982.2236791	1529982.2241071	40	1529985.6379819	1529985.6384779	100	imm	1529986.7998958	nan	nan	nan	nan	nan
847.787109375	0.0	100	1736268	65	77	790	0	1	1529979.1905031	1529979.1910251	80	1529982.2236791	1529982.2241071	40	1529985.6379819	1529985.6384779	100	imm	1529986.7998958	nan	nan	nan	nan	nan
851.80712890625	0.0	80	1744501	66	60	460	0	0	1529989.6578573	1529989.6583271	80	1529993.1387913	1529993.1392686	40	1529996.197291	1529996.1978047	100	imm	1529997.5266371	nan	nan	nan	nan	nan
855.2880859375	0.0	40	1751630	66	60	460	0	0	1529989.6578573	1529989.6583271	80	1529993.1387913	1529993.1392686	40	1529996.197291	1529996.1978047	100	imm	1529997.5266371	nan	nan	nan	nan	nan
858.34619140625	0.0	100	1757893	66	60	460	0	0	1529989.6578573	1529989.6583271	80	1529993.1387913	1529993.1392686	40	1529996.197291	1529996.1978047	100	imm	1529997.5266371	nan	nan	nan	nan	nan
862.6474609375	0.0	80	1766702	67	77	160	0	1	1530000.4984639	1530000.499048	80	1530003.7616517	1530003.7621179	40	1530007.0823506	1530007.0831956	100	imm	1530009.3103345	nan	nan	nan	nan	nan
865.91064453125	0.0	40	1773385	67	77	160	0	1	1530000.4984639	1530000.499048	80	1530003.7616517	1530003.7621179	40	1530007.0823506	1530007.0831956	100	imm	1530009.3103345	nan	nan	nan	nan	nan
869.23095703125	0.0	100	1780185	67	77	160	0	1	1530000.4984639	1530000.499048	80	1530003.7616517	1530003.7621179	40	1530007.0823506	1530007.0831956	100	imm	1530009.3103345	nan	nan	nan	nan	nan
874.13525390625	0.0	80	1790229	68	93	460	0	0	1530011.9865177	1530011.9870291	80	1530015.033363	1530015.0338507	40	1530018.4719249	1530018.4724314	100	imm	1530020.3183684	nan	nan	nan	nan	nan
877.181640625	0.0	40	1796468	68	93	460	0	0	1530011.9865177	1530011.9870291	80	1530015.033363	1530015.0338507	40	1530018.4719249	1530018.4724314	100	imm	1530020.3183684	nan	nan	nan	nan	nan
880.6201171875	0.0	100	1803510	68	93	460	0	0	1530011.9865177	1530011.9870291	80	1530015.033363	1530015.0338507	40	1530018.4719249	1530018.4724314	100	imm	1530020.3183684	nan	nan	nan	nan	nan
885.056640625	0.0	80	1812596	69	77	50	0	0	1530022.9082746	1530022.9087807	80	1530026.1014054	1530026.1019589	40	1530029.4258205	1530029.4263169	100	del	1530030.5667683	nan	nan	nan	nan	nan
888.24951171875	0.0	40	1819135	69	77	50	0	0	1530022.9082746	1530022.9087807	80	1530026.1014054	1530026.1019589	40	1530029.4258205	1530029.4263169	100	del	1530030.5667683	nan	nan	nan	nan	nan
891.57373046875	0.0	100	1825943	69	77	50	0	0	1530022.9082746	1530022.9087807	80	1530026.1014054	1530026.1019589	40	1530029.4258205	1530029.4263169	100	del	1530030.5667683	nan	nan	nan	nan	nan
895.73193359375	0.0	80	1834459	70	100	15	1	0	1530033.5837048	1530033.5841887	80	1530036.8500451	1530036.8505338	40	1530040.3582156	1530040.3587097	100	del	1530041.3348089	2.0	1530044.7179479	1530041.8480762	1530041.8485629	120.0
898.998046875	0.0	40	1841148	70	100	15	1	0	1530033.5837048	1530033.5841887	80	1530036.8500451	1530036.8505338	40	1530040.3582156	1530040.3587097	100	del	1530041.3348089	2.0	1530044.7179479	1530041.8480762	1530041.8485629	120.0
902.505859375	0.0	100	1848332	70	100	15	1	0	1530033.5837048	1530033.5841887	80	1530036.8500451	1530036.8505338	40	1530040.3582156	1530040.3587097	100	del	1530041.3348089	2.0	1530044.7179479	1530041.8480762	1530041.8485629	120.0
903.99560546875	0.0	120	1851383	70	100	15	1	0	1530033.5837048	1530033.5841887	80	1530036.8500451	1530036.8505338	40	1530040.3582156	1530040.3587097	100	del	1530041.3348089	2.0	1530044.7179479	1530041.8480762	1530041.8485629	120.0
908.99560546875	0.0	80	1861623	71	80	210	1	1	1530046.8478432	1530046.8483382	80	1530050.0543701	1530050.0548077	40	1530053.4162876	1530053.416794	100	imm	1530055.2946633	3.0	1530058.8862403	1530055.8055834	1530055.8060181	120.0
912.20166015625	0.0	40	1868189	71	80	210	1	1	1530046.8478432	1530046.8483382	80	1530050.0543701	1530050.0548077	40	1530053.4162876	1530053.416794	100	imm	1530055.2946633	3.0	1530058.8862403	1530055.8055834	1530055.8060181	120.0
915.56396484375	0.0	100	1875075	71	80	210	1	1	1530046.8478432	1530046.8483382	80	1530050.0543701	1530050.0548077	40	1530053.4162876	1530053.416794	100	imm	1530055.2946633	3.0	1530058.8862403	1530055.8055834	1530055.8060181	120.0
917.953125	0.0	120	1879968	71	80	210	1	1	1530046.8478432	1530046.8483382	80	1530050.0543701	1530050.0548077	40	1530053.4162876	1530053.416794	100	imm	1530055.2946633	3.0	1530058.8862403	1530055.8055834	1530055.8060181	120.0
923.08203125	0.0	80	1890472	72	80	790	0	1	1530060.9347683	1530060.935272	80	1530064.3162455	1530064.3166411	40	1530067.5404959	1530067.5409748	100	imm	1530068.798535	nan	nan	nan	nan	nan
926.46337890625	0.0	40	1897397	72	80	790	0	1	1530060.9347683	1530060.935272	80	1530064.3162455	1530064.3166411	40	1530067.5404959	1530067.5409748	100	imm	1530068.798535	nan	nan	nan	nan	nan
929.6875	0.0	100	1904000	72	80	790	0	1	1530060.9347683	1530060.935272	80	1530064.3162455	1530064.3166411	40	1530067.5404959	1530067.5409748	100	imm	1530068.798535	nan	nan	nan	nan	nan
933.86865234375	0.0	80	1912563	73	97	50	0	1	1530071.7214506	1530071.7220015	80	1530074.9190509	1530074.9194732	40	1530078.0927518	1530078.0932891	100	del	1530079.0540929	nan	nan	nan	nan	nan
937.06591796875	0.0	40	1919111	73	97	50	0	1	1530071.7214506	1530071.7220015	80	1530074.9190509	1530074.9194732	40	1530078.0927518	1530078.0932891	100	del	1530079.0540929	nan	nan	nan	nan	nan
940.23974609375	0.0	100	1925611	73	97	50	0	1	1530071.7214506	1530071.7220015	80	1530074.9190509	1530074.9194732	40	1530078.0927518	1530078.0932891	100	del	1530079.0540929	nan	nan	nan	nan	nan
944.21240234375	0.0	80	1933747	74	100	600	1	1	1530082.0655573	1530082.0660586	80	1530085.4321833	1530085.4326933	40	1530088.6514328	1530088.6519397	100	del	1530090.6223246	2.0	1530091.862294	1530091.1347161	1530091.1352129	120.0
947.57861328125	0.0	40	1940641	74	100	600	1	1	1530082.0655573	1530082.0660586	80	1530085.4321833	1530085.4326933	40	1530088.6514328	1530088.6519397	100	del	1530090.6223246	2.0	1530091.862294	1530091.1347161	1530091.1352129	120.0
950.7978515625	0.0	100	1947234	74	100	600	1	1	1530082.0655573	1530082.0660586	80	1530085.4321833	1530085.4326933	40	1530088.6514328	1530088.6519397	100	del	1530090.6223246	2.0	1530091.862294	1530091.1347161	1530091.1352129	120.0
953.28125	0.0	120	1952320	74	100	600	1	1	1530082.0655573	1530082.0660586	80	1530085.4321833	1530085.4326933	40	1530088.6514328	1530088.6519397	100	del	1530090.6223246	2.0	1530091.862294	1530091.1347161	1530091.1352129	120.0
956.07373046875	0.0	80	1958039	75	77	350	1	1	1530093.9274099	1530093.9279219	80	1530097.3021873	1530097.3026748	40	1530100.6379058	1530100.6384228	100	imm	1530103.2304862	1.0	1530106.5663514	1530103.7434878	1530103.7440198	120.0
959.4482421875	0.0	40	1964950	75	77	350	1	1	1530093.9274099	1530093.9279219	80	1530097.3021873	1530097.3026748	40	1530100.6379058	1530100.6384228	100	imm	1530103.2304862	1.0	1530106.5663514	1530103.7434878	1530103.7440198	120.0
962.7841796875	0.0	100	1971782	75	77	350	1	1	1530093.9274099	1530093.9279219	80	1530097.3021873	1530097.3026748	40	1530100.6379058	1530100.6384228	100	imm	1530103.2304862	1.0	1530106.5663514	1530103.7434878	1530103.7440198	120.0
965.8896484375	0.0	120	1978142	75	77	350	1	1	1530093.9274099	1530093.9279219	80	1530097.3021873	1530097.3026748	40	1530100.6379058	1530100.6384228	100	imm	1530103.2304862	1.0	1530106.5663514	1530103.7434878	1530103.7440198	120.0
970.7646484375	0.0	80	1988126	76	97	120	1	1	1530108.6186532	1530108.6191668	80	1530111.6884786	1530111.6890978	40	1530115.1932533	1530115.1937775	100	del	1530116.9501239	3.0	1530117.9749711	1530117.4634433	1530117.4639503	120.0
973.83447265625	0.0	40	1994413	76	97	120	1	1	1530108.6186532	1530108.6191668	80	1530111.6884786	1530111.6890978	40	1530115.1932533	1530115.1937775	100	del	1530116.9501239	3.0	1530117.9749711	1530117.4634433	1530117.4639503	120.0
977.3388671875	0.0	100	2001590	76	97	120	1	1	1530108.6186532	1530108.6191668	80	1530111.6884786	1530111.6890978	40	1530115.1932533	1530115.1937775	100	del	1530116.9501239	3.0	1530117.9749711	1530117.4634433	1530117.4639503	120.0
979.60888671875	0.0	120	2006239	76	97	120	1	1	1530108.6186532	1530108.6191668	80	1530111.6884786	1530111.6890978	40	1530115.1932533	1530115.1937775	100	del	1530116.9501239	3.0	1530117.9749711	1530117.4634433	1530117.4639503	120.0
982.384765625	0.0	80	2011924	77	60	350	1	0	1530120.2391326	1530120.239647	80	1530123.2580669	1530123.2585503	40	1530126.2978633	1530126.2984032	100	del	1530127.3825608	1.0	1530130.510715	1530127.8920148	1530127.8923437	120.0
985.4033203125	0.0	40	2018106	77	60	350	1	0	1530120.2391326	1530120.239647	80	1530123.2580669	1530123.2585503	40	1530126.2978633	1530126.2984032	100	del	1530127.3825608	1.0	1530130.510715	1530127.8920148	1530127.8923437	120.0
988.443359375	0.0	100	2024332	77	60	350	1	0	1530120.2391326	1530120.239647	80	1530123.2580669	1530123.2585503	40	1530126.2978633	1530126.2984032	100	del	1530127.3825608	1.0	1530130.510715	1530127.8920148	1530127.8923437	120.0
990.037109375	0.0	120	2027596	77	60	350	1	0	1530120.2391326	1530120.239647	80	1530123.2580669	1530123.2585503	40	1530126.2978633	1530126.2984032	100	del	1530127.3825608	1.0	1530130.510715	1530127.8920148	1530127.8923437	120.0
994.74169921875	0.0	80	2037231	78	70	210	1	1	1530132.5966522	1530132.5971176	80	1530136.0524786	1530136.0529828	40	1530139.2985632	1530139.2990915	100	del	1530142.150797	3.0	1530143.2543633	1530142.6636353	1530142.664025	120.0
998.19775390625	0.0	40	2044309	78	70	210	1	1	1530132.5966522	1530132.5971176	80	1530136.0524786	1530136.0529828	40	1530139.2985632	1530139.2990915	100	del	1530142.150797	3.0	1530143.2543633	1530142.6636353	1530142.664025	120.0
1001.44384765625	0.0	100	2050957	78	70	210	1	1	1530132.5966522	1530132.5971176	80	1530136.0524786	1530136.0529828	40	1530139.2985632	1530139.2990915	100	del	1530142.150797	3.0	1530143.2543633	1530142.6636353	1530142.664025	120.0
1004.80859375	0.0	120	2057848	78	70	210	1	1	1530132.5966522	1530132.5971176	80	1530136.0524786	1530136.0529828	40	1530139.2985632	1530139.2990915	100	del	1530142.150797	3.0	1530143.2543633	1530142.6636353	1530142.664025	120.0
1007.6962890625	0.0	80	2063762	79	87	120	1	1	1530145.5513198	1530145.5518311	80	1530148.8060511	1530148.806554	40	1530151.8532643	1530151.8537497	100	del	1530156.6540726	3.0	1530159.0308532	1530157.1674224	1530157.1678848	120.0
1010.95068359375	0.0	40	2070427	79	87	120	1	1	1530145.5513198	1530145.5518311	80	1530148.8060511	1530148.806554	40	1530151.8532643	1530151.8537497	100	del	1530156.6540726	3.0	1530159.0308532	1530157.1674224	1530157.1678848	120.0
1013.998046875	0.0	100	2076668	79	87	120	1	1	1530145.5513198	1530145.5518311	80	1530148.8060511	1530148.806554	40	1530151.8532643	1530151.8537497	100	del	1530156.6540726	3.0	1530159.0308532	1530157.1674224	1530157.1678848	120.0
1019.31201171875	0.0	120	2087551	79	87	120	1	1	1530145.5513198	1530145.5518311	80	1530148.8060511	1530148.806554	40	1530151.8532643	1530151.8537497	100	del	1530156.6540726	3.0	1530159.0308532	1530157.1674224	1530157.1678848	120.0
1023.6396484375	0.0	80	2096414	80	57	350	1	1	1530161.4950346	1530161.4955135	80	1530164.6477564	1530164.6482293	40	1530167.7951741	1530167.7957079	100	imm	1530168.8303925	1.0	1530171.7901594	1530169.3441373	1530169.344547	120.0
1026.7919921875	0.0	40	2102870	80	57	350	1	1	1530161.4950346	1530161.4955135	80	1530164.6477564	1530164.6482293	40	1530167.7951741	1530167.7957079	100	imm	1530168.8303925	1.0	1530171.7901594	1530169.3441373	1530169.344547	120.0
1029.939453125	0.0	100	2109316	80	57	350	1	1	1530161.4950346	1530161.4955135	80	1530164.6477564	1530164.6482293	40	1530167.7951741	1530167.7957079	100	imm	1530168.8303925	1.0	1530171.7901594	1530169.3441373	1530169.344547	120.0
1031.48828125	0.0	120	2112488	80	57	350	1	1	1530161.4950346	1530161.4955135	80	1530164.6477564	1530164.6482293	40	1530167.7951741	1530167.7957079	100	imm	1530168.8303925	1.0	1530171.7901594	1530169.3441373	1530169.344547	120.0
1042.21533203125	0.0	80	2134457	81	73	160	0	0	1530180.0715393	1530180.0720289	80	1530183.3168863	1530183.3173828	40	1530186.5143109	1530186.5148247	100	imm	1530189.1824047	nan	nan	nan	nan	nan
1045.4609375	0.0	40	2141104	81	73	160	0	0	1530180.0715393	1530180.0720289	80	1530183.3168863	1530183.3173828	40	1530186.5143109	1530186.5148247	100	imm	1530189.1824047	nan	nan	nan	nan	nan
1048.658203125	0.0	100	2147652	81	73	160	0	0	1530180.0715393	1530180.0720289	80	1530183.3168863	1530183.3173828	40	1530186.5143109	1530186.5148247	100	imm	1530189.1824047	nan	nan	nan	nan	nan
1054.1708984375	0.0	80	2158942	82	63	210	1	1	1530192.027457	1530192.027999	80	1530195.5040311	1530195.504512	40	1530198.8281473	1530198.8286309	100	imm	1530199.6948447	2.0	1530201.8782571	1530200.2017549	1530200.2021154	120.0
1057.6474609375	0.0	40	2166062	82	63	210	1	1	1530192.027457	1530192.027999	80	1530195.5040311	1530195.504512	40	1530198.8281473	1530198.8286309	100	imm	1530199.6948447	2.0	1530201.8782571	1530200.2017549	1530200.2021154	120.0
1060.9716796875	0.0	100	2172870	82	63	210	1	1	1530192.027457	1530192.027999	80	1530195.5040311	1530195.504512	40	1530198.8281473	1530198.8286309	100	imm	1530199.6948447	2.0	1530201.8782571	1530200.2017549	1530200.2021154	120.0
1062.34521484375	0.0	120	2175683	82	63	210	1	1	1530192.027457	1530192.027999	80	1530195.5040311	1530195.504512	40	1530198.8281473	1530198.8286309	100	imm	1530199.6948447	2.0	1530201.8782571	1530200.2017549	1530200.2021154	120.0
1066.1796875	0.0	80	2183536	83	100	350	1	1	1530204.0362239	1530204.0367309	80	1530207.146672	1530207.1471475	40	1530210.379404	1530210.3799444	100	del	1530212.510393	2.0	1530214.239018	1530213.019397	1530213.0197154	120.0
1069.2900390625	0.0	40	2189906	83	100	350	1	1	1530204.0362239	1530204.0367309	80	1530207.146672	1530207.1471475	40	1530210.379404	1530210.3799444	100	del	1530212.510393	2.0	1530214.239018	1530213.019397	1530213.0197154	120.0
1072.5224609375	0.0	100	2196526	83	100	350	1	1	1530204.0362239	1530204.0367309	80	1530207.146672	1530207.1471475	40	1530210.379404	1530210.3799444	100	del	1530212.510393	2.0	1530214.239018	1530213.019397	1530213.0197154	120.0
1075.162109375	0.0	120	2201932	83	100	350	1	1	1530204.0362239	1530204.0367309	80	1530207.146672	1530207.1471475	40	1530210.379404	1530210.3799444	100	del	1530212.510393	2.0	1530214.239018	1530213.019397	1530213.0197154	120.0
1078.412109375	0.0	80	2208588	84	83	15	1	0	1530216.2693041	1530216.2697819	80	1530219.715218	1530219.7156713	40	1530223.0337245	1530223.0342635	100	del	1530224.311855	3.0	1530225.6464193	1530224.8259963	1530224.8265229	120.0
1081.85791015625	0.0	40	2215645	84	83	15	1	0	1530216.2693041	1530216.2697819	80	1530219.715218	1530219.7156713	40	1530223.0337245	1530223.0342635	100	del	1530224.311855	3.0	1530225.6464193	1530224.8259963	1530224.8265229	120.0
1085.17626953125	0.0	100	2222441	84	83	15	1	0	1530216.2693041	1530216.2697819	80	1530219.715218	1530219.7156713	40	1530223.0337245	1530223.0342635	100	del	1530224.311855	3.0	1530225.6464193	1530224.8259963	1530224.8265229	120.0
1086.96875	0.0	120	2226112	84	83	15	1	0	1530216.2693041	1530216.2697819	80	1530219.715218	1530219.7156713	40	1530223.0337245	1530223.0342635	100	del	1530224.311855	3.0	1530225.6464193	1530224.8259963	1530224.8265229	120.0
1089.90625	0.0	80	2232128	85	63	350	1	0	1530227.7633938	1530227.7639263	80	1530231.0309187	1530231.0314398	40	1530234.0728557	1530234.0734641	100	imm	1530234.8783773	2.0	1530236.1190719	1530235.3923039	1530235.3927737	120.0
1093.17333984375	0.0	40	2238819	85	63	350	1	0	1530227.7633938	1530227.7639263	80	1530231.0309187	1530231.0314398	40	1530234.0728557	1530234.0734641	100	imm	1530234.8783773	2.0	1530236.1190719	1530235.3923039	1530235.3927737	120.0
1096.21533203125	0.0	100	2245049	85	63	350	1	0	1530227.7633938	1530227.7639263	80	1530231.0309187	1530231.0314398	40	1530234.0728557	1530234.0734641	100	imm	1530234.8783773	2.0	1530236.1190719	1530235.3923039	1530235.3927737	120.0
1097.53466796875	0.0	120	2247751	85	63	350	1	0	1530227.7633938	1530227.7639263	80	1530231.0309187	1530231.0314398	40	1530234.0728557	1530234.0734641	100	imm	1530234.8783773	2.0	1530236.1190719	1530235.3923039	1530235.3927737	120.0
1100.70849609375	0.0	80	2254251	86	63	790	0	0	1530238.5659763	1530238.5664688	80	1530241.7949451	1530241.7953605	40	1530245.082435	1530245.0829272	100	imm	1530245.6958622	nan	nan	nan	nan	nan
1103.93701171875	0.0	40	2260863	86	63	790	0	0	1530238.5659763	1530238.5664688	80	1530241.7949451	1530241.7953605	40	1530245.082435	1530245.0829272	100	imm	1530245.6958622	nan	nan	nan	nan	nan
1107.224609375	0.0	100	2267596	86	63	790	0	0	1530238.5659763	1530238.5664688	80	1530241.7949451	1530241.7953605	40	1530245.082435	1530245.0829272	100	imm	1530245.6958622	nan	nan	nan	nan	nan
1110.638671875	0.0	80	2274588	87	100	160	0	0	1530248.4966309	1530248.4971322	80	1530251.8444328	1530251.8448991	40	1530255.0460427	1530255.0465688	100	del	1530256.0306998	nan	nan	nan	nan	nan
1113.986328125	0.0	40	2281444	87	100	160	0	0	1530248.4966309	1530248.4971322	80	1530251.8444328	1530251.8448991	40	1530255.0460427	1530255.0465688	100	del	1530256.0306998	nan	nan	nan	nan	nan
1117.18798828125	0.0	100	2288001	87	100	160	0	0	1530248.4966309	1530248.4971322	80	1530251.8444328	1530251.8448991	40	1530255.0460427	1530255.0465688	100	del	1530256.0306998	nan	nan	nan	nan	nan
1120.73046875	0.0	80	2295256	88	50	50	0	1	1530258.5885889	1530258.589188	80	1530261.8248653	1530261.8253273	40	1530264.8623437	1530264.8628359	100	imm	1530269.3428949	nan	nan	nan	nan	nan
1123.96630859375	0.0	40	2301883	88	50	50	0	1	1530258.5885889	1530258.589188	80	1530261.8248653	1530261.8253273	40	1530264.8623437	1530264.8628359	100	imm	1530269.3428949	nan	nan	nan	nan	nan
1127.00390625	0.0	100	2308104	88	50	50	0	1	1530258.5885889	1530258.589188	80	1530261.8248653	1530261.8253273	40	1530264.8623437	1530264.8628359	100	imm	1530269.3428949	nan	nan	nan	nan	nan
1134.37158203125	0.0	80	2323193	89	83	350	1	0	1530272.230049	1530272.2305225	80	1530275.2566116	1530275.2570927	40	1530278.7468748	1530278.7473947	100	imm	1530281.630482	1.0	1530284.064032	1530282.1427233	1530282.1431868	120.0
1137.39794921875	0.0	40	2329391	89	83	350	1	0	1530272.230049	1530272.2305225	80	1530275.2566116	1530275.2570927	40	1530278.7468748	1530278.7473947	100	imm	1530281.630482	1.0	1530284.064032	1530282.1427233	1530282.1431868	120.0
1140.88818359375	0.0	100	2336539	89	83	350	1	0	1530272.230049	1530272.2305225	80	1530275.2566116	1530275.2570927	40	1530278.7468748	1530278.7473947	100	imm	1530281.630482	1.0	1530284.064032	1530282.1427233	1530282.1431868	120.0
1144.28369140625	0.0	120	2343493	89	83	350	1	0	1530272.230049	1530272.2305225	80	1530275.2566116	1530275.2570927	40	1530278.7468748	1530278.7473947	100	imm	1530281.630482	1.0	1530284.064032	1530282.1427233	1530282.1431868	120.0
1148.5927734375	0.0	80	2352318	90	70	600	1	0	1530286.451984	1530286.4525227	80	1530289.9281069	1530289.9286015	40	1530293.1977282	1530293.198212	100	imm	1530297.9745909	1.0	1530300.0309652	1530298.4838121	1530298.4841107	120.0
1152.06884765625	0.0	40	2359437	90	70	600	1	0	1530286.451984	1530286.4525227	80	1530289.9281069	1530289.9286015	40	1530293.1977282	1530293.198212	100	imm	1530297.9745909	1.0	1530300.0309652	1530298.4838121	1530298.4841107	120.0
1155.33837890625	0.0	100	2366133	90	70	600	1	0	1530286.451984	1530286.4525227	80	1530289.9281069	1530289.9286015	40	1530293.1977282	1530293.198212	100	imm	1530297.9745909	1.0	1530300.0309652	1530298.4838121	1530298.4841107	120.0
1160.62451171875	0.0	120	2376959	90	70	600	1	0	1530286.451984	1530286.4525227	80	1530289.9281069	1530289.9286015	40	1530293.1977282	1530293.198212	100	imm	1530297.9745909	1.0	1530300.0309652	1530298.4838121	1530298.4841107	120.0
1164.31005859375	0.0	80	2384507	91	70	280	0	0	1530302.169723	1530302.1701681	80	1530305.3072795	1530305.3077442	40	1530308.7004078	1530308.7008925	100	imm	1530309.2067651	nan	nan	nan	nan	nan
1167.44775390625	0.0	40	2390933	91	70	280	0	0	1530302.169723	1530302.1701681	80	1530305.3072795	1530305.3077442	40	1530308.7004078	1530308.7008925	100	imm	1530309.2067651	nan	nan	nan	nan	nan
1170.8408203125	0.0	100	2397882	91	70	280	0	0	1530302.169723	1530302.1701681	80	1530305.3072795	1530305.3077442	40	1530308.7004078	1530308.7008925	100	imm	1530309.2067651	nan	nan	nan	nan	nan
1174.36279296875	0.0	80	2405095	92	97	280	0	1	1530312.2227098	1530312.2232442	80	1530315.4087328	1530315.4092095	40	1530318.7984879	1530318.798964	100	del	1530320.0629968	nan	nan	nan	nan	nan
1177.548828125	0.0	40	2411620	92	97	280	0	1	1530312.2227098	1530312.2232442	80	1530315.4087328	1530315.4092095	40	1530318.7984879	1530318.798964	100	del	1530320.0629968	nan	nan	nan	nan	nan
1180.9384765625	0.0	100	2418562	92	97	280	0	1	1530312.2227098	1530312.2232442	80	1530315.4087328	1530315.4092095	40	1530318.7984879	1530318.798964	100	del	1530320.0629968	nan	nan	nan	nan	nan
1184.775390625	0.0	80	2426420	93	90	210	1	0	1530322.6355087	1530322.6359394	80	1530325.9414034	1530325.9418436	40	1530329.1702434	1530329.1707996	100	del	1530329.9426281	3.0	1530331.4481438	1530330.4557913	1530330.4562747	120.0
1188.0810546875	0.0	40	2433190	93	90	210	1	0	1530322.6355087	1530322.6359394	80	1530325.9414034	1530325.9418436	40	1530329.1702434	1530329.1707996	100	del	1530329.9426281	3.0	1530331.4481438	1530330.4557913	1530330.4562747	120.0
1191.31005859375	0.0	100	2439803	93	90	210	1	0	1530322.6355087	1530322.6359394	80	1530325.9414034	1530325.9418436	40	1530329.1702434	1530329.1707996	100	del	1530329.9426281	3.0	1530331.4481438	1530330.4557913	1530330.4562747	120.0
1192.595703125	0.0	120	2442436	93	90	210	1	0	1530322.6355087	1530322.6359394	80	1530325.9414034	1530325.9418436	40	1530329.1702434	1530329.1707996	100	del	1530329.9426281	3.0	1530331.4481438	1530330.4557913	1530330.4562747	120.0
1195.9697265625	0.0	80	2449346	94	90	160	0	1	1530333.829856	1530333.8303832	80	1530336.9679949	1530336.9684568	40	1530340.0293005	1530340.0298028	100	na	1530342.1671987	nan	nan	nan	nan	nan
1199.107421875	0.0	40	2455772	94	90	160	0	1	1530333.829856	1530333.8303832	80	1530336.9679949	1530336.9684568	40	1530340.0293005	1530340.0298028	100	na	1530342.1671987	nan	nan	nan	nan	nan
1202.1689453125	0.0	100	2462042	94	90	160	0	1	1530333.829856	1530333.8303832	80	1530336.9679949	1530336.9684568	40	1530340.0293005	1530340.0298028	100	na	1530342.1671987	nan	nan	nan	nan	nan
1207.05322265625	0.0	80	2472045	95	53	160	0	0	1530344.9136521	1530344.9141177	80	1530348.2409218	1530348.2413804	40	1530351.3207861	1530351.3212881	100	imm	1530354.3104941	nan	nan	nan	nan	nan
1210.38037109375	0.0	40	2478859	95	53	160	0	0	1530344.9136521	1530344.9141177	80	1530348.2409218	1530348.2413804	40	1530351.3207861	1530351.3212881	100	imm	1530354.3104941	nan	nan	nan	nan	nan
1213.4599609375	0.0	100	2485166	95	53	160	0	0	1530344.9136521	1530344.9141177	80	1530348.2409218	1530348.2413804	40	1530351.3207861	1530351.3212881	100	imm	1530354.3104941	nan	nan	nan	nan	nan
1219.19287109375	0.0	80	2496907	96	53	210	1	0	1530357.0541033	1530357.0546308	80	1530360.387711	1530360.3882902	40	1530363.8171914	1530363.8177329	100	imm	1530365.6145903	2.0	1530366.8311658	1530366.1273602	1530366.1278471	120.0
1222.52685546875	0.0	40	2503735	96	53	210	1	0	1530357.0541033	1530357.0546308	80	1530360.387711	1530360.3882902	40	1530363.8171914	1530363.8177329	100	imm	1530365.6145903	2.0	1530366.8311658	1530366.1273602	1530366.1278471	120.0
1225.9560546875	0.0	100	2510758	96	53	210	1	0	1530357.0541033	1530357.0546308	80	1530360.387711	1530360.3882902	40	1530363.8171914	1530363.8177329	100	imm	1530365.6145903	2.0	1530366.8311658	1530366.1273602	1530366.1278471	120.0
1228.26611328125	0.0	120	2515489	96	53	210	1	0	1530357.0541033	1530357.0546308	80	1530360.387711	1530360.3882902	40	1530363.8171914	1530363.8177329	100	imm	1530365.6145903	2.0	1530366.8311658	1530366.1273602	1530366.1278471	120.0
1231.1396484375	0.0	80	2521374	97	87	790	0	1	1530369.0009948	1530369.001498	80	1530372.2097708	1530372.2103099	40	1530375.6654067	1530375.6658745	100	imm	1530377.6950462	nan	nan	nan	nan	nan
1234.3486328125	0.0	40	2527946	97	87	790	0	1	1530369.0009948	1530369.001498	80	1530372.2097708	1530372.2103099	40	1530375.6654067	1530375.6658745	100	imm	1530377.6950462	nan	nan	nan	nan	nan
1237.8037109375	0.0	100	2535022	97	87	790	0	1	1530369.0009948	1530369.001498	80	1530372.2097708	1530372.2103099	40	1530375.6654067	1530375.6658745	100	imm	1530377.6950462	nan	nan	nan	nan	nan
1242.70068359375	0.0	80	2545051	98	77	15	1	0	1530380.5625266	1530380.5630368	80	1530383.6910158	1530383.6914749	40	1530387.0842029	1530387.0846335	100	del	1530388.4152316	2.0	1530390.7822763	1530388.9288532	1530388.9293487	120.0
1245.8291015625	0.0	40	2551458	98	77	15	1	0	1530380.5625266	1530380.5630368	80	1530383.6910158	1530383.6914749	40	1530387.0842029	1530387.0846335	100	del	1530388.4152316	2.0	1530390.7822763	1530388.9288532	1530388.9293487	120.0
1249.22216796875	0.0	100	2558407	98	77	15	1	0	1530380.5625266	1530380.5630368	80	1530383.6910158	1530383.6914749	40	1530387.0842029	1530387.0846335	100	del	1530388.4152316	2.0	1530390.7822763	1530388.9288532	1530388.9293487	120.0
1251.06689453125	0.0	120	2562185	98	77	15	1	0	1530380.5625266	1530380.5630368	80	1530383.6910158	1530383.6914749	40	1530387.0842029	1530387.0846335	100	del	1530388.4152316	2.0	1530390.7822763	1530388.9288532	1530388.9293487	120.0
1255.08154296875	0.0	80	2570407	99	97	460	0	1	1530392.9433308	1530392.9437998	80	1530396.0903217	1530396.0908167	40	1530399.1062712	1530399.1067724	100	imm	1530405.1666966	nan	nan	nan	nan	nan
1258.228515625	0.0	40	2576852	99	97	460	0	1	1530392.9433308	1530392.9437998	80	1530396.0903217	1530396.0908167	40	1530399.1062712	1530399.1067724	100	imm	1530405.1666966	nan	nan	nan	nan	nan
1261.244140625	0.0	100	2583028	99	97	460	0	1	1530392.9433308	1530392.9437998	80	1530396.0903217	1530396.0908167	40	1530399.1062712	1530399.1067724	100	imm	1530405.1666966	nan	nan	nan	nan	nan
1270.00927734375	0.0	80	2600979	100	70	350	1	1	1530407.8718801	1530407.8723987	80	1530411.0977096	1530411.0981315	40	1530414.2632578	1530414.2637525	100	imm	1530417.9106216	2.0	1530419.6869757	1530418.4226094	1530418.4229968	120.0
1273.2353515625	0.0	40	2607586	100	70	350	1	1	1530407.8718801	1530407.8723987	80	1530411.0977096	1530411.0981315	40	1530414.2632578	1530414.2637525	100	imm	1530417.9106216	2.0	1530419.6869757	1530418.4226094	1530418.4229968	120.0
1276.40087890625	0.0	100	2614069	100	70	350	1	1	1530407.8718801	1530407.8723987	80	1530411.0977096	1530411.0981315	40	1530414.2632578	1530414.2637525	100	imm	1530417.9106216	2.0	1530419.6869757	1530418.4226094	1530418.4229968	120.0
1280.56005859375	0.0	120	2622587	100	70	350	1	1	1530407.8718801	1530407.8723987	80	1530411.0977096	1530411.0981315	40	1530414.2632578	1530414.2637525	100	imm	1530417.9106216	2.0	1530419.6869757	1530418.4226094	1530418.4229968	120.0
1291.01611328125	0.0	80	2644001	101	63	160	0	1	1530428.8789277	1530428.8793887	80	1530432.0078713	1530432.0083617	40	1530435.4899807	1530435.4905638	100	imm	1530437.7121512	nan	nan	nan	nan	nan
1294.14501953125	0.0	40	2650409	101	63	160	0	1	1530428.8789277	1530428.8793887	80	1530432.0078713	1530432.0083617	40	1530435.4899807	1530435.4905638	100	imm	1530437.7121512	nan	nan	nan	nan	nan
1297.626953125	0.0	100	2657540	101	63	160	0	1	1530428.8789277	1530428.8793887	80	1530432.0078713	1530432.0083617	40	1530435.4899807	1530435.4905638	100	imm	1530437.7121512	nan	nan	nan	nan	nan
1302.79736328125	0.0	80	2668129	102	83	280	0	1	1530440.6603432	1530440.6609422	80	1530443.867389	1530443.8678739	40	1530447.1208994	1530447.1213746	100	del	1530453.1681629	nan	nan	nan	nan	nan
1306.00390625	0.0	40	2674696	102	83	280	0	1	1530440.6603432	1530440.6609422	80	1530443.867389	1530443.8678739	40	1530447.1208994	1530447.1213746	100	del	1530453.1681629	nan	nan	nan	nan	nan
1309.25732421875	0.0	100	2681359	102	83	280	0	1	1530440.6603432	1530440.6609422	80	1530443.867389	1530443.8678739	40	1530447.1208994	1530447.1213746	100	del	1530453.1681629	nan	nan	nan	nan	nan
1318.10693359375	0.0	80	2699483	103	50	160	0	0	1530455.9704368	1530455.9709026	80	1530459.2227532	1530459.2232381	40	1530462.3713842	1530462.3719329	100	imm	1530466.0144474	nan	nan	nan	nan	nan
1321.35888671875	0.0	40	2706143	103	50	160	0	0	1530455.9704368	1530455.9709026	80	1530459.2227532	1530459.2232381	40	1530462.3713842	1530462.3719329	100	imm	1530466.0144474	nan	nan	nan	nan	nan
1324.50732421875	0.0	100	2712591	103	50	160	0	0	1530455.9704368	1530455.9709026	80	1530459.2227532	1530459.2232381	40	1530462.3713842	1530462.3719329	100	imm	1530466.0144474	nan	nan	nan	nan	nan
1331.16357421875	0.0	80	2726223	104	67	15	1	0	1530469.0278368	1530469.0283242	80	1530472.1281607	1530472.1286718	40	1530475.5726244	1530475.5730926	100	del	1530476.7585574	3.0	1530478.5829871	1530477.2723253	1530477.2727935	120.0
1334.26416015625	0.0	40	2732573	104	67	15	1	0	1530469.0278368	1530469.0283242	80	1530472.1281607	1530472.1286718	40	1530475.5726244	1530475.5730926	100	del	1530476.7585574	3.0	1530478.5829871	1530477.2723253	1530477.2727935	120.0
1337.70849609375	0.0	100	2739627	104	67	15	1	0	1530469.0278368	1530469.0283242	80	1530472.1281607	1530472.1286718	40	1530475.5726244	1530475.5730926	100	del	1530476.7585574	3.0	1530478.5829871	1530477.2723253	1530477.2727935	120.0
1339.408203125	0.0	120	2743108	104	67	15	1	0	1530469.0278368	1530469.0283242	80	1530472.1281607	1530472.1286718	40	1530475.5726244	1530475.5730926	100	del	1530476.7585574	3.0	1530478.5829871	1530477.2723253	1530477.2727935	120.0
1342.75341796875	0.0	80	2749959	105	60	210	1	1	1530480.6176531	1530480.6181391	80	1530483.791101	1530483.7915877	40	1530487.1792148	1530487.1796833	100	imm	1530489.6228764	3.0	1530490.854658	1530490.1362435	1530490.1367145	120.0
1345.9267578125	0.0	40	2756458	105	60	210	1	1	1530480.6176531	1530480.6181391	80	1530483.791101	1530483.7915877	40	1530487.1792148	1530487.1796833	100	imm	1530489.6228764	3.0	1530490.854658	1530490.1362435	1530490.1367145	120.0
1349.314453125	0.0	100	2763396	105	60	210	1	1	1530480.6176531	1530480.6181391	80	1530483.791101	1530483.7915877	40	1530487.1792148	1530487.1796833	100	imm	1530489.6228764	3.0	1530490.854658	1530490.1362435	1530490.1367145	120.0
1352.271484375	0.0	120	2769452	105	60	210	1	1	1530480.6176531	1530480.6181391	80	1530483.791101	1530483.7915877	40	1530487.1792148	1530487.1796833	100	imm	1530489.6228764	3.0	1530490.854658	1530490.1362435	1530490.1367145	120.0
1355.32861328125	0.0	80	2775713	106	73	280	0	0	1530493.1933782	1530493.1940361	80	1530496.2856435	1530496.2860914	40	1530499.7745787	1530499.7753041	100	imm	1530501.8783813	nan	nan	nan	nan	nan
1358.4208984375	0.0	40	2782046	106	73	280	0	0	1530493.1933782	1530493.1940361	80	1530496.2856435	1530496.2860914	40	1530499.7745787	1530499.7753041	100	imm	1530501.8783813	nan	nan	nan	nan	nan
1361.90966796875	0.0	100	2789191	106	73	280	0	0	1530493.1933782	1530493.1940361	80	1530496.2856435	1530496.2860914	40	1530499.7745787	1530499.7753041	100	imm	1530501.8783813	nan	nan	nan	nan	nan
1366.80419921875	0.0	80	2799215	107	97	15	1	1	1530504.6692577	1530504.6697192	80	1530507.8025675	1530507.8030503	40	1530511.1012704	1530511.1016371	100	del	1530512.1203579	3.0	1530513.5824477	1530512.6346966	1530512.6351416	120.0
1369.9375	0.0	40	2805632	107	97	15	1	1	1530504.6692577	1530504.6697192	80	1530507.8025675	1530507.8030503	40	1530511.1012704	1530511.1016371	100	del	1530512.1203579	3.0	1530513.5824477	1530512.6346966	1530512.6351416	120.0
1373.23583984375	0.0	100	2812387	107	97	15	1	1	1530504.6692577	1530504.6697192	80	1530507.8025675	1530507.8030503	40	1530511.1012704	1530511.1016371	100	del	1530512.1203579	3.0	1530513.5824477	1530512.6346966	1530512.6351416	120.0
1374.76953125	0.0	120	2815528	107	97	15	1	1	1530504.6692577	1530504.6697192	80	1530507.8025675	1530507.8030503	40	1530511.1012704	1530511.1016371	100	del	1530512.1203579	3.0	1530513.5824477	1530512.6346966	1530512.6351416	120.0
1378.19091796875	0.0	80	2822535	108	100	790	0	0	1530516.0562518	1530516.0567765	80	1530519.5117141	1530519.5121254	40	1530522.7662819	1530522.7667741	100	imm	1530526.1671303	nan	nan	nan	nan	nan
1381.64599609375	0.0	40	2829611	108	100	790	0	0	1530516.0562518	1530516.0567765	80	1530519.5117141	1530519.5121254	40	1530522.7662819	1530522.7667741	100	imm	1530526.1671303	nan	nan	nan	nan	nan
1384.90087890625	0.0	100	2836277	108	100	790	0	0	1530516.0562518	1530516.0567765	80	1530519.5117141	1530519.5121254	40	1530522.7662819	1530522.7667741	100	imm	1530526.1671303	nan	nan	nan	nan	nan
1391.041015625	0.0	80	2848852	109	60	120	1	0	1530528.9066685	1530528.9072013	80	1530532.0698774	1530532.0703752	40	1530535.1120026	1530535.1125134	100	imm	1530537.3679461	2.0	1530541.3264738	1530537.8802239	1530537.8807097	120.0
1394.2041015625	0.0	40	2855330	109	60	120	1	0	1530528.9066685	1530528.9072013	80	1530532.0698774	1530532.0703752	40	1530535.1120026	1530535.1125134	100	imm	1530537.3679461	2.0	1530541.3264738	1530537.8802239	1530537.8807097	120.0
1397.24609375	0.0	100	2861560	109	60	120	1	0	1530528.9066685	1530528.9072013	80	1530532.0698774	1530532.0703752	40	1530535.1120026	1530535.1125134	100	imm	1530537.3679461	2.0	1530541.3264738	1530537.8802239	1530537.8807097	120.0
1400.01416015625	0.0	120	2867229	109	60	120	1	0	1530528.9066685	1530528.9072013	80	1530532.0698774	1530532.0703752	40	1530535.1120026	1530535.1125134	100	imm	1530537.3679461	2.0	1530541.3264738	1530537.8802239	1530537.8807097	120.0
1405.8525390625	0.0	80	2879186	110	77	120	1	1	1530543.7185643	1530543.7190052	80	1530546.7930866	1530546.7935846	40	1530549.9838465	1530549.9843332	100	del	1530553.7267376	2.0	1530556.2387363	1530554.239366	1530554.2398316	120.0
1408.9267578125	0.0	40	2885482	110	77	120	1	1	1530543.7185643	1530543.7190052	80	1530546.7930866	1530546.7935846	40	1530549.9838465	1530549.9843332	100	del	1530553.7267376	2.0	1530556.2387363	1530554.239366	1530554.2398316	120.0
1412.11767578125	0.0	100	2892017	110	77	120	1	1	1530543.7185643	1530543.7190052	80	1530546.7930866	1530546.7935846	40	1530549.9838465	1530549.9843332	100	del	1530553.7267376	2.0	1530556.2387363	1530554.239366	1530554.2398316	120.0
1416.373046875	0.0	120	2900732	110	77	120	1	1	1530543.7185643	1530543.7190052	80	1530546.7930866	1530546.7935846	40	1530549.9838465	1530549.9843332	100	del	1530553.7267376	2.0	1530556.2387363	1530554.239366	1530554.2398316	120.0
1420.58544921875	0.0	80	2909359	111	93	15	1	0	1530558.4521919	1530558.4526473	80	1530561.9037517	1530561.9042993	40	1530564.9279219	1530564.9285195	100	del	1530566.7345409	3.0	1530568.0786329	1530567.2483007	1530567.2488311	120.0
1424.037109375	0.0	40	2916428	111	93	15	1	0	1530558.4521919	1530558.4526473	80	1530561.9037517	1530561.9042993	40	1530564.9279219	1530564.9285195	100	del	1530566.7345409	3.0	1530568.0786329	1530567.2483007	1530567.2488311	120.0
1427.06103515625	0.0	100	2922621	111	93	15	1	0	1530558.4521919	1530558.4526473	80	1530561.9037517	1530561.9042993	40	1530564.9279219	1530564.9285195	100	del	1530566.7345409	3.0	1530568.0786329	1530567.2483007	1530567.2488311	120.0
1429.38134765625	0.0	120	2927373	111	93	15	1	0	1530558.4521919	1530558.4526473	80	1530561.9037517	1530561.9042993	40	1530564.9279219	1530564.9285195	100	del	1530566.7345409	3.0	1530568.0786329	1530567.2483007	1530567.2488311	120.0
1432.64892578125	0.0	80	2934065	112	57	15	1	1	1530570.5157598	1530570.5162694	80	1530573.6692081	1530573.6696892	40	1530576.8079831	1530576.8084847	100	del	1530580.495149	2.0	1530583.6946511	1530581.0069857	1530581.0074374	120.0
1435.80224609375	0.0	40	2940523	112	57	15	1	1	1530570.5157598	1530570.5162694	80	1530573.6692081	1530573.6696892	40	1530576.8079831	1530576.8084847	100	del	1530580.495149	2.0	1530583.6946511	1530581.0069857	1530581.0074374	120.0
1438.94091796875	0.0	100	2946951	112	57	15	1	1	1530570.5157598	1530570.5162694	80	1530573.6692081	1530573.6696892	40	1530576.8079831	1530576.8084847	100	del	1530580.495149	2.0	1530583.6946511	1530581.0069857	1530581.0074374	120.0
1443.1396484375	0.0	120	2955550	112	57	15	1	1	1530570.5157598	1530570.5162694	80	1530573.6692081	1530573.6696892	40	1530576.8079831	1530576.8084847	100	del	1530580.495149	2.0	1530583.6946511	1530581.0069857	1530581.0074374	120.0
1448.0869140625	0.0	80	2965682	113	53	600	1	0	1530585.9540917	1530585.9545832	80	1530589.3259924	1530589.3265358	40	1530592.4405418	1530592.4410714	100	imm	1530594.9515274	1.0	1530598.0151765	1530595.4640142	1530595.4645342	120.0
1451.45849609375	0.0	40	2972587	113	53	600	1	0	1530585.9540917	1530585.9545832	80	1530589.3259924	1530589.3265358	40	1530592.4405418	1530592.4410714	100	imm	1530594.9515274	1.0	1530598.0151765	1530595.4640142	1530595.4645342	120.0
1454.5732421875	0.0	100	2978966	113	53	600	1	0	1530585.9540917	1530585.9545832	80	1530589.3259924	1530589.3265358	40	1530592.4405418	1530592.4410714	100	imm	1530594.9515274	1.0	1530598.0151765	1530595.4640142	1530595.4645342	120.0
1457.59619140625	0.0	120	2985157	113	53	600	1	0	1530585.9540917	1530585.9545832	80	1530589.3259924	1530589.3265358	40	1530592.4405418	1530592.4410714	100	imm	1530594.9515274	1.0	1530598.0151765	1530595.4640142	1530595.4645342	120.0
1462.271484375	0.0	80	2994732	114	57	160	0	0	1530600.1391534	1530600.1396513	80	1530603.6349841	1530603.635544	40	1530606.9443801	1530606.9448342	100	na	1530607.192127	nan	nan	nan	nan	nan
1465.76708984375	0.0	40	3001891	114	57	160	0	0	1530600.1391534	1530600.1396513	80	1530603.6349841	1530603.635544	40	1530606.9443801	1530606.9448342	100	na	1530607.192127	nan	nan	nan	nan	nan
1469.07666015625	0.0	100	3008669	114	57	160	0	0	1530600.1391534	1530600.1396513	80	1530603.6349841	1530603.635544	40	1530606.9443801	1530606.9448342	100	na	1530607.192127	nan	nan	nan	nan	nan
1471.9951171875	0.0	80	3014646	115	77	460	0	0	1530609.8631398	1530609.8641563	80	1530613.3548949	1530613.3553912	40	1530616.8161082	1530616.8166395	100	imm	1530618.91855	nan	nan	nan	nan	nan
1475.48681640625	0.0	40	3021797	115	77	460	0	0	1530609.8631398	1530609.8641563	80	1530613.3548949	1530613.3553912	40	1530616.8161082	1530616.8166395	100	imm	1530618.91855	nan	nan	nan	nan	nan
1478.94775390625	0.0	100	3028885	115	77	460	0	0	1530609.8631398	1530609.8641563	80	1530613.3548949	1530613.3553912	40	1530616.8161082	1530616.8166395	100	imm	1530618.91855	nan	nan	nan	nan	nan
1483.66357421875	0.0	80	3038543	116	73	15	1	1	1530621.5317937	1530621.5322994	80	1530624.5401364	1530624.5405724	40	1530627.9089897	1530627.9095584	100	del	1530630.8642738	2.0	1530632.6552051	1530631.3769754	1530631.3774164	120.0
1486.671875	0.0	40	3044704	116	73	15	1	1	1530621.5317937	1530621.5322994	80	1530624.5401364	1530624.5405724	40	1530627.9089897	1530627.9095584	100	del	1530630.8642738	2.0	1530632.6552051	1530631.3769754	1530631.3774164	120.0
1490.04052734375	0.0	100	3051603	116	73	15	1	1	1530621.5317937	1530621.5322994	80	1530624.5401364	1530624.5405724	40	1530627.9089897	1530627.9095584	100	del	1530630.8642738	2.0	1530632.6552051	1530631.3769754	1530631.3774164	120.0
1493.50830078125	0.0	120	3058705	116	73	15	1	1	1530621.5317937	1530621.5322994	80	1530624.5401364	1530624.5405724	40	1530627.9089897	1530627.9095584	100	del	1530630.8642738	2.0	1530632.6552051	1530631.3769754	1530631.3774164	120.0
1497.236328125	0.0	80	3066340	117	50	280	0	0	1530635.1048971	1530635.1054215	80	1530638.1716611	1530638.1721566	40	1530641.2040297	1530641.204607	100	imm	1530644.960056	nan	nan	nan	nan	nan
1500.302734375	0.0	40	3072620	117	50	280	0	0	1530635.1048971	1530635.1054215	80	1530638.1716611	1530638.1721566	40	1530641.2040297	1530641.204607	100	imm	1530644.960056	nan	nan	nan	nan	nan
1503.33544921875	0.0	100	3078831	117	50	280	0	0	1530635.1048971	1530635.1054215	80	1530638.1716611	1530638.1721566	40	1530641.2040297	1530641.204607	100	imm	1530644.960056	nan	nan	nan	nan	nan
1509.90771484375	0.0	80	3092291	118	97	790	0	0	1530647.7767058	1530647.7772252	80	1530651.08629	1530651.0867826	40	1530654.3576955	1530654.3584314	100	imm	1530659.4947468	nan	nan	nan	nan	nan
1513.21728515625	0.0	40	3099069	118	97	790	0	0	1530647.7767058	1530647.7772252	80	1530651.08629	1530651.0867826	40	1530654.3576955	1530654.3584314	100	imm	1530659.4947468	nan	nan	nan	nan	nan
1516.48828125	0.0	100	3105768	118	97	790	0	0	1530647.7767058	1530647.7772252	80	1530651.08629	1530651.0867826	40	1530654.3576955	1530654.3584314	100	imm	1530659.4947468	nan	nan	nan	nan	nan
1524.146484375	0.0	80	3121452	119	53	790	0	1	1530662.0159104	1530662.0164166	80	1530665.3681403	1530665.3686477	40	1530668.8538724	1530668.8543877	100	imm	1530669.9106554	nan	nan	nan	nan	nan
1527.49853515625	0.0	40	3128317	119	53	790	0	1	1530662.0159104	1530662.0164166	80	1530665.3681403	1530665.3686477	40	1530668.8538724	1530668.8543877	100	imm	1530669.9106554	nan	nan	nan	nan	nan
1530.984375	0.0	100	3135456	119	53	790	0	1	1530662.0159104	1530662.0164166	80	1530665.3681403	1530665.3686477	40	1530668.8538724	1530668.8543877	100	imm	1530669.9106554	nan	nan	nan	nan	nan
1534.99560546875	0.0	80	3143671	120	60	50	0	0	1530672.8652021	1530672.8656688	80	1530675.929283	1530675.9297996	40	1530679.119939	1530679.1204504	100	imm	1530681.6234924	nan	nan	nan	nan	nan
1538.0595703125	0.0	40	3149946	120	60	50	0	0	1530672.8652021	1530672.8656688	80	1530675.929283	1530675.9297996	40	1530679.119939	1530679.1204504	100	imm	1530681.6234924	nan	nan	nan	nan	nan
1541.25	0.0	100	3156480	120	60	50	0	0	1530672.8652021	1530672.8656688	80	1530675.929283	1530675.9297996	40	1530679.119939	1530679.1204504	100	imm	1530681.6234924	nan	nan	nan	nan	nan
1557.447265625	0.0	80	3189652	121	73	120	1	0	1530695.3178031	1530695.3182346	80	1530698.6071995	1530698.6076326	40	1530701.9271395	1530701.927637	100	imm	1530704.975632	1.0	1530707.4389298	1530705.4886405	1530705.4891249	120.0
1560.73681640625	0.0	40	3196389	121	73	120	1	0	1530695.3178031	1530695.3182346	80	1530698.6071995	1530698.6076326	40	1530701.9271395	1530701.927637	100	imm	1530704.975632	1.0	1530707.4389298	1530705.4886405	1530705.4891249	120.0
1564.056640625	0.0	100	3203188	121	73	120	1	0	1530695.3178031	1530695.3182346	80	1530698.6071995	1530698.6076326	40	1530701.9271395	1530701.927637	100	imm	1530704.975632	1.0	1530707.4389298	1530705.4886405	1530705.4891249	120.0
1567.6181640625	0.0	120	3210482	121	73	120	1	0	1530695.3178031	1530695.3182346	80	1530698.6071995	1530698.6076326	40	1530701.9271395	1530701.927637	100	imm	1530704.975632	1.0	1530707.4389298	1530705.4886405	1530705.4891249	120.0
1571.73388671875	0.0	80	3218911	122	63	120	1	0	1530709.6047446	1530709.6052479	80	1530713.0115008	1530713.0119656	40	1530716.4230033	1530716.4235053	100	imm	1530719.102823	2.0	1530723.3748649	1530719.6149126	1530719.6153943	120.0
1575.140625	0.0	40	3225888	122	63	120	1	0	1530709.6047446	1530709.6052479	80	1530713.0115008	1530713.0119656	40	1530716.4230033	1530716.4235053	100	imm	1530719.102823	2.0	1530723.3748649	1530719.6149126	1530719.6153943	120.0
1578.55224609375	0.0	100	3232875	122	63	120	1	0	1530709.6047446	1530709.6052479	80	1530713.0115008	1530713.0119656	40	1530716.4230033	1530716.4235053	100	imm	1530719.102823	2.0	1530723.3748649	1530719.6149126	1530719.6153943	120.0
1581.74365234375	0.0	120	3239411	122	63	120	1	0	1530709.6047446	1530709.6052479	80	1530713.0115008	1530713.0119656	40	1530716.4230033	1530716.4235053	100	imm	1530719.102823	2.0	1530723.3748649	1530719.6149126	1530719.6153943	120.0
1587.9091796875	0.0	80	3252038	123	87	350	1	0	1530725.7802743	1530725.780777	80	1530728.9636452	1530728.9642395	40	1530732.0046488	1530732.0051246	100	del	1530735.392114	2.0	1530736.5674589	1530735.9049401	1530735.9053974	120.0
1591.09228515625	0.0	40	3258557	123	87	350	1	0	1530725.7802743	1530725.780777	80	1530728.9636452	1530728.9642395	40	1530732.0046488	1530732.0051246	100	del	1530735.392114	2.0	1530736.5674589	1530735.9049401	1530735.9053974	120.0
1594.13330078125	0.0	100	3264785	123	87	350	1	0	1530725.7802743	1530725.780777	80	1530728.9636452	1530728.9642395	40	1530732.0046488	1530732.0051246	100	del	1530735.392114	2.0	1530736.5674589	1530735.9049401	1530735.9053974	120.0
1598.033203125	0.0	120	3272772	123	87	350	1	0	1530725.7802743	1530725.780777	80	1530728.9636452	1530728.9642395	40	1530732.0046488	1530732.0051246	100	del	1530735.392114	2.0	1530736.5674589	1530735.9049401	1530735.9053974	120.0
1601.06640625	0.0	80	3278984	124	70	50	0	0	1530738.938082	1530738.938571	80	1530742.4418372	1530742.442332	40	1530745.5368977	1530745.5373387	100	del	1530746.1828307	nan	nan	nan	nan	nan
1604.5703125	0.0	40	3286160	124	70	50	0	0	1530738.938082	1530738.938571	80	1530742.4418372	1530742.442332	40	1530745.5368977	1530745.5373387	100	del	1530746.1828307	nan	nan	nan	nan	nan
1607.6650390625	0.0	100	3292498	124	70	50	0	0	1530738.938082	1530738.938571	80	1530742.4418372	1530742.442332	40	1530745.5368977	1530745.5373387	100	del	1530746.1828307	nan	nan	nan	nan	nan
1610.8857421875	0.0	80	3299094	125	50	790	0	0	1530748.7577329	1530748.7582292	80	1530752.2216786	1530752.2221562	40	1530755.471584	1530755.4719064	100	imm	1530758.8229452	nan	nan	nan	nan	nan
1614.349609375	0.0	40	3306188	125	50	790	0	0	1530748.7577329	1530748.7582292	80	1530752.2216786	1530752.2221562	40	1530755.471584	1530755.4719064	100	imm	1530758.8229452	nan	nan	nan	nan	nan
1617.599609375	0.0	100	3312844	125	50	790	0	0	1530748.7577329	1530748.7582292	80	1530752.2216786	1530752.2221562	40	1530755.471584	1530755.4719064	100	imm	1530758.8229452	nan	nan	nan	nan	nan
1623.89453125	0.0	80	3325736	126	57	210	1	1	1530761.7667893	1530761.7672526	80	1530765.1798197	1530765.1803267	40	1530768.2898586	1530768.2902635	100	imm	1530771.384973	1.0	1530773.1507645	1530771.8977872	1530771.8982614	120.0
1627.3076171875	0.0	40	3332726	126	57	210	1	1	1530761.7667893	1530761.7672526	80	1530765.1798197	1530765.1803267	40	1530768.2898586	1530768.2902635	100	imm	1530771.384973	1.0	1530773.1507645	1530771.8977872	1530771.8982614	120.0
1630.41748046875	0.0	100	3339095	126	57	210	1	1	1530761.7667893	1530761.7672526	80	1530765.1798197	1530765.1803267	40	1530768.2898586	1530768.2902635	100	imm	1530771.384973	1.0	1530773.1507645	1530771.8977872	1530771.8982614	120.0
1634.025390625	0.0	120	3346484	126	57	210	1	1	1530761.7667893	1530761.7672526	80	1530765.1798197	1530765.1803267	40	1530768.2898586	1530768.2902635	100	imm	1530771.384973	1.0	1530773.1507645	1530771.8977872	1530771.8982614	120.0
1637.41748046875	0.0	80	3353431	127	97	160	0	1	1530775.2900177	1530775.2904998	80	1530778.3247406	1530778.325257	40	1530781.6436781	1530781.6441311	100	del	1530783.0948861	nan	nan	nan	nan	nan
1640.4521484375	0.0	40	3359646	127	97	160	0	1	1530775.2900177	1530775.2904998	80	1530778.3247406	1530778.325257	40	1530781.6436781	1530781.6441311	100	del	1530783.0948861	nan	nan	nan	nan	nan
1643.77099609375	0.0	100	3366443	127	97	160	0	1	1530775.2900177	1530775.2904998	80	1530778.3247406	1530778.325257	40	1530781.6436781	1530781.6441311	100	del	1530783.0948861	nan	nan	nan	nan	nan
1648.12890625	0.0	80	3375368	128	90	280	0	0	1530786.0017958	1530786.0022873	80	1530789.264977	1530789.2654491	40	1530792.2918038	1530792.2923497	100	del	1530801.1125525	nan	nan	nan	nan	nan
1651.39208984375	0.0	40	3382051	128	90	280	0	0	1530786.0017958	1530786.0022873	80	1530789.264977	1530789.2654491	40	1530792.2918038	1530792.2923497	100	del	1530801.1125525	nan	nan	nan	nan	nan
1654.4189453125	0.0	100	3388250	128	90	280	0	0	1530786.0017958	1530786.0022873	80	1530789.264977	1530789.2654491	40	1530792.2918038	1530792.2923497	100	del	1530801.1125525	nan	nan	nan	nan	nan
1666.2529296875	0.0	80	3412486	129	63	600	1	1	1530804.1263401	1530804.1268545	80	1530807.3842269	1530807.3847424	40	1530810.5643721	1530810.5649174	100	imm	1530813.3436025	1.0	1530815.6551201	1530813.8555365	1530813.8560529	120.0
1669.5107421875	0.0	40	3419158	129	63	600	1	1	1530804.1263401	1530804.1268545	80	1530807.3842269	1530807.3847424	40	1530810.5643721	1530810.5649174	100	imm	1530813.3436025	1.0	1530815.6551201	1530813.8555365	1530813.8560529	120.0
1672.69091796875	0.0	100	3425671	129	63	600	1	1	1530804.1263401	1530804.1268545	80	1530807.3842269	1530807.3847424	40	1530810.5643721	1530810.5649174	100	imm	1530813.3436025	1.0	1530815.6551201	1530813.8555365	1530813.8560529	120.0
1675.98193359375	0.0	120	3432411	129	63	600	1	1	1530804.1263401	1530804.1268545	80	1530807.3842269	1530807.3847424	40	1530810.5643721	1530810.5649174	100	imm	1530813.3436025	1.0	1530815.6551201	1530813.8555365	1530813.8560529	120.0
1679.88427734375	0.0	80	3440403	130	57	50	0	0	1530817.7582301	1530817.7587778	80	1530821.0785514	1530821.0790433	40	1530824.3796001	1530824.3801211	100	del	1530826.1594787	nan	nan	nan	nan	nan
1683.20458984375	0.0	40	3447203	130	57	50	0	0	1530817.7582301	1530817.7587778	80	1530821.0785514	1530821.0790433	40	1530824.3796001	1530824.3801211	100	del	1530826.1594787	nan	nan	nan	nan	nan
1686.505859375	0.0	100	3453964	130	57	50	0	0	1530817.7582301	1530817.7587778	80	1530821.0785514	1530821.0790433	40	1530824.3796001	1530824.3801211	100	del	1530826.1594787	nan	nan	nan	nan	nan
1691.177734375	0.0	80	3463532	131	93	280	0	0	1530829.0518025	1530829.0522716	80	1530832.1364272	1530832.1370489	40	1530835.3284065	1530835.3289224	100	del	1530840.3202503	nan	nan	nan	nan	nan
1694.26220703125	0.0	40	3469849	131	93	280	0	0	1530829.0518025	1530829.0522716	80	1530832.1364272	1530832.1370489	40	1530835.3284065	1530835.3289224	100	del	1530840.3202503	nan	nan	nan	nan	nan
1697.4541015625	0.0	100	3476386	131	93	280	0	0	1530829.0518025	1530829.0522716	80	1530832.1364272	1530832.1370489	40	1530835.3284065	1530835.3289224	100	del	1530840.3202503	nan	nan	nan	nan	nan
1705.03564453125	0.0	80	3491913	132	57	460	0	0	1530842.9102195	1530842.9106999	80	1530846.3429609	1530846.3433642	40	1530849.5251302	1530849.5256373	100	imm	1530854.6954448	nan	nan	nan	nan	nan
1708.46826171875	0.0	40	3498943	132	57	460	0	0	1530842.9102195	1530842.9106999	80	1530846.3429609	1530846.3433642	40	1530849.5251302	1530849.5256373	100	imm	1530854.6954448	nan	nan	nan	nan	nan
1711.650390625	0.0	100	3505460	132	57	460	0	0	1530842.9102195	1530842.9106999	80	1530846.3429609	1530846.3433642	40	1530849.5251302	1530849.5256373	100	imm	1530854.6954448	nan	nan	nan	nan	nan
1719.47265625	0.0	80	3521480	133	93	210	1	0	1530857.3477239	1530857.3480559	80	1530860.3581113	1530860.3585762	40	1530863.7658353	1530863.7660729	100	del	1530864.4556299	3.0	1530865.7188313	1530864.969474	1530864.9699843	120.0
1722.48291015625	0.0	40	3527645	133	93	210	1	0	1530857.3477239	1530857.3480559	80	1530860.3581113	1530860.3585762	40	1530863.7658353	1530863.7660729	100	del	1530864.4556299	3.0	1530865.7188313	1530864.969474	1530864.9699843	120.0
1725.89111328125	0.0	100	3534625	133	93	210	1	0	1530857.3477239	1530857.3480559	80	1530860.3581113	1530860.3585762	40	1530863.7658353	1530863.7660729	100	del	1530864.4556299	3.0	1530865.7188313	1530864.969474	1530864.9699843	120.0
1727.09423828125	0.0	120	3537089	133	93	210	1	0	1530857.3477239	1530857.3480559	80	1530860.3581113	1530860.3585762	40	1530863.7658353	1530863.7660729	100	del	1530864.4556299	3.0	1530865.7188313	1530864.969474	1530864.9699843	120.0
1730.1083984375	0.0	80	3543262	134	93	120	1	1	1530867.9833951	1530867.9839937	80	1530871.259876	1530871.2603798	40	1530874.7103938	1530874.710872	100	del	1530876.4715984	3.0	1530877.2548072	1530876.984738	1530876.985254	120.0
1733.384765625	0.0	40	3549972	134	93	120	1	1	1530867.9833951	1530867.9839937	80	1530871.259876	1530871.2603798	40	1530874.7103938	1530874.710872	100	del	1530876.4715984	3.0	1530877.2548072	1530876.984738	1530876.985254	120.0
1736.8349609375	0.0	100	3557038	134	93	120	1	1	1530867.9833951	1530867.9839937	80	1530871.259876	1530871.2603798	40	1530874.7103938	1530874.710872	100	del	1530876.4715984	3.0	1530877.2548072	1530876.984738	1530876.985254	120.0
1739.109375	0.0	120	3561696	134	93	120	1	1	1530867.9833951	1530867.9839937	80	1530871.259876	1530871.2603798	40	1530874.7103938	1530874.710872	100	del	1530876.4715984	3.0	1530877.2548072	1530876.984738	1530876.985254	120.0
1741.7568359375	0.0	80	3567118	135	50	350	1	0	1530879.6320958	1530879.6325658	80	1530882.9713611	1530882.9715488	40	1530886.0734473	1530886.0739789	100	na	1530890.0868188	1.0	1530892.8157591	1530890.6002145	1530890.6007288	120.0
1745.09619140625	0.0	40	3573957	135	50	350	1	0	1530879.6320958	1530879.6325658	80	1530882.9713611	1530882.9715488	40	1530886.0734473	1530886.0739789	100	na	1530890.0868188	1.0	1530892.8157591	1530890.6002145	1530890.6007288	120.0
1748.19775390625	0.0	100	3580309	135	50	350	1	0	1530879.6320958	1530879.6325658	80	1530882.9713611	1530882.9715488	40	1530886.0734473	1530886.0739789	100	na	1530890.0868188	1.0	1530892.8157591	1530890.6002145	1530890.6007288	120.0
1752.724609375	0.0	120	3589580	135	50	350	1	0	1530879.6320958	1530879.6325658	80	1530882.9713611	1530882.9715488	40	1530886.0734473	1530886.0739789	100	na	1530890.0868188	1.0	1530892.8157591	1530890.6002145	1530890.6007288	120.0
1757.23046875	0.0	80	3598808	136	93	350	1	0	1530895.1065704	1530895.1070965	80	1530898.5938548	1530898.594271	40	1530901.9060693	1530901.9065871	100	del	1530911.6956464	3.0	1530912.7432288	1530912.2080522	1530912.2085496	120.0
1760.7177734375	0.0	40	3605950	136	93	350	1	0	1530895.1065704	1530895.1070965	80	1530898.5938548	1530898.594271	40	1530901.9060693	1530901.9065871	100	del	1530911.6956464	3.0	1530912.7432288	1530912.2080522	1530912.2085496	120.0
