onset	duration	value	sample	trial_idx	val	del	is_cued	rev_opts	del_pres_displaytime	del_pres_triggertime	del_pres_triggercode	val_pres_displaytime	val_pres_triggertime	val_pres_triggercode	choice_displaytime	choice_triggertime	choice_triggercode	choice	choice_time	viv_displaytime	viv_triggertime	viv_triggercode	viv	viv_time
39.23779296875	0.0	80	80359	1	97	800	1	0	1937408.9344714	1937408.9362812	80	1937412.137146	1937412.1381237	40	1937415.266051	1937415.266897	100	imm	1937416.7980217	1937417.3196156	1937417.3204818	120.0	2.0	1937421.4143927
42.4404296875	0.0	40	86918	1	97	800	1	0	1937408.9344714	1937408.9362812	80	1937412.137146	1937412.1381237	40	1937415.266051	1937415.266897	100	imm	1937416.7980217	1937417.3196156	1937417.3204818	120.0	2.0	1937421.4143927
45.5693359375	0.0	100	93326	1	97	800	1	0	1937408.9344714	1937408.9362812	80	1937412.137146	1937412.1381237	40	1937415.266051	1937415.266897	100	imm	1937416.7980217	1937417.3196156	1937417.3204818	120.0	2.0	1937421.4143927
47.62255859375	0.0	120	97531	1	97	800	1	0	1937408.9344714	1937408.9362812	80	1937412.137146	1937412.1381237	40	1937415.266051	1937415.266897	100	imm	1937416.7980217	1937417.3196156	1937417.3204818	120.0	2.0	1937421.4143927
53.98046875	0.0	80	110552	2	83	560	0	1	1937423.6777418	1937423.6784883	80	1937426.8566916	1937426.8578448	40	1937430.3477903	1937430.3485245	100	del	1937433.0862281	nan	nan	nan	nan	nan
57.15966796875	0.0	40	117063	2	83	560	0	1	1937423.6777418	1937423.6784883	80	1937426.8566916	1937426.8578448	40	1937430.3477903	1937430.3485245	100	del	1937433.0862281	nan	nan	nan	nan	nan
60.650390625	0.0	100	124212	2	83	560	0	1	1937423.6777418	1937423.6784883	80	1937426.8566916	1937426.8578448	40	1937430.3477903	1937430.3485245	100	del	1937433.0862281	nan	nan	nan	nan	nan
66.37353515625	0.0	80	135933	3	53	260	0	0	1937436.0708784	1937436.0719459	80	1937439.1071681	1937439.1078118	40	1937442.4905624	1937442.4914498	100	imm	1937443.9196687	nan	nan	nan	nan	nan
69.41015625	0.0	40	142152	3	53	260	0	0	1937436.0708784	1937436.0719459	80	1937439.1071681	1937439.1078118	40	1937442.4905624	1937442.4914498	100	imm	1937443.9196687	nan	nan	nan	nan	nan
72.79296875	0.0	100	149080	3	53	260	0	0	1937436.0708784	1937436.0719459	80	1937439.1071681	1937439.1078118	40	1937442.4905624	1937442.4914498	100	imm	1937443.9196687	nan	nan	nan	nan	nan
76.876953125	0.0	80	157444	4	63	390	1	1	1937446.5746028	1937446.5753801	80	1937449.7948545	1937449.7955824	40	1937453.083089	1937453.0838339	100	del	1937455.4781468	1937455.9929564	1937455.9937237	120.0	3.0	1937459.9422143
80.09716796875	0.0	40	164039	4	63	390	1	1	1937446.5746028	1937446.5753801	80	1937449.7948545	1937449.7955824	40	1937453.083089	1937453.0838339	100	del	1937455.4781468	1937455.9929564	1937455.9937237	120.0	3.0	1937459.9422143
83.38525390625	0.0	100	170773	4	63	390	1	1	1937446.5746028	1937446.5753801	80	1937449.7948545	1937449.7955824	40	1937453.083089	1937453.0838339	100	del	1937455.4781468	1937455.9929564	1937455.9937237	120.0	3.0	1937459.9422143
86.294921875	0.0	120	176732	4	63	390	1	1	1937446.5746028	1937446.5753801	80	1937449.7948545	1937449.7955824	40	1937453.083089	1937453.0838339	100	del	1937455.4781468	1937455.9929564	1937455.9937237	120.0	3.0	1937459.9422143
92.740234375	0.0	80	189932	5	83	170	1	1	1937462.4382126	1937462.4408532	80	1937465.6623255	1937465.6649669	40	1937469.1758269	1937469.1784819	100	del	1937472.2716932	1937472.7877675	1937472.7885826	120.0	2.0	1937475.6545615
95.96435546875	0.0	40	196535	5	83	170	1	1	1937462.4382126	1937462.4408532	80	1937465.6623255	1937465.6649669	40	1937469.1758269	1937469.1784819	100	del	1937472.2716932	1937472.7877675	1937472.7885826	120.0	2.0	1937475.6545615
99.47802734375	0.0	100	203731	5	83	170	1	1	1937462.4382126	1937462.4408532	80	1937465.6623255	1937465.6649669	40	1937469.1758269	1937469.1784819	100	del	1937472.2716932	1937472.7877675	1937472.7885826	120.0	2.0	1937475.6545615
103.08935546875	0.0	120	211127	5	83	170	1	1	1937462.4382126	1937462.4408532	80	1937465.6623255	1937465.6649669	40	1937469.1758269	1937469.1784819	100	del	1937472.2716932	1937472.7877675	1937472.7885826	120.0	2.0	1937475.6545615
108.12890625	0.0	80	221448	6	100	390	1	1	1937477.8271734	1937477.8278434	80	1937481.1854203	1937481.1861599	40	1937484.5325513	1937484.533073	100	del	1937486.4312361	1937486.9451217	1937486.9458202	120.0	2.0	1937489.1025461
111.48681640625	0.0	40	228325	6	100	390	1	1	1937477.8271734	1937477.8278434	80	1937481.1854203	1937481.1861599	40	1937484.5325513	1937484.533073	100	del	1937486.4312361	1937486.9451217	1937486.9458202	120.0	2.0	1937489.1025461
114.833984375	0.0	100	235180	6	100	390	1	1	1937477.8271734	1937477.8278434	80	1937481.1854203	1937481.1861599	40	1937484.5325513	1937484.533073	100	del	1937486.4312361	1937486.9451217	1937486.9458202	120.0	2.0	1937489.1025461
117.24658203125	0.0	120	240121	6	100	390	1	1	1937477.8271734	1937477.8278434	80	1937481.1854203	1937481.1861599	40	1937484.5325513	1937484.533073	100	del	1937486.4312361	1937486.9451217	1937486.9458202	120.0	2.0	1937489.1025461
121.68896484375	0.0	80	249219	7	97	390	1	0	1937491.3876725	1937491.3880806	80	1937494.7442967	1937494.7447981	40	1937498.0949971	1937498.0954707	100	imm	1937499.9834035	1937500.4981402	1937500.5011994	120.0	3.0	1937502.3498692
125.04541015625	0.0	40	256093	7	97	390	1	0	1937491.3876725	1937491.3880806	80	1937494.7442967	1937494.7447981	40	1937498.0949971	1937498.0954707	100	imm	1937499.9834035	1937500.4981402	1937500.5011994	120.0	3.0	1937502.3498692
128.39599609375	0.0	100	262955	7	97	390	1	0	1937491.3876725	1937491.3880806	80	1937494.7442967	1937494.7447981	40	1937498.0949971	1937498.0954707	100	imm	1937499.9834035	1937500.4981402	1937500.5011994	120.0	3.0	1937502.3498692
130.79931640625	0.0	120	267877	7	97	390	1	0	1937491.3876725	1937491.3880806	80	1937494.7442967	1937494.7447981	40	1937498.0949971	1937498.0954707	100	imm	1937499.9834035	1937500.4981402	1937500.5011994	120.0	3.0	1937502.3498692
134.7578125	0.0	80	275984	8	83	800	1	1	1937504.4569284	1937504.4574101	80	1937507.5283547	1937507.5288195	40	1937511.0447858	1937511.0452098	100	del	1937512.6470548	1937513.1610594	1937513.1616038	120.0	2.0	1937515.4705283
137.8291015625	0.0	40	282274	8	83	800	1	1	1937504.4569284	1937504.4574101	80	1937507.5283547	1937507.5288195	40	1937511.0447858	1937511.0452098	100	del	1937512.6470548	1937513.1610594	1937513.1616038	120.0	2.0	1937515.4705283
141.345703125	0.0	100	289476	8	83	800	1	1	1937504.4569284	1937504.4574101	80	1937507.5283547	1937507.5288195	40	1937511.0447858	1937511.0452098	100	del	1937512.6470548	1937513.1610594	1937513.1616038	120.0	2.0	1937515.4705283
143.4619140625	0.0	120	293810	8	83	800	1	1	1937504.4569284	1937504.4574101	80	1937507.5283547	1937507.5288195	40	1937511.0447858	1937511.0452098	100	del	1937512.6470548	1937513.1610594	1937513.1616038	120.0	2.0	1937515.4705283
147.87255859375	0.0	80	302843	9	100	560	0	0	1937517.5720392	1937517.5725191	80	1937520.5959677	1937520.5965835	40	1937523.8899194	1937523.8903729	100	del	1937527.3415471	nan	nan	nan	nan	nan
150.896484375	0.0	40	309036	9	100	560	0	0	1937517.5720392	1937517.5725191	80	1937520.5959677	1937520.5965835	40	1937523.8899194	1937523.8903729	100	del	1937527.3415471	nan	nan	nan	nan	nan
154.1904296875	0.0	100	315782	9	100	560	0	0	1937517.5720392	1937517.5725191	80	1937520.5959677	1937520.5965835	40	1937523.8899194	1937523.8903729	100	del	1937527.3415471	nan	nan	nan	nan	nan
160.60302734375	0.0	80	328915	10	70	50	0	1	1937530.3027746	1937530.3032215	80	1937533.6460857	1937533.6466065	40	1937536.7545795	1937536.7550523	100	del	1937538.5982184	nan	nan	nan	nan	nan
163.9462890625	0.0	40	335762	10	70	50	0	1	1937530.3027746	1937530.3032215	80	1937533.6460857	1937533.6466065	40	1937536.7545795	1937536.7550523	100	del	1937538.5982184	nan	nan	nan	nan	nan
167.0546875	0.0	100	342128	10	70	50	0	1	1937530.3027746	1937530.3032215	80	1937533.6460857	1937533.6466065	40	1937536.7545795	1937536.7550523	100	del	1937538.5982184	nan	nan	nan	nan	nan
171.60107421875	0.0	80	351439	11	73	800	1	1	1937541.3008085	1937541.3012554	80	1937544.5385992	1937544.5390882	40	1937548.0429488	1937548.0436335	100	imm	1937550.1578863	1937550.6710023	1937550.6714599	120.0	3.0	1937552.6226425
174.83837890625	0.0	40	358069	11	73	800	1	1	1937541.3008085	1937541.3012554	80	1937544.5385992	1937544.5390882	40	1937548.0429488	1937548.0436335	100	imm	1937550.1578863	1937550.6710023	1937550.6714599	120.0	3.0	1937552.6226425
178.34326171875	0.0	100	365247	11	73	800	1	1	1937541.3008085	1937541.3012554	80	1937544.5385992	1937544.5390882	40	1937548.0429488	1937548.0436335	100	imm	1937550.1578863	1937550.6710023	1937550.6714599	120.0	3.0	1937552.6226425
180.970703125	0.0	120	370628	11	73	800	1	1	1937541.3008085	1937541.3012554	80	1937544.5385992	1937544.5390882	40	1937548.0429488	1937548.0436335	100	imm	1937550.1578863	1937550.6710023	1937550.6714599	120.0	3.0	1937552.6226425
185.01708984375	0.0	80	378915	12	50	170	1	1	1937554.7175245	1937554.7179834	80	1937558.1514736	1937558.1518304	40	1937561.486743	1937561.4871992	100	imm	1937563.6777647	1937564.1926335	1937564.1930916	120.0	3.0	1937567.447736
188.451171875	0.0	40	385948	12	50	170	1	1	1937554.7175245	1937554.7179834	80	1937558.1514736	1937558.1518304	40	1937561.486743	1937561.4871992	100	imm	1937563.6777647	1937564.1926335	1937564.1930916	120.0	3.0	1937567.447736
191.7861328125	0.0	100	392778	12	50	170	1	1	1937554.7175245	1937554.7179834	80	1937558.1514736	1937558.1518304	40	1937561.486743	1937561.4871992	100	imm	1937563.6777647	1937564.1926335	1937564.1930916	120.0	3.0	1937567.447736
194.4921875	0.0	120	398320	12	50	170	1	1	1937554.7175245	1937554.7179834	80	1937558.1514736	1937558.1518304	40	1937561.486743	1937561.4871992	100	imm	1937563.6777647	1937564.1926335	1937564.1930916	120.0	3.0	1937567.447736
199.9521484375	0.0	80	409502	13	50	1150	0	1	1937569.6530091	1937569.6534827	80	1937572.7544054	1937572.7547362	40	1937575.9755667	1937575.975754	100	imm	1937577.6540132	nan	nan	nan	nan	nan
203.0537109375	0.0	40	415854	13	50	1150	0	1	1937569.6530091	1937569.6534827	80	1937572.7544054	1937572.7547362	40	1937575.9755667	1937575.975754	100	imm	1937577.6540132	nan	nan	nan	nan	nan
206.275390625	0.0	100	422452	13	50	1150	0	1	1937569.6530091	1937569.6534827	80	1937572.7544054	1937572.7547362	40	1937575.9755667	1937575.975754	100	imm	1937577.6540132	nan	nan	nan	nan	nan
210.705078125	0.0	80	431524	14	90	170	1	1	1937580.406197	1937580.4064427	80	1937583.4708349	1937583.4711308	40	1937586.7788145	1937586.7793008	100	del	1937588.7422591	1937589.2561519	1937589.2566909	120.0	2.0	1937590.901644
213.77001953125	0.0	40	437801	14	90	170	1	1	1937580.406197	1937580.4064427	80	1937583.4708349	1937583.4711308	40	1937586.7788145	1937586.7793008	100	del	1937588.7422591	1937589.2561519	1937589.2566909	120.0	2.0	1937590.901644
217.07763671875	0.0	100	444575	14	90	170	1	1	1937580.406197	1937580.4064427	80	1937583.4708349	1937583.4711308	40	1937586.7788145	1937586.7793008	100	del	1937588.7422591	1937589.2561519	1937589.2566909	120.0	2.0	1937590.901644
219.55517578125	0.0	120	449649	14	90	170	1	1	1937580.406197	1937580.4064427	80	1937583.4708349	1937583.4711308	40	1937586.7788145	1937586.7793008	100	del	1937588.7422591	1937589.2561519	1937589.2566909	120.0	2.0	1937590.901644
223.33056640625	0.0	80	457381	15	100	1150	0	1	1937593.0317842	1937593.0322876	80	1937596.2316692	1937596.2321598	40	1937599.5364321	1937599.5369362	100	imm	1937601.2299726	nan	nan	nan	nan	nan
226.5302734375	0.0	40	463934	15	100	1150	0	1	1937593.0317842	1937593.0322876	80	1937596.2316692	1937596.2321598	40	1937599.5364321	1937599.5369362	100	imm	1937601.2299726	nan	nan	nan	nan	nan
229.8349609375	0.0	100	470702	15	100	1150	0	1	1937593.0317842	1937593.0322876	80	1937596.2316692	1937596.2321598	40	1937599.5364321	1937599.5369362	100	imm	1937601.2299726	nan	nan	nan	nan	nan
234.1728515625	0.0	80	479586	16	100	170	1	1	1937603.8744155	1937603.8748719	80	1937607.0271154	1937607.0276123	40	1937610.3486929	1937610.349166	100	del	1937612.5739032	1937613.0873276	1937613.0878193	120.0	2.0	1937615.5188384
237.32568359375	0.0	40	486043	16	100	170	1	1	1937603.8744155	1937603.8748719	80	1937607.0271154	1937607.0276123	40	1937610.3486929	1937610.349166	100	del	1937612.5739032	1937613.0873276	1937613.0878193	120.0	2.0	1937615.5188384
240.64697265625	0.0	100	492845	16	100	170	1	1	1937603.8744155	1937603.8748719	80	1937607.0271154	1937607.0276123	40	1937610.3486929	1937610.349166	100	del	1937612.5739032	1937613.0873276	1937613.0878193	120.0	2.0	1937615.5188384
243.3857421875	0.0	120	498454	16	100	170	1	1	1937603.8744155	1937603.8748719	80	1937607.0271154	1937607.0276123	40	1937610.3486929	1937610.349166	100	del	1937612.5739032	1937613.0873276	1937613.0878193	120.0	2.0	1937615.5188384
247.9658203125	0.0	80	507834	17	80	130	0	1	1937617.667422	1937617.6678947	80	1937621.08761	1937621.0881713	40	1937624.5925133	1937624.5930219	100	imm	1937625.6454313	nan	nan	nan	nan	nan
251.3857421875	0.0	40	514838	17	80	130	0	1	1937617.667422	1937617.6678947	80	1937621.08761	1937621.0881713	40	1937624.5925133	1937624.5930219	100	imm	1937625.6454313	nan	nan	nan	nan	nan
254.890625	0.0	100	522016	17	80	130	0	1	1937617.667422	1937617.6678947	80	1937621.08761	1937621.0881713	40	1937624.5925133	1937624.5930219	100	imm	1937625.6454313	nan	nan	nan	nan	nan
258.8271484375	0.0	80	530078	18	93	130	0	1	1937628.5292097	1937628.5296037	80	1937631.7062107	1937631.706355	40	1937635.0107445	1937635.0112611	100	imm	1937636.4555313	nan	nan	nan	nan	nan
262.00439453125	0.0	40	536585	18	93	130	0	1	1937628.5292097	1937628.5296037	80	1937631.7062107	1937631.706355	40	1937635.0107445	1937635.0112611	100	imm	1937636.4555313	nan	nan	nan	nan	nan
265.30859375	0.0	100	543352	18	93	130	0	1	1937628.5292097	1937628.5296037	80	1937631.7062107	1937631.706355	40	1937635.0107445	1937635.0112611	100	imm	1937636.4555313	nan	nan	nan	nan	nan
269.32470703125	0.0	80	551577	19	73	1150	0	1	1937639.0271497	1937639.0276281	80	1937642.4879675	1937642.4884043	40	1937645.9409024	1937645.9414557	100	imm	1937647.0298473	nan	nan	nan	nan	nan
272.78564453125	0.0	40	558665	19	73	1150	0	1	1937639.0271497	1937639.0276281	80	1937642.4879675	1937642.4884043	40	1937645.9409024	1937645.9414557	100	imm	1937647.0298473	nan	nan	nan	nan	nan
276.23828125	0.0	100	565736	19	73	1150	0	1	1937639.0271497	1937639.0276281	80	1937642.4879675	1937642.4884043	40	1937645.9409024	1937645.9414557	100	imm	1937647.0298473	nan	nan	nan	nan	nan
280.25537109375	0.0	80	573963	20	97	170	1	0	1937649.9577513	1937649.958226	80	1937653.0932698	1937653.0934879	40	1937656.4047283	1937656.405262	100	del	1937658.6057544	1937659.1198943	1937659.1204426	120.0	2.0	1937660.4794122
283.39111328125	0.0	40	580385	20	97	170	1	0	1937649.9577513	1937649.958226	80	1937653.0932698	1937653.0934879	40	1937656.4047283	1937656.405262	100	del	1937658.6057544	1937659.1198943	1937659.1204426	120.0	2.0	1937660.4794122
286.7021484375	0.0	100	587166	20	97	170	1	0	1937649.9577513	1937649.958226	80	1937653.0932698	1937653.0934879	40	1937656.4047283	1937656.405262	100	del	1937658.6057544	1937659.1198943	1937659.1204426	120.0	2.0	1937660.4794122
289.4169921875	0.0	120	592726	20	97	170	1	0	1937649.9577513	1937649.958226	80	1937653.0932698	1937653.0934879	40	1937656.4047283	1937656.405262	100	del	1937658.6057544	1937659.1198943	1937659.1204426	120.0	2.0	1937660.4794122
304.423828125	0.0	80	623460	21	57	1150	0	1	1937674.1269584	1937674.1274364	80	1937677.347626	1937677.348107	40	1937680.5173458	1937680.5181013	100	imm	1937682.0541152	nan	nan	nan	nan	nan
307.64453125	0.0	40	630056	21	57	1150	0	1	1937674.1269584	1937674.1274364	80	1937677.347626	1937677.348107	40	1937680.5173458	1937680.5181013	100	imm	1937682.0541152	nan	nan	nan	nan	nan
310.81396484375	0.0	100	636547	21	57	1150	0	1	1937674.1269584	1937674.1274364	80	1937677.347626	1937677.348107	40	1937680.5173458	1937680.5181013	100	imm	1937682.0541152	nan	nan	nan	nan	nan
314.953125	0.0	80	645024	22	100	800	1	1	1937684.6565649	1937684.6570279	80	1937687.753616	1937687.7541416	40	1937690.9785931	1937690.9790583	100	imm	1937693.4301708	1937693.9442825	1937693.9448287	120.0	3.0	1937695.2382467
318.05029296875	0.0	40	651367	22	100	800	1	1	1937684.6565649	1937684.6570279	80	1937687.753616	1937687.7541416	40	1937690.9785931	1937690.9790583	100	imm	1937693.4301708	1937693.9442825	1937693.9448287	120.0	3.0	1937695.2382467
321.27490234375	0.0	100	657971	22	100	800	1	1	1937684.6565649	1937684.6570279	80	1937687.753616	1937687.7541416	40	1937690.9785931	1937690.9790583	100	imm	1937693.4301708	1937693.9442825	1937693.9448287	120.0	3.0	1937695.2382467
324.24072265625	0.0	120	664045	22	100	800	1	1	1937684.6565649	1937684.6570279	80	1937687.753616	1937687.7541416	40	1937690.9785931	1937690.9790583	100	imm	1937693.4301708	1937693.9442825	1937693.9448287	120.0	3.0	1937695.2382467
327.59765625	0.0	80	670920	23	87	560	0	1	1937697.3015418	1937697.3019964	80	1937700.6101738	1937700.6106506	40	1937703.8598966	1937703.8603295	100	imm	1937705.8472816	nan	nan	nan	nan	nan
330.90625	0.0	40	677696	23	87	560	0	1	1937697.3015418	1937697.3019964	80	1937700.6101738	1937700.6106506	40	1937703.8598966	1937703.8603295	100	imm	1937705.8472816	nan	nan	nan	nan	nan
334.15576171875	0.0	100	684351	23	87	560	0	1	1937697.3015418	1937697.3019964	80	1937700.6101738	1937700.6106506	40	1937703.8598966	1937703.8603295	100	imm	1937705.8472816	nan	nan	nan	nan	nan
339.00927734375	0.0	80	694291	24	63	130	0	1	1937708.7134778	1937708.7139316	80	1937712.0709946	1937712.0715169	40	1937715.4046003	1937715.4051773	100	del	1937716.8858869	nan	nan	nan	nan	nan
342.36669921875	0.0	40	701167	24	63	130	0	1	1937708.7134778	1937708.7139316	80	1937712.0709946	1937712.0715169	40	1937715.4046003	1937715.4051773	100	del	1937716.8858869	nan	nan	nan	nan	nan
345.7001953125	0.0	100	707994	24	63	130	0	1	1937708.7134778	1937708.7139316	80	1937712.0709946	1937712.0715169	40	1937715.4046003	1937715.4051773	100	del	1937716.8858869	nan	nan	nan	nan	nan
349.71533203125	0.0	80	716217	25	77	800	1	0	1937719.4198458	1937719.4203126	80	1937722.4624682	1937722.4629179	40	1937725.6353633	1937725.6358359	100	imm	1937727.0614005	1937727.5751615	1937727.5756536	120.0	2.0	1937729.4457558
352.75830078125	0.0	40	722449	25	77	800	1	0	1937719.4198458	1937719.4203126	80	1937722.4624682	1937722.4629179	40	1937725.6353633	1937725.6358359	100	imm	1937727.0614005	1937727.5751615	1937727.5756536	120.0	2.0	1937729.4457558
355.9306640625	0.0	100	728946	25	77	800	1	0	1937719.4198458	1937719.4203126	80	1937722.4624682	1937722.4629179	40	1937725.6353633	1937725.6358359	100	imm	1937727.0614005	1937727.5751615	1937727.5756536	120.0	2.0	1937729.4457558
357.87060546875	0.0	120	732919	25	77	800	1	0	1937719.4198458	1937719.4203126	80	1937722.4624682	1937722.4629179	40	1937725.6353633	1937725.6358359	100	imm	1937727.0614005	1937727.5751615	1937727.5756536	120.0	2.0	1937729.4457558
362.02294921875	0.0	80	741423	26	80	390	1	1	1937731.727417	1937731.7278962	80	1937735.0621367	1937735.0626298	40	1937738.2798677	1937738.2804015	100	del	1937740.2133331	1937740.7270769	1937740.727543	120.0	3.0	1937742.8372653
365.357421875	0.0	40	748252	26	80	390	1	1	1937731.727417	1937731.7278962	80	1937735.0621367	1937735.0626298	40	1937738.2798677	1937738.2804015	100	del	1937740.2133331	1937740.7270769	1937740.727543	120.0	3.0	1937742.8372653
368.5751953125	0.0	100	754842	26	80	390	1	1	1937731.727417	1937731.7278962	80	1937735.0621367	1937735.0626298	40	1937738.2798677	1937738.2804015	100	del	1937740.2133331	1937740.7270769	1937740.727543	120.0	3.0	1937742.8372653
371.0224609375	0.0	120	759854	26	80	390	1	1	1937731.727417	1937731.7278962	80	1937735.0621367	1937735.0626298	40	1937738.2798677	1937738.2804015	100	del	1937740.2133331	1937740.7270769	1937740.727543	120.0	3.0	1937742.8372653
375.56103515625	0.0	80	769149	27	63	50	0	0	1937745.2659162	1937745.2663278	80	1937748.6326628	1937748.6330889	40	1937752.1261587	1937752.126469	100	del	1937754.6061412	nan	nan	nan	nan	nan
378.927734375	0.0	40	776044	27	63	50	0	0	1937745.2659162	1937745.2663278	80	1937748.6326628	1937748.6330889	40	1937752.1261587	1937752.126469	100	del	1937754.6061412	nan	nan	nan	nan	nan
382.4208984375	0.0	100	783198	27	63	50	0	0	1937745.2659162	1937745.2663278	80	1937748.6326628	1937748.6330889	40	1937752.1261587	1937752.126469	100	del	1937754.6061412	nan	nan	nan	nan	nan
387.68408203125	0.0	80	793977	28	73	130	0	0	1937757.3895267	1937757.3899893	80	1937760.5596179	1937760.5600749	40	1937763.6263996	1937763.6268559	100	del	1937764.3418722	nan	nan	nan	nan	nan
390.8544921875	0.0	40	800470	28	73	130	0	0	1937757.3895267	1937757.3899893	80	1937760.5596179	1937760.5600749	40	1937763.6263996	1937763.6268559	100	del	1937764.3418722	nan	nan	nan	nan	nan
393.9208984375	0.0	100	806750	28	73	130	0	0	1937757.3895267	1937757.3899893	80	1937760.5596179	1937760.5600749	40	1937763.6263996	1937763.6268559	100	del	1937764.3418722	nan	nan	nan	nan	nan
397.46044921875	0.0	80	813999	29	60	50	0	0	1937767.1655267	1937767.1662586	80	1937770.5626295	1937770.5630116	40	1937773.788342	1937773.7888677	100	del	1937774.9016272	nan	nan	nan	nan	nan
400.85693359375	0.0	40	820955	29	60	50	0	0	1937767.1655267	1937767.1662586	80	1937770.5626295	1937770.5630116	40	1937773.788342	1937773.7888677	100	del	1937774.9016272	nan	nan	nan	nan	nan
404.08251953125	0.0	100	827561	29	60	50	0	0	1937767.1655267	1937767.1662586	80	1937770.5626295	1937770.5630116	40	1937773.788342	1937773.7888677	100	del	1937774.9016272	nan	nan	nan	nan	nan
407.75830078125	0.0	80	835089	30	60	130	0	1	1937777.4641839	1937777.4646735	80	1937780.6055033	1937780.6059127	40	1937783.6953473	1937783.695896	100	imm	1937785.3978065	nan	nan	nan	nan	nan
410.89990234375	0.0	40	841523	30	60	130	0	1	1937777.4641839	1937777.4646735	80	1937780.6055033	1937780.6059127	40	1937783.6953473	1937783.695896	100	imm	1937785.3978065	nan	nan	nan	nan	nan
413.9892578125	0.0	100	847850	30	60	130	0	1	1937777.4641839	1937777.4646735	80	1937780.6055033	1937780.6059127	40	1937783.6953473	1937783.695896	100	imm	1937785.3978065	nan	nan	nan	nan	nan
418.3505859375	0.0	80	856782	31	60	560	0	1	1937788.0568088	1937788.0572981	80	1937791.2853109	1937791.2857788	40	1937794.5619298	1937794.5624317	100	imm	1937796.7975512	nan	nan	nan	nan	nan
421.5791015625	0.0	40	863394	31	60	560	0	1	1937788.0568088	1937788.0572981	80	1937791.2853109	1937791.2857788	40	1937794.5619298	1937794.5624317	100	imm	1937796.7975512	nan	nan	nan	nan	nan
424.85595703125	0.0	100	870105	31	60	560	0	1	1937788.0568088	1937788.0572981	80	1937791.2853109	1937791.2857788	40	1937794.5619298	1937794.5624317	100	imm	1937796.7975512	nan	nan	nan	nan	nan
429.83740234375	0.0	80	880307	32	53	90	1	1	1937799.543455	1937799.543988	80	1937802.9890571	1937802.989464	40	1937806.2612797	1937806.2619175	100	del	1937807.5816353	1937808.0952839	1937808.0957928	120.0	3.0	1937810.0950717
433.28271484375	0.0	40	887363	32	53	90	1	1	1937799.543455	1937799.543988	80	1937802.9890571	1937802.989464	40	1937806.2612797	1937806.2619175	100	del	1937807.5816353	1937808.0952839	1937808.0957928	120.0	3.0	1937810.0950717
436.5546875	0.0	100	894064	32	53	90	1	1	1937799.543455	1937799.543988	80	1937802.9890571	1937802.989464	40	1937806.2612797	1937806.2619175	100	del	1937807.5816353	1937808.0952839	1937808.0957928	120.0	3.0	1937810.0950717
438.388671875	0.0	120	897820	32	53	90	1	1	1937799.543455	1937799.543988	80	1937802.9890571	1937802.989464	40	1937806.2612797	1937806.2619175	100	del	1937807.5816353	1937808.0952839	1937808.0957928	120.0	3.0	1937810.0950717
442.87890625	0.0	80	907016	33	93	90	1	0	1937812.5854372	1937812.5858784	80	1937815.913046	1937815.9135147	40	1937819.4055776	1937819.4061205	100	del	1937821.6056407	1937822.1190858	1937822.11953	120.0	3.0	1937823.1266652
446.20654296875	0.0	40	913831	33	93	90	1	0	1937812.5854372	1937812.5858784	80	1937815.913046	1937815.9135147	40	1937819.4055776	1937819.4061205	100	del	1937821.6056407	1937822.1190858	1937822.11953	120.0	3.0	1937823.1266652
449.69873046875	0.0	100	920983	33	93	90	1	0	1937812.5854372	1937812.5858784	80	1937815.913046	1937815.9135147	40	1937819.4055776	1937819.4061205	100	del	1937821.6056407	1937822.1190858	1937822.11953	120.0	3.0	1937823.1266652
452.412109375	0.0	120	926540	33	93	90	1	0	1937812.5854372	1937812.5858784	80	1937815.913046	1937815.9135147	40	1937819.4055776	1937819.4061205	100	del	1937821.6056407	1937822.1190858	1937822.11953	120.0	3.0	1937823.1266652
455.5556640625	0.0	80	932978	34	63	90	1	0	1937825.2627671	1937825.2632199	80	1937828.608198	1937828.6086913	40	1937831.7669609	1937831.767486	100	del	1937832.9415161	1937833.454622	1937833.4550782	120.0	4.0	1937836.5669926
458.9013671875	0.0	40	939830	34	63	90	1	0	1937825.2627671	1937825.2632199	80	1937828.608198	1937828.6086913	40	1937831.7669609	1937831.767486	100	del	1937832.9415161	1937833.454622	1937833.4550782	120.0	4.0	1937836.5669926
462.06005859375	0.0	100	946299	34	63	90	1	0	1937825.2627671	1937825.2632199	80	1937828.608198	1937828.6086913	40	1937831.7669609	1937831.767486	100	del	1937832.9415161	1937833.454622	1937833.4550782	120.0	4.0	1937836.5669926
463.74755859375	0.0	120	949755	34	63	90	1	0	1937825.2627671	1937825.2632199	80	1937828.608198	1937828.6086913	40	1937831.7669609	1937831.767486	100	del	1937832.9415161	1937833.454622	1937833.4550782	120.0	4.0	1937836.5669926
469.21240234375	0.0	80	960947	35	67	90	1	0	1937838.9197465	1937838.9202396	80	1937842.2757662	1937842.2764488	40	1937845.3233782	1937845.3239616	100	del	1937848.4692415	1937848.9826459	1937848.9831722	120.0	3.0	1937850.5252761
472.56884765625	0.0	40	967821	35	67	90	1	0	1937838.9197465	1937838.9202396	80	1937842.2757662	1937842.2764488	40	1937845.3233782	1937845.3239616	100	del	1937848.4692415	1937848.9826459	1937848.9831722	120.0	3.0	1937850.5252761
475.6162109375	0.0	100	974062	35	67	90	1	0	1937838.9197465	1937838.9202396	80	1937842.2757662	1937842.2764488	40	1937845.3233782	1937845.3239616	100	del	1937848.4692415	1937848.9826459	1937848.9831722	120.0	3.0	1937850.5252761
479.275390625	0.0	120	981556	35	67	90	1	0	1937838.9197465	1937838.9202396	80	1937842.2757662	1937842.2764488	40	1937845.3233782	1937845.3239616	100	del	1937848.4692415	1937848.9826459	1937848.9831722	120.0	3.0	1937850.5252761
482.96142578125	0.0	80	989105	36	57	130	0	1	1937852.6690494	1937852.6714465	80	1937855.7917538	1937855.7922938	40	1937859.1385099	1937859.1389622	100	imm	1937859.8610101	nan	nan	nan	nan	nan
486.083984375	0.0	40	995500	36	57	130	0	1	1937852.6690494	1937852.6714465	80	1937855.7917538	1937855.7922938	40	1937859.1385099	1937859.1389622	100	imm	1937859.8610101	nan	nan	nan	nan	nan
489.4306640625	0.0	100	1002354	36	57	130	0	1	1937852.6690494	1937852.6714465	80	1937855.7917538	1937855.7922938	40	1937859.1385099	1937859.1389622	100	imm	1937859.8610101	nan	nan	nan	nan	nan
493.09375	0.0	80	1009856	37	70	260	0	0	1937862.801509	1937862.8019983	80	1937865.9814578	1937865.9819398	40	1937869.3849612	1937869.3854553	100	del	1937872.1025222	nan	nan	nan	nan	nan
496.2734375	0.0	40	1016368	37	70	260	0	0	1937862.801509	1937862.8019983	80	1937865.9814578	1937865.9819398	40	1937869.3849612	1937869.3854553	100	del	1937872.1025222	nan	nan	nan	nan	nan
499.6767578125	0.0	100	1023338	37	70	260	0	0	1937862.801509	1937862.8019983	80	1937865.9814578	1937865.9819398	40	1937869.3849612	1937869.3854553	100	del	1937872.1025222	nan	nan	nan	nan	nan
505.25048828125	0.0	80	1034753	38	63	170	1	1	1937874.9584366	1937874.9588846	80	1937877.9695432	1937877.9700248	40	1937881.283691	1937881.2841983	100	del	1937883.0617139	1937883.5755612	1937883.5759964	120.0	3.0	1937885.3585176
508.26123046875	0.0	40	1040919	38	63	170	1	1	1937874.9584366	1937874.9588846	80	1937877.9695432	1937877.9700248	40	1937881.283691	1937881.2841983	100	del	1937883.0617139	1937883.5755612	1937883.5759964	120.0	3.0	1937885.3585176
511.5751953125	0.0	100	1047706	38	63	170	1	1	1937874.9584366	1937874.9588846	80	1937877.9695432	1937877.9700248	40	1937881.283691	1937881.2841983	100	del	1937883.0617139	1937883.5755612	1937883.5759964	120.0	3.0	1937885.3585176
513.8671875	0.0	120	1052400	38	63	170	1	1	1937874.9584366	1937874.9588846	80	1937877.9695432	1937877.9700248	40	1937881.283691	1937881.2841983	100	del	1937883.0617139	1937883.5755612	1937883.5759964	120.0	3.0	1937885.3585176
517.85888671875	0.0	80	1060575	39	80	560	0	0	1937887.5672067	1937887.5678366	80	1937891.0341512	1937891.0345877	40	1937894.0482527	1937894.048735	100	imm	1937895.661676	nan	nan	nan	nan	nan
521.32568359375	0.0	40	1067675	39	80	560	0	0	1937887.5672067	1937887.5678366	80	1937891.0341512	1937891.0345877	40	1937894.0482527	1937894.048735	100	imm	1937895.661676	nan	nan	nan	nan	nan
524.33984375	0.0	100	1073848	39	80	560	0	0	1937887.5672067	1937887.5678366	80	1937891.0341512	1937891.0345877	40	1937894.0482527	1937894.048735	100	imm	1937895.661676	nan	nan	nan	nan	nan
528.70263671875	0.0	80	1082783	40	83	90	1	1	1937898.4111292	1937898.4116236	80	1937901.6311967	1937901.6317124	40	1937904.8718225	1937904.8721729	100	del	1937906.7654895	1937907.2755493	1937907.2760652	120.0	3.0	1937909.0931308
531.92236328125	0.0	40	1089377	40	83	90	1	1	1937898.4111292	1937898.4116236	80	1937901.6311967	1937901.6317124	40	1937904.8718225	1937904.8721729	100	del	1937906.7654895	1937907.2755493	1937907.2760652	120.0	3.0	1937909.0931308
535.1630859375	0.0	100	1096014	40	83	90	1	1	1937898.4111292	1937898.4116236	80	1937901.6311967	1937901.6317124	40	1937904.8718225	1937904.8721729	100	del	1937906.7654895	1937907.2755493	1937907.2760652	120.0	3.0	1937909.0931308
537.56640625	0.0	120	1100936	40	83	90	1	1	1937898.4111292	1937898.4116236	80	1937901.6311967	1937901.6317124	40	1937904.8718225	1937904.8721729	100	del	1937906.7654895	1937907.2755493	1937907.2760652	120.0	3.0	1937909.0931308
551.41650390625	0.0	80	1129301	41	90	260	0	0	1937921.1259904	1937921.1264834	80	1937924.2947651	1937924.2951823	40	1937927.7006346	1937927.7011472	100	del	1937930.6290642	nan	nan	nan	nan	nan
554.58544921875	0.0	40	1135791	41	90	260	0	0	1937921.1259904	1937921.1264834	80	1937924.2947651	1937924.2951823	40	1937927.7006346	1937927.7011472	100	del	1937930.6290642	nan	nan	nan	nan	nan
557.9912109375	0.0	100	1142766	41	90	260	0	0	1937921.1259904	1937921.1264834	80	1937924.2947651	1937924.2951823	40	1937927.7006346	1937927.7011472	100	del	1937930.6290642	nan	nan	nan	nan	nan
563.673828125	0.0	80	1154404	42	87	130	0	1	1937933.3834155	1937933.3838682	80	1937936.4087175	1937936.4091534	40	1937939.5096178	1937939.5101591	100	imm	1937941.3012238	nan	nan	nan	nan	nan
566.69921875	0.0	40	1160600	42	87	130	0	1	1937933.3834155	1937933.3838682	80	1937936.4087175	1937936.4091534	40	1937939.5096178	1937939.5101591	100	imm	1937941.3012238	nan	nan	nan	nan	nan
569.7998046875	0.0	100	1166950	42	87	130	0	1	1937933.3834155	1937933.3838682	80	1937936.4087175	1937936.4091534	40	1937939.5096178	1937939.5101591	100	imm	1937941.3012238	nan	nan	nan	nan	nan
574.4697265625	0.0	80	1176514	43	50	260	0	0	1937944.1795208	1937944.1799972	80	1937947.4239282	1937947.4244443	40	1937950.5139191	1937950.5144307	100	imm	1937952.2057543	nan	nan	nan	nan	nan
577.7138671875	0.0	40	1183158	43	50	260	0	0	1937944.1795208	1937944.1799972	80	1937947.4239282	1937947.4244443	40	1937950.5139191	1937950.5144307	100	imm	1937952.2057543	nan	nan	nan	nan	nan
580.8037109375	0.0	100	1189486	43	50	260	0	0	1937944.1795208	1937944.1799972	80	1937947.4239282	1937947.4244443	40	1937950.5139191	1937950.5144307	100	imm	1937952.2057543	nan	nan	nan	nan	nan
585.18310546875	0.0	80	1198455	44	93	800	1	1	1937954.893036	1937954.8935208	80	1937958.2048673	1937958.2053051	40	1937961.314587	1937961.3150683	100	imm	1937962.7489635	1937963.2629067	1937963.2648691	120.0	3.0	1937964.6135447
588.49462890625	0.0	40	1205237	44	93	800	1	1	1937954.893036	1937954.8935208	80	1937958.2048673	1937958.2053051	40	1937961.314587	1937961.3150683	100	imm	1937962.7489635	1937963.2629067	1937963.2648691	120.0	3.0	1937964.6135447
591.6044921875	0.0	100	1211606	44	93	800	1	1	1937954.893036	1937954.8935208	80	1937958.2048673	1937958.2053051	40	1937961.314587	1937961.3150683	100	imm	1937962.7489635	1937963.2629067	1937963.2648691	120.0	3.0	1937964.6135447
593.552734375	0.0	120	1215596	44	93	800	1	1	1937954.893036	1937954.8935208	80	1937958.2048673	1937958.2053051	40	1937961.314587	1937961.3150683	100	imm	1937962.7489635	1937963.2629067	1937963.2648691	120.0	3.0	1937964.6135447
597.28857421875	0.0	80	1223247	45	57	50	0	1	1937966.9988339	1937966.9993286	80	1937970.1283612	1937970.1288734	40	1937973.6007478	1937973.601256	100	imm	1937975.6209351	nan	nan	nan	nan	nan
600.41796875	0.0	40	1229656	45	57	50	0	1	1937966.9988339	1937966.9993286	80	1937970.1283612	1937970.1288734	40	1937973.6007478	1937973.601256	100	imm	1937975.6209351	nan	nan	nan	nan	nan
603.89013671875	0.0	100	1236767	45	57	50	0	1	1937966.9988339	1937966.9993286	80	1937970.1283612	1937970.1288734	40	1937973.6007478	1937973.601256	100	imm	1937975.6209351	nan	nan	nan	nan	nan
608.5634765625	0.0	80	1246338	46	97	90	1	1	1937978.2739116	1937978.2744994	80	1937981.6648027	1937981.6652926	40	1937984.7722599	1937984.7727914	100	del	1937986.3013041	1937986.8152741	1937986.8157419	120.0	4.0	1937990.9262269
611.9541015625	0.0	40	1253282	46	97	90	1	1	1937978.2739116	1937978.2744994	80	1937981.6648027	1937981.6652926	40	1937984.7722599	1937984.7727914	100	del	1937986.3013041	1937986.8152741	1937986.8157419	120.0	4.0	1937990.9262269
615.0615234375	0.0	100	1259646	46	97	90	1	1	1937978.2739116	1937978.2744994	80	1937981.6648027	1937981.6652926	40	1937984.7722599	1937984.7727914	100	del	1937986.3013041	1937986.8152741	1937986.8157419	120.0	4.0	1937990.9262269
617.1044921875	0.0	120	1263830	46	97	90	1	1	1937978.2739116	1937978.2744994	80	1937981.6648027	1937981.6652926	40	1937984.7722599	1937984.7727914	100	del	1937986.3013041	1937986.8152741	1937986.8157419	120.0	4.0	1937990.9262269
623.375	0.0	80	1276672	47	53	130	0	0	1937993.0859605	1937993.0864168	80	1937996.1392115	1937996.1397016	40	1937999.4411381	1937999.4416877	100	imm	1938001.7255879	nan	nan	nan	nan	nan
626.42822265625	0.0	40	1282925	47	53	130	0	0	1937993.0859605	1937993.0864168	80	1937996.1392115	1937996.1397016	40	1937999.4411381	1937999.4416877	100	imm	1938001.7255879	nan	nan	nan	nan	nan
629.72998046875	0.0	100	1289687	47	53	130	0	0	1937993.0859605	1937993.0864168	80	1937996.1392115	1937996.1397016	40	1937999.4411381	1937999.4416877	100	imm	1938001.7255879	nan	nan	nan	nan	nan
634.87353515625	0.0	80	1300221	48	80	50	0	0	1938004.5847932	1938004.5852899	80	1938007.8656156	1938007.8660856	40	1938011.0954265	1938011.0958634	100	del	1938012.2856477	nan	nan	nan	nan	nan
638.154296875	0.0	40	1306940	48	80	50	0	0	1938004.5847932	1938004.5852899	80	1938007.8656156	1938007.8660856	40	1938011.0954265	1938011.0958634	100	del	1938012.2856477	nan	nan	nan	nan	nan
641.3837890625	0.0	100	1313554	48	80	50	0	0	1938004.5847932	1938004.5852899	80	1938007.8656156	1938007.8660856	40	1938011.0954265	1938011.0958634	100	del	1938012.2856477	nan	nan	nan	nan	nan
645.41552734375	0.0	80	1321811	49	70	90	1	0	1938015.1272096	1938015.1275578	80	1938018.4585432	1938018.4589745	40	1938021.8120459	1938021.8124488	100	del	1938024.5090956	1938025.0225517	1938025.0230868	120.0	3.0	1938026.308745
648.7470703125	0.0	40	1328634	49	70	90	1	0	1938015.1272096	1938015.1275578	80	1938018.4585432	1938018.4589745	40	1938021.8120459	1938021.8124488	100	del	1938024.5090956	1938025.0225517	1938025.0230868	120.0	3.0	1938026.308745
652.10009765625	0.0	100	1335501	49	70	90	1	0	1938015.1272096	1938015.1275578	80	1938018.4585432	1938018.4589745	40	1938021.8120459	1938021.8124488	100	del	1938024.5090956	1938025.0225517	1938025.0230868	120.0	3.0	1938026.308745
655.310546875	0.0	120	1342076	49	70	90	1	0	1938015.1272096	1938015.1275578	80	1938018.4585432	1938018.4589745	40	1938021.8120459	1938021.8124488	100	del	1938024.5090956	1938025.0225517	1938025.0230868	120.0	3.0	1938026.308745
658.93017578125	0.0	80	1349489	50	97	130	0	1	1938028.6419689	1938028.6424782	80	1938032.1225887	1938032.1230786	40	1938035.2410054	1938035.2415232	100	del	1938036.8372463	nan	nan	nan	nan	nan
662.41064453125	0.0	40	1356617	50	97	130	0	1	1938028.6419689	1938028.6424782	80	1938032.1225887	1938032.1230786	40	1938035.2410054	1938035.2415232	100	del	1938036.8372463	nan	nan	nan	nan	nan
665.52880859375	0.0	100	1363003	50	97	130	0	1	1938028.6419689	1938028.6424782	80	1938032.1225887	1938032.1230786	40	1938035.2410054	1938035.2415232	100	del	1938036.8372463	nan	nan	nan	nan	nan
669.998046875	0.0	80	1372156	51	57	560	0	0	1938039.7103907	1938039.7108444	80	1938042.8367358	1938042.837296	40	1938045.910181	1938045.9106938	100	imm	1938048.1733395	nan	nan	nan	nan	nan
673.12451171875	0.0	40	1378559	51	57	560	0	0	1938039.7103907	1938039.7108444	80	1938042.8367358	1938042.837296	40	1938045.910181	1938045.9106938	100	imm	1938048.1733395	nan	nan	nan	nan	nan
676.19775390625	0.0	100	1384853	51	57	560	0	0	1938039.7103907	1938039.7108444	80	1938042.8367358	1938042.837296	40	1938045.910181	1938045.9106938	100	imm	1938048.1733395	nan	nan	nan	nan	nan
681.28076171875	0.0	80	1395263	52	93	170	1	1	1938050.993411	1938050.9937702	80	1938054.2258097	1938054.2262761	40	1938057.4685144	1938057.4690627	100	del	1938059.1582246	1938059.6721688	1938059.67268	120.0	3.0	1938061.6048275
684.51318359375	0.0	40	1401883	52	93	170	1	1	1938050.993411	1938050.9937702	80	1938054.2258097	1938054.2262761	40	1938057.4685144	1938057.4690627	100	del	1938059.1582246	1938059.6721688	1938059.67268	120.0	3.0	1938061.6048275
687.755859375	0.0	100	1408524	52	93	170	1	1	1938050.993411	1938050.9937702	80	1938054.2258097	1938054.2262761	40	1938057.4685144	1938057.4690627	100	del	1938059.1582246	1938059.6721688	1938059.67268	120.0	3.0	1938061.6048275
689.95947265625	0.0	120	1413037	52	93	170	1	1	1938050.993411	1938050.9937702	80	1938054.2258097	1938054.2262761	40	1938057.4685144	1938057.4690627	100	del	1938059.1582246	1938059.6721688	1938059.67268	120.0	3.0	1938061.6048275
694.23876953125	0.0	80	1421801	53	97	22	1	1	1938063.9514503	1938063.9518813	80	1938067.3442006	1938067.3446708	40	1938070.533605	1938070.5341401	100	del	1938071.9726153	1938072.4870511	1938072.4876347	120.0	3.0	1938073.6450199
697.63134765625	0.0	40	1428749	53	97	22	1	1	1938063.9514503	1938063.9518813	80	1938067.3442006	1938067.3446708	40	1938070.533605	1938070.5341401	100	del	1938071.9726153	1938072.4870511	1938072.4876347	120.0	3.0	1938073.6450199
700.82080078125	0.0	100	1435281	53	97	22	1	1	1938063.9514503	1938063.9518813	80	1938067.3442006	1938067.3446708	40	1938070.533605	1938070.5341401	100	del	1938071.9726153	1938072.4870511	1938072.4876347	120.0	3.0	1938073.6450199
702.77392578125	0.0	120	1439281	53	97	22	1	1	1938063.9514503	1938063.9518813	80	1938067.3442006	1938067.3446708	40	1938070.533605	1938070.5341401	100	del	1938071.9726153	1938072.4870511	1938072.4876347	120.0	3.0	1938073.6450199
706.27978515625	0.0	80	1446461	54	80	170	1	1	1938075.9927368	1938075.9932695	80	1938079.2083824	1938079.2088638	40	1938082.642439	1938082.6429511	100	del	1938083.5327565	1938084.0456556	1938084.0462112	120.0	3.0	1938085.0452253
709.4951171875	0.0	40	1453046	54	80	170	1	1	1938075.9927368	1938075.9932695	80	1938079.2083824	1938079.2088638	40	1938082.642439	1938082.6429511	100	del	1938083.5327565	1938084.0456556	1938084.0462112	120.0	3.0	1938085.0452253
712.92919921875	0.0	100	1460079	54	80	170	1	1	1938075.9927368	1938075.9932695	80	1938079.2083824	1938079.2088638	40	1938082.642439	1938082.6429511	100	del	1938083.5327565	1938084.0456556	1938084.0462112	120.0	3.0	1938085.0452253
714.33251953125	0.0	120	1462953	54	80	170	1	1	1938075.9927368	1938075.9932695	80	1938079.2083824	1938079.2088638	40	1938082.642439	1938082.6429511	100	del	1938083.5327565	1938084.0456556	1938084.0462112	120.0	3.0	1938085.0452253
717.76416015625	0.0	80	1469981	55	67	22	1	0	1938087.4776574	1938087.4782596	80	1938090.614207	1938090.614659	40	1938093.9342494	1938093.934747	100	del	1938094.9809559	1938095.4939474	1938095.4945988	120.0	4.0	1938096.9733665
720.90087890625	0.0	40	1476405	55	67	22	1	0	1938087.4776574	1938087.4782596	80	1938090.614207	1938090.614659	40	1938093.9342494	1938093.934747	100	del	1938094.9809559	1938095.4939474	1938095.4945988	120.0	4.0	1938096.9733665
724.220703125	0.0	100	1483204	55	67	22	1	0	1938087.4776574	1938087.4782596	80	1938090.614207	1938090.614659	40	1938093.9342494	1938093.934747	100	del	1938094.9809559	1938095.4939474	1938095.4945988	120.0	4.0	1938096.9733665
725.7802734375	0.0	120	1486398	55	67	22	1	0	1938087.4776574	1938087.4782596	80	1938090.614207	1938090.614659	40	1938093.9342494	1938093.934747	100	del	1938094.9809559	1938095.4939474	1938095.4945988	120.0	4.0	1938096.9733665
729.56884765625	0.0	80	1494157	56	90	50	0	1	1938099.2823396	1938099.2828646	80	1938102.5603734	1938102.5610154	40	1938106.0078233	1938106.0082963	100	del	1938107.140927	nan	nan	nan	nan	nan
732.8466796875	0.0	40	1500870	56	90	50	0	1	1938099.2823396	1938099.2828646	80	1938102.5603734	1938102.5610154	40	1938106.0078233	1938106.0082963	100	del	1938107.140927	nan	nan	nan	nan	nan
736.2939453125	0.0	100	1507930	56	90	50	0	1	1938099.2823396	1938099.2828646	80	1938102.5603734	1938102.5610154	40	1938106.0078233	1938106.0082963	100	del	1938107.140927	nan	nan	nan	nan	nan
740.0771484375	0.0	80	1515678	57	77	1150	0	1	1938109.7912836	1938109.7917973	80	1938112.9578818	1938112.9583062	40	1938116.0322295	1938116.0326476	100	imm	1938117.5021218	nan	nan	nan	nan	nan
743.24365234375	0.0	40	1522163	57	77	1150	0	1	1938109.7912836	1938109.7917973	80	1938112.9578818	1938112.9583062	40	1938116.0322295	1938116.0326476	100	imm	1938117.5021218	nan	nan	nan	nan	nan
746.318359375	0.0	100	1528460	57	77	1150	0	1	1938109.7912836	1938109.7917973	80	1938112.9578818	1938112.9583062	40	1938116.0322295	1938116.0326476	100	imm	1938117.5021218	nan	nan	nan	nan	nan
750.775390625	0.0	80	1537588	58	77	260	0	1	1938120.4897423	1938120.490219	80	1938123.8215149	1938123.8219187	40	1938127.074323	1938127.0748459	100	imm	1938129.9485876	nan	nan	nan	nan	nan
754.107421875	0.0	40	1544412	58	77	260	0	1	1938120.4897423	1938120.490219	80	1938123.8215149	1938123.8219187	40	1938127.074323	1938127.0748459	100	imm	1938129.9485876	nan	nan	nan	nan	nan
757.35986328125	0.0	100	1551073	58	77	260	0	1	1938120.4897423	1938120.490219	80	1938123.8215149	1938123.8219187	40	1938127.074323	1938127.0748459	100	imm	1938129.9485876	nan	nan	nan	nan	nan
763.07177734375	0.0	80	1562771	59	83	1150	0	1	1938132.7861628	1938132.7866239	80	1938136.0659119	1938136.0664227	40	1938139.4029412	1938139.4035012	100	imm	1938142.0693777	nan	nan	nan	nan	nan
766.35107421875	0.0	40	1569487	59	83	1150	0	1	1938132.7861628	1938132.7866239	80	1938136.0659119	1938136.0664227	40	1938139.4029412	1938139.4035012	100	imm	1938142.0693777	nan	nan	nan	nan	nan
769.6884765625	0.0	100	1576322	59	83	1150	0	1	1938132.7861628	1938132.7866239	80	1938136.0659119	1938136.0664227	40	1938139.4029412	1938139.4035012	100	imm	1938142.0693777	nan	nan	nan	nan	nan
775.1455078125	0.0	80	1587498	60	83	130	0	1	1938144.8601254	1938144.8606216	80	1938148.2281546	1938148.2286507	40	1938151.5024942	1938151.5030043	100	del	1938152.7087888	nan	nan	nan	nan	nan
778.51318359375	0.0	40	1594395	60	83	130	0	1	1938144.8601254	1938144.8606216	80	1938148.2281546	1938148.2286507	40	1938151.5024942	1938151.5030043	100	del	1938152.7087888	nan	nan	nan	nan	nan
781.78759765625	0.0	100	1601101	60	83	130	0	1	1938144.8601254	1938144.8606216	80	1938148.2281546	1938148.2286507	40	1938151.5024942	1938151.5030043	100	del	1938152.7087888	nan	nan	nan	nan	nan
797.07373046875	0.0	80	1632407	61	87	1150	0	0	1938166.7888814	1938166.7893881	80	1938169.9048559	1938169.9051256	40	1938172.9715177	1938172.972028	100	imm	1938174.6603179	nan	nan	nan	nan	nan
800.189453125	0.0	40	1638788	61	87	1150	0	0	1938166.7888814	1938166.7893881	80	1938169.9048559	1938169.9051256	40	1938172.9715177	1938172.972028	100	imm	1938174.6603179	nan	nan	nan	nan	nan
803.255859375	0.0	100	1645068	61	87	1150	0	0	1938166.7888814	1938166.7893881	80	1938169.9048559	1938169.9051256	40	1938172.9715177	1938172.972028	100	imm	1938174.6603179	nan	nan	nan	nan	nan
807.517578125	0.0	80	1653796	62	100	90	1	0	1938177.2329746	1938177.2334283	80	1938180.2735679	1938180.2740013	40	1938183.4900607	1938183.4905304	100	del	1938184.388954	1938184.9037178	1938184.9042574	120.0	3.0	1938185.5823106
810.55810546875	0.0	40	1660023	62	100	90	1	0	1938177.2329746	1938177.2334283	80	1938180.2735679	1938180.2740013	40	1938183.4900607	1938183.4905304	100	del	1938184.388954	1938184.9037178	1938184.9042574	120.0	3.0	1938185.5823106
813.7744140625	0.0	100	1666610	62	100	90	1	0	1938177.2329746	1938177.2334283	80	1938180.2735679	1938180.2740013	40	1938183.4900607	1938183.4905304	100	del	1938184.388954	1938184.9037178	1938184.9042574	120.0	3.0	1938185.5823106
815.18798828125	0.0	120	1669505	62	100	90	1	0	1938177.2329746	1938177.2334283	80	1938180.2735679	1938180.2740013	40	1938183.4900607	1938183.4905304	100	del	1938184.388954	1938184.9037178	1938184.9042574	120.0	3.0	1938185.5823106
818.10693359375	0.0	80	1675483	63	73	90	1	0	1938187.8229253	1938187.823433	80	1938191.0133816	1938191.0138619	40	1938194.4087799	1938194.4092902	100	del	1938196.3092171	1938196.8232838	1938196.8237344	120.0	3.0	1938198.4763337
821.29736328125	0.0	40	1682017	63	73	90	1	0	1938187.8229253	1938187.823433	80	1938191.0133816	1938191.0138619	40	1938194.4087799	1938194.4092902	100	del	1938196.3092171	1938196.8232838	1938196.8237344	120.0	3.0	1938198.4763337
824.69287109375	0.0	100	1688971	63	73	90	1	0	1938187.8229253	1938187.823433	80	1938191.0133816	1938191.0138619	40	1938194.4087799	1938194.4092902	100	del	1938196.3092171	1938196.8232838	1938196.8237344	120.0	3.0	1938198.4763337
827.107421875	0.0	120	1693916	63	73	90	1	0	1938187.8229253	1938187.823433	80	1938191.0133816	1938191.0138619	40	1938194.4087799	1938194.4092902	100	del	1938196.3092171	1938196.8232838	1938196.8237344	120.0	3.0	1938198.4763337
831.091796875	0.0	80	1702076	64	93	1150	0	1	1938200.8082246	1938200.8087168	80	1938204.2022572	1938204.2027027	40	1938207.6817245	1938207.6823382	100	imm	1938208.6692723	nan	nan	nan	nan	nan
834.48583984375	0.0	40	1709027	64	93	1150	0	1	1938200.8082246	1938200.8087168	80	1938204.2022572	1938204.2027027	40	1938207.6817245	1938207.6823382	100	imm	1938208.6692723	nan	nan	nan	nan	nan
837.96533203125	0.0	100	1716153	64	93	1150	0	1	1938200.8082246	1938200.8087168	80	1938204.2022572	1938204.2027027	40	1938207.6817245	1938207.6823382	100	imm	1938208.6692723	nan	nan	nan	nan	nan
841.9580078125	0.0	80	1724330	65	70	800	1	1	1938211.6744203	1938211.6749269	80	1938214.7780812	1938214.7785647	40	1938217.8616973	1938217.8622716	100	del	1938218.7171477	1938219.2327335	1938219.2333272	120.0	3.0	1938220.5488253
845.0615234375	0.0	40	1730686	65	70	800	1	1	1938211.6744203	1938211.6749269	80	1938214.7780812	1938214.7785647	40	1938217.8616973	1938217.8622716	100	del	1938218.7171477	1938219.2327335	1938219.2333272	120.0	3.0	1938220.5488253
848.14501953125	0.0	100	1737001	65	70	800	1	1	1938211.6744203	1938211.6749269	80	1938214.7780812	1938214.7785647	40	1938217.8616973	1938217.8622716	100	del	1938218.7171477	1938219.2327335	1938219.2333272	120.0	3.0	1938220.5488253
849.51611328125	0.0	120	1739809	65	70	800	1	1	1938211.6744203	1938211.6749269	80	1938214.7780812	1938214.7785647	40	1938217.8616973	1938217.8622716	100	del	1938218.7171477	1938219.2327335	1938219.2333272	120.0	3.0	1938220.5488253
853.19580078125	0.0	80	1747345	66	67	130	0	1	1938222.9124938	1938222.9130824	80	1938225.9675913	1938225.9680222	40	1938229.2429798	1938229.2435091	100	imm	1938230.572632	nan	nan	nan	nan	nan
856.2509765625	0.0	40	1753602	66	67	130	0	1	1938222.9124938	1938222.9130824	80	1938225.9675913	1938225.9680222	40	1938229.2429798	1938229.2435091	100	imm	1938230.572632	nan	nan	nan	nan	nan
859.52587890625	0.0	100	1760309	66	67	130	0	1	1938222.9124938	1938222.9130824	80	1938225.9675913	1938225.9680222	40	1938229.2429798	1938229.2435091	100	imm	1938230.572632	nan	nan	nan	nan	nan
863.638671875	0.0	80	1768732	67	77	50	0	1	1938233.3554787	1938233.3559476	80	1938236.7935244	1938236.7940004	40	1938240.0503275	1938240.0507827	100	del	1938240.956558	nan	nan	nan	nan	nan
867.07666015625	0.0	40	1775773	67	77	50	0	1	1938233.3554787	1938233.3559476	80	1938236.7935244	1938236.7940004	40	1938240.0503275	1938240.0507827	100	del	1938240.956558	nan	nan	nan	nan	nan
870.3330078125	0.0	100	1782442	67	77	50	0	1	1938233.3554787	1938233.3559476	80	1938236.7935244	1938236.7940004	40	1938240.0503275	1938240.0507827	100	del	1938240.956558	nan	nan	nan	nan	nan
873.95556640625	0.0	80	1789861	68	80	90	1	0	1938243.6730527	1938243.6735587	80	1938247.0142851	1938247.0144686	40	1938250.391116	1938250.3913299	100	del	1938251.6051243	1938252.1188007	1938252.1192946	120.0	2.0	1938253.6770228
877.29736328125	0.0	40	1796705	68	80	90	1	0	1938243.6730527	1938243.6735587	80	1938247.0142851	1938247.0144686	40	1938250.391116	1938250.3913299	100	del	1938251.6051243	1938252.1188007	1938252.1192946	120.0	2.0	1938253.6770228
880.673828125	0.0	100	1803620	68	80	90	1	0	1938243.6730527	1938243.6735587	80	1938247.0142851	1938247.0144686	40	1938250.391116	1938250.3913299	100	del	1938251.6051243	1938252.1188007	1938252.1192946	120.0	2.0	1938253.6770228
882.4013671875	0.0	120	1807158	68	80	90	1	0	1938243.6730527	1938243.6735587	80	1938247.0142851	1938247.0144686	40	1938250.391116	1938250.3913299	100	del	1938251.6051243	1938252.1188007	1938252.1192946	120.0	2.0	1938253.6770228
886.236328125	0.0	80	1815012	69	80	22	1	1	1938255.9541129	1938255.9545738	80	1938259.1356239	1938259.1360967	40	1938262.2236478	1938262.2241643	100	del	1938263.1659805	1938263.6797805	1938263.6803068	120.0	4.0	1938264.2607306
889.41796875	0.0	40	1821528	69	80	22	1	1	1938255.9541129	1938255.9545738	80	1938259.1356239	1938259.1360967	40	1938262.2236478	1938262.2241643	100	del	1938263.1659805	1938263.6797805	1938263.6803068	120.0	4.0	1938264.2607306
892.505859375	0.0	100	1827852	69	80	22	1	1	1938255.9541129	1938255.9545738	80	1938259.1356239	1938259.1360967	40	1938262.2236478	1938262.2241643	100	del	1938263.1659805	1938263.6797805	1938263.6803068	120.0	4.0	1938264.2607306
893.9619140625	0.0	120	1830834	69	80	22	1	1	1938255.9541129	1938255.9545738	80	1938259.1356239	1938259.1360967	40	1938262.2236478	1938262.2241643	100	del	1938263.1659805	1938263.6797805	1938263.6803068	120.0	4.0	1938264.2607306
896.85205078125	0.0	80	1836753	70	53	50	0	0	1938266.5696978	1938266.5702404	80	1938269.7092487	1938269.7097761	40	1938272.7451893	1938272.7456801	100	imm	1938276.0043	nan	nan	nan	nan	nan
899.9912109375	0.0	40	1843182	70	53	50	0	0	1938266.5696978	1938266.5702404	80	1938269.7092487	1938269.7097761	40	1938272.7451893	1938272.7456801	100	imm	1938276.0043	nan	nan	nan	nan	nan
903.02734375	0.0	100	1849400	70	53	50	0	0	1938266.5696978	1938266.5702404	80	1938269.7092487	1938269.7097761	40	1938272.7451893	1938272.7456801	100	imm	1938276.0043	nan	nan	nan	nan	nan
909.1787109375	0.0	80	1861998	71	67	1150	0	1	1938278.8967232	1938278.897154	80	1938282.0261185	1938282.026631	40	1938285.2607794	1938285.2612758	100	imm	1938286.7485483	nan	nan	nan	nan	nan
912.30810546875	0.0	40	1868407	71	67	1150	0	1	1938278.8967232	1938278.897154	80	1938282.0261185	1938282.026631	40	1938285.2607794	1938285.2612758	100	imm	1938286.7485483	nan	nan	nan	nan	nan
915.54248046875	0.0	100	1875031	71	67	1150	0	1	1938278.8967232	1938278.897154	80	1938282.0261185	1938282.026631	40	1938285.2607794	1938285.2612758	100	imm	1938286.7485483	nan	nan	nan	nan	nan
919.8916015625	0.0	80	1883938	72	63	260	0	0	1938289.6102554	1938289.6106762	80	1938292.7971889	1938292.797645	40	1938296.1787238	1938296.1792397	100	del	1938297.5966632	nan	nan	nan	nan	nan
923.07861328125	0.0	40	1890465	72	63	260	0	0	1938289.6102554	1938289.6106762	80	1938292.7971889	1938292.797645	40	1938296.1787238	1938296.1792397	100	del	1938297.5966632	nan	nan	nan	nan	nan
926.4599609375	0.0	100	1897390	72	63	260	0	0	1938289.6102554	1938289.6106762	80	1938292.7971889	1938292.797645	40	1938296.1787238	1938296.1792397	100	del	1938297.5966632	nan	nan	nan	nan	nan
930.59375	0.0	80	1905856	73	57	90	1	0	1938300.3124638	1938300.3129187	80	1938303.6615387	1938303.662031	40	1938307.0274047	1938307.0279199	100	del	1938308.6768938	1938309.1903692	1938309.1908613	120.0	3.0	1938310.2923795
933.94287109375	0.0	40	1912715	73	57	90	1	0	1938300.3124638	1938300.3129187	80	1938303.6615387	1938303.662031	40	1938307.0274047	1938307.0279199	100	del	1938308.6768938	1938309.1903692	1938309.1908613	120.0	3.0	1938310.2923795
937.30859375	0.0	100	1919608	73	57	90	1	0	1938300.3124638	1938300.3129187	80	1938303.6615387	1938303.662031	40	1938307.0274047	1938307.0279199	100	del	1938308.6768938	1938309.1903692	1938309.1908613	120.0	3.0	1938310.2923795
939.4716796875	0.0	120	1924038	73	57	90	1	0	1938300.3124638	1938300.3129187	80	1938303.6615387	1938303.662031	40	1938307.0274047	1938307.0279199	100	del	1938308.6768938	1938309.1903692	1938309.1908613	120.0	3.0	1938310.2923795
942.810546875	0.0	80	1930876	74	93	560	0	1	1938312.5296131	1938312.5300925	80	1938315.5469331	1938315.5474129	40	1938318.726098	1938318.7265293	100	del	1938321.9970691	nan	nan	nan	nan	nan
945.828125	0.0	40	1937056	74	93	560	0	1	1938312.5296131	1938312.5300925	80	1938315.5469331	1938315.5474129	40	1938318.726098	1938318.7265293	100	del	1938321.9970691	nan	nan	nan	nan	nan
949.0068359375	0.0	100	1943566	74	93	560	0	1	1938312.5296131	1938312.5300925	80	1938315.5469331	1938315.5474129	40	1938318.726098	1938318.7265293	100	del	1938321.9970691	nan	nan	nan	nan	nan
955.0107421875	0.0	80	1955862	75	67	560	0	0	1938324.7296554	1938324.7303616	80	1938327.8728072	1938327.8733057	40	1938330.9797393	1938330.9800225	100	del	1938334.5401435	nan	nan	nan	nan	nan
958.1533203125	0.0	40	1962298	75	67	560	0	0	1938324.7296554	1938324.7303616	80	1938327.8728072	1938327.8733057	40	1938330.9797393	1938330.9800225	100	del	1938334.5401435	nan	nan	nan	nan	nan
961.26025390625	0.0	100	1968661	75	67	560	0	0	1938324.7296554	1938324.7303616	80	1938327.8728072	1938327.8733057	40	1938330.9797393	1938330.9800225	100	del	1938334.5401435	nan	nan	nan	nan	nan
967.75048828125	0.0	80	1981953	76	77	22	1	1	1938337.4700645	1938337.4705666	80	1938340.6925532	1938340.6930638	40	1938344.1495307	1938344.1501444	100	del	1938346.6841895	1938347.196938	1938347.1974308	120.0	3.0	1938348.6926734
970.97314453125	0.0	40	1988553	76	77	22	1	1	1938337.4700645	1938337.4705666	80	1938340.6925532	1938340.6930638	40	1938344.1495307	1938344.1501444	100	del	1938346.6841895	1938347.196938	1938347.1974308	120.0	3.0	1938348.6926734
974.4296875	0.0	100	1995632	76	77	22	1	1	1938337.4700645	1938337.4705666	80	1938340.6925532	1938340.6930638	40	1938344.1495307	1938344.1501444	100	del	1938346.6841895	1938347.196938	1938347.1974308	120.0	3.0	1938348.6926734
977.47705078125	0.0	120	2001873	76	77	22	1	1	1938337.4700645	1938337.4705666	80	1938340.6925532	1938340.6930638	40	1938344.1495307	1938344.1501444	100	del	1938346.6841895	1938347.196938	1938347.1974308	120.0	3.0	1938348.6926734
981.18408203125	0.0	80	2009465	77	60	170	1	0	1938350.9039145	1938350.9043992	80	1938354.296016	1938354.2964751	40	1938357.5086005	1938357.5090922	100	del	1938358.9248666	1938359.4385447	1938359.4390467	120.0	3.0	1938360.1726217
984.576171875	0.0	40	2016412	77	60	170	1	0	1938350.9039145	1938350.9043992	80	1938354.296016	1938354.2964751	40	1938357.5086005	1938357.5090922	100	del	1938358.9248666	1938359.4385447	1938359.4390467	120.0	3.0	1938360.1726217
987.78857421875	0.0	100	2022991	77	60	170	1	0	1938350.9039145	1938350.9043992	80	1938354.296016	1938354.2964751	40	1938357.5086005	1938357.5090922	100	del	1938358.9248666	1938359.4385447	1938359.4390467	120.0	3.0	1938360.1726217
989.71826171875	0.0	120	2026943	77	60	170	1	0	1938350.9039145	1938350.9043992	80	1938354.296016	1938354.2964751	40	1938357.5086005	1938357.5090922	100	del	1938358.9248666	1938359.4385447	1938359.4390467	120.0	3.0	1938360.1726217
992.87255859375	0.0	80	2033403	78	73	170	1	0	1938362.5926633	1938362.5931448	80	1938365.9777043	1938365.9781681	40	1938369.1818524	1938369.1823124	100	na	1938370.4442008	1938370.9580585	1938370.9585242	120.0	4.0	1938371.9885164
996.25732421875	0.0	40	2040335	78	73	170	1	0	1938362.5926633	1938362.5931448	80	1938365.9777043	1938365.9781681	40	1938369.1818524	1938369.1823124	100	na	1938370.4442008	1938370.9580585	1938370.9585242	120.0	4.0	1938371.9885164
999.46142578125	0.0	100	2046897	78	73	170	1	0	1938362.5926633	1938362.5931448	80	1938365.9777043	1938365.9781681	40	1938369.1818524	1938369.1823124	100	na	1938370.4442008	1938370.9580585	1938370.9585242	120.0	4.0	1938371.9885164
1001.23779296875	0.0	120	2050535	78	73	170	1	0	1938362.5926633	1938362.5931448	80	1938365.9777043	1938365.9781681	40	1938369.1818524	1938369.1823124	100	na	1938370.4442008	1938370.9580585	1938370.9585242	120.0	4.0	1938371.9885164
1004.39404296875	0.0	80	2056999	79	87	390	1	1	1938374.1145563	1938374.1150645	80	1938377.5172079	1938377.5176736	40	1938381.0049992	1938381.0055346	100	del	1938381.65383	1938382.1674863	1938382.1679563	120.0	3.0	1938383.4688719
1007.796875	0.0	40	2063968	79	87	390	1	1	1938374.1145563	1938374.1150645	80	1938377.5172079	1938377.5176736	40	1938381.0049992	1938381.0055346	100	del	1938381.65383	1938382.1674863	1938382.1679563	120.0	3.0	1938383.4688719
1011.2841796875	0.0	100	2071110	79	87	390	1	1	1938374.1145563	1938374.1150645	80	1938377.5172079	1938377.5176736	40	1938381.0049992	1938381.0055346	100	del	1938381.65383	1938382.1674863	1938382.1679563	120.0	3.0	1938383.4688719
1012.44677734375	0.0	120	2073491	79	87	390	1	1	1938374.1145563	1938374.1150645	80	1938377.5172079	1938377.5176736	40	1938381.0049992	1938381.0055346	100	del	1938381.65383	1938382.1674863	1938382.1679563	120.0	3.0	1938383.4688719
1015.92919921875	0.0	80	2080623	80	50	390	1	1	1938385.6498079	1938385.6502904	80	1938388.9930767	1938388.9935368	40	1938392.2250716	1938392.2255622	100	imm	1938394.8847879	1938395.3981884	1938395.3986873	120.0	3.0	1938396.6123994
1019.27197265625	0.0	40	2087469	80	50	390	1	1	1938385.6498079	1938385.6502904	80	1938388.9930767	1938388.9935368	40	1938392.2250716	1938392.2255622	100	imm	1938394.8847879	1938395.3981884	1938395.3986873	120.0	3.0	1938396.6123994
1022.50390625	0.0	100	2094088	80	50	390	1	1	1938385.6498079	1938385.6502904	80	1938388.9930767	1938388.9935368	40	1938392.2250716	1938392.2255622	100	imm	1938394.8847879	1938395.3981884	1938395.3986873	120.0	3.0	1938396.6123994
1025.67724609375	0.0	120	2100587	80	50	390	1	1	1938385.6498079	1938385.6502904	80	1938388.9930767	1938388.9935368	40	1938392.2250716	1938392.2255622	100	imm	1938394.8847879	1938395.3981884	1938395.3986873	120.0	3.0	1938396.6123994
1047.1640625	0.0	80	2144592	81	67	390	1	1	1938416.8858255	1938416.8863374	80	1938420.2783118	1938420.2788114	40	1938423.3752286	1938423.375758	100	imm	1938423.9727966	1938424.4856538	1938424.4861143	120.0	3.0	1938425.3889243
1050.556640625	0.0	40	2151540	81	67	390	1	1	1938416.8858255	1938416.8863374	80	1938420.2783118	1938420.2788114	40	1938423.3752286	1938423.375758	100	imm	1938423.9727966	1938424.4856538	1938424.4861143	120.0	3.0	1938425.3889243
1053.6533203125	0.0	100	2157882	81	67	390	1	1	1938416.8858255	1938416.8863374	80	1938420.2783118	1938420.2788114	40	1938423.3752286	1938423.375758	100	imm	1938423.9727966	1938424.4856538	1938424.4861143	120.0	3.0	1938425.3889243
1054.76416015625	0.0	120	2160157	81	67	390	1	1	1938416.8858255	1938416.8863374	80	1938420.2783118	1938420.2788114	40	1938423.3752286	1938423.375758	100	imm	1938423.9727966	1938424.4856538	1938424.4861143	120.0	3.0	1938425.3889243
1058.11376953125	0.0	80	2167017	82	93	390	1	0	1938427.8356205	1938427.8360351	80	1938431.3383722	1938431.3388779	40	1938434.608541	1938434.6090266	100	del	1938436.6377098	1938437.149607	1938437.1500853	120.0	2.0	1938439.8680127
1061.61669921875	0.0	40	2174191	82	93	390	1	0	1938427.8356205	1938427.8360351	80	1938431.3383722	1938431.3388779	40	1938434.608541	1938434.6090266	100	del	1938436.6377098	1938437.149607	1938437.1500853	120.0	2.0	1938439.8680127
1064.88671875	0.0	100	2180888	82	93	390	1	0	1938427.8356205	1938427.8360351	80	1938431.3383722	1938431.3388779	40	1938434.608541	1938434.6090266	100	del	1938436.6377098	1938437.149607	1938437.1500853	120.0	2.0	1938439.8680127
1067.427734375	0.0	120	2186092	82	93	390	1	0	1938427.8356205	1938427.8360351	80	1938431.3383722	1938431.3388779	40	1938434.608541	1938434.6090266	100	del	1938436.6377098	1938437.149607	1938437.1500853	120.0	2.0	1938439.8680127
1072.60400390625	0.0	80	2196693	83	100	130	0	1	1938442.3260025	1938442.3265146	80	1938445.6280787	1938445.6285109	40	1938448.7184465	1938448.7189637	100	del	1938449.7646245	nan	nan	nan	nan	nan
1075.90576171875	0.0	40	2203455	83	100	130	0	1	1938442.3260025	1938442.3265146	80	1938445.6280787	1938445.6285109	40	1938448.7184465	1938448.7189637	100	del	1938449.7646245	nan	nan	nan	nan	nan
1078.99609375	0.0	100	2209784	83	100	130	0	1	1938442.3260025	1938442.3265146	80	1938445.6280787	1938445.6285109	40	1938448.7184465	1938448.7189637	100	del	1938449.7646245	nan	nan	nan	nan	nan
1082.66015625	0.0	80	2217288	84	83	22	1	0	1938452.3826442	1938452.3831052	80	1938455.5952191	1938455.5956748	40	1938458.9827319	1938458.9831797	100	imm	1938460.2297138	1938460.7433466	1938460.7438042	120.0	3.0	1938461.8843748
1085.87255859375	0.0	40	2223867	84	83	22	1	0	1938452.3826442	1938452.3831052	80	1938455.5952191	1938455.5956748	40	1938458.9827319	1938458.9831797	100	imm	1938460.2297138	1938460.7433466	1938460.7438042	120.0	3.0	1938461.8843748
1089.26025390625	0.0	100	2230805	84	83	22	1	0	1938452.3826442	1938452.3831052	80	1938455.5952191	1938455.5956748	40	1938458.9827319	1938458.9831797	100	imm	1938460.2297138	1938460.7433466	1938460.7438042	120.0	3.0	1938461.8843748
1091.0205078125	0.0	120	2234410	84	83	22	1	0	1938452.3826442	1938452.3831052	80	1938455.5952191	1938455.5956748	40	1938458.9827319	1938458.9831797	100	imm	1938460.2297138	1938460.7433466	1938460.7438042	120.0	3.0	1938461.8843748
1094.59033203125	0.0	80	2241721	85	83	50	0	1	1938464.3130663	1938464.3134982	80	1938467.7155574	1938467.7161109	40	1938470.8889281	1938470.8893717	100	del	1938471.9402744	nan	nan	nan	nan	nan
1097.99267578125	0.0	40	2248689	85	83	50	0	1	1938464.3130663	1938464.3134982	80	1938467.7155574	1938467.7161109	40	1938470.8889281	1938470.8893717	100	del	1938471.9402744	nan	nan	nan	nan	nan
1101.166015625	0.0	100	2255188	85	83	50	0	1	1938464.3130663	1938464.3134982	80	1938467.7155574	1938467.7161109	40	1938470.8889281	1938470.8893717	100	del	1938471.9402744	nan	nan	nan	nan	nan
1105.0029296875	0.0	80	2263046	86	60	1150	0	1	1938474.725993	1938474.7264698	80	1938477.778972	1938477.7794712	40	1938480.847985	1938480.8484977	100	imm	1938481.7081383	nan	nan	nan	nan	nan
1108.0556640625	0.0	40	2269298	86	60	1150	0	1	1938474.725993	1938474.7264698	80	1938477.778972	1938477.7794712	40	1938480.847985	1938480.8484977	100	imm	1938481.7081383	nan	nan	nan	nan	nan
1111.125	0.0	100	2275584	86	60	1150	0	1	1938474.725993	1938474.7264698	80	1938477.778972	1938477.7794712	40	1938480.847985	1938480.8484977	100	imm	1938481.7081383	nan	nan	nan	nan	nan
1114.57177734375	0.0	80	2282643	87	70	170	1	0	1938484.2949698	1938484.295384	80	1938487.641996	1938487.6424726	40	1938490.9059725	1938490.9064685	100	del	1938494.5959342	1938495.1102674	1938495.1107436	120.0	3.0	1938496.8607636
1117.91845703125	0.0	40	2289497	87	70	170	1	0	1938484.2949698	1938484.295384	80	1938487.641996	1938487.6424726	40	1938490.9059725	1938490.9064685	100	del	1938494.5959342	1938495.1102674	1938495.1107436	120.0	3.0	1938496.8607636
1121.1826171875	0.0	100	2296182	87	70	170	1	0	1938484.2949698	1938484.295384	80	1938487.641996	1938487.6424726	40	1938490.9059725	1938490.9064685	100	del	1938494.5959342	1938495.1102674	1938495.1107436	120.0	3.0	1938496.8607636
1125.38671875	0.0	120	2304792	87	70	170	1	0	1938484.2949698	1938484.295384	80	1938487.641996	1938487.6424726	40	1938490.9059725	1938490.9064685	100	del	1938494.5959342	1938495.1102674	1938495.1107436	120.0	3.0	1938496.8607636
1129.24755859375	0.0	80	2312699	88	50	800	1	1	1938498.9711747	1938498.9716512	80	1938502.2262627	1938502.2267591	40	1938505.3128678	1938505.3134344	100	imm	1938506.0444167	1938506.5581152	1938506.5586212	120.0	3.0	1938507.3566323
1132.50244140625	0.0	40	2319365	88	50	800	1	1	1938498.9711747	1938498.9716512	80	1938502.2262627	1938502.2267591	40	1938505.3128678	1938505.3134344	100	imm	1938506.0444167	1938506.5581152	1938506.5586212	120.0	3.0	1938507.3566323
1135.58935546875	0.0	100	2325687	88	50	800	1	1	1938498.9711747	1938498.9716512	80	1938502.2262627	1938502.2267591	40	1938505.3128678	1938505.3134344	100	imm	1938506.0444167	1938506.5581152	1938506.5586212	120.0	3.0	1938507.3566323
1136.83447265625	0.0	120	2328237	88	50	800	1	1	1938498.9711747	1938498.9716512	80	1938502.2262627	1938502.2267591	40	1938505.3128678	1938505.3134344	100	imm	1938506.0444167	1938506.5581152	1938506.5586212	120.0	3.0	1938507.3566323
1139.6767578125	0.0	80	2334058	89	87	800	1	0	1938509.4006043	1938509.4010868	80	1938512.8337113	1938512.8341759	40	1938516.128584	1938516.1290914	100	imm	1938519.4679712	1938519.9843906	1938519.9849311	120.0	2.0	1938521.0920666
1143.10986328125	0.0	40	2341089	89	87	800	1	0	1938509.4006043	1938509.4010868	80	1938512.8337113	1938512.8341759	40	1938516.128584	1938516.1290914	100	imm	1938519.4679712	1938519.9843906	1938519.9849311	120.0	2.0	1938521.0920666
1146.40478515625	0.0	100	2347837	89	87	800	1	0	1938509.4006043	1938509.4010868	80	1938512.8337113	1938512.8341759	40	1938516.128584	1938516.1290914	100	imm	1938519.4679712	1938519.9843906	1938519.9849311	120.0	2.0	1938521.0920666
1150.26025390625	0.0	120	2355733	89	87	800	1	0	1938509.4006043	1938509.4010868	80	1938512.8337113	1938512.8341759	40	1938516.128584	1938516.1290914	100	imm	1938519.4679712	1938519.9843906	1938519.9849311	120.0	2.0	1938521.0920666
1153.8486328125	0.0	80	2363082	90	93	50	0	0	1938523.5728606	1938523.573408	80	1938526.9298266	1938526.9302933	40	1938530.2346968	1938530.2352025	100	del	1938535.9960232	nan	nan	nan	nan	nan
1157.20556640625	0.0	40	2369957	90	93	50	0	0	1938523.5728606	1938523.573408	80	1938526.9298266	1938526.9302933	40	1938530.2346968	1938530.2352025	100	del	1938535.9960232	nan	nan	nan	nan	nan
1160.51025390625	0.0	100	2376725	90	93	50	0	0	1938523.5728606	1938523.573408	80	1938526.9298266	1938526.9302933	40	1938530.2346968	1938530.2352025	100	del	1938535.9960232	nan	nan	nan	nan	nan
1169.197265625	0.0	80	2394516	91	67	260	0	1	1938538.921811	1938538.9222262	80	1938542.3690937	1938542.3694992	40	1938545.8793578	1938545.8798348	100	imm	1938547.075608	nan	nan	nan	nan	nan
1172.64453125	0.0	40	2401576	91	67	260	0	1	1938538.921811	1938538.9222262	80	1938542.3690937	1938542.3694992	40	1938545.8793578	1938545.8798348	100	imm	1938547.075608	nan	nan	nan	nan	nan
1176.15478515625	0.0	100	2408765	91	67	260	0	1	1938538.921811	1938538.9222262	80	1938542.3690937	1938542.3694992	40	1938545.8793578	1938545.8798348	100	imm	1938547.075608	nan	nan	nan	nan	nan
1179.87353515625	0.0	80	2416381	92	57	22	1	0	1938549.5982305	1938549.5986815	80	1938553.0379525	1938553.0384465	40	1938556.3570823	1938556.3575903	100	del	1938557.0764403	1938557.5883521	1938557.5886797	120.0	2.0	1938559.8436953
1183.31298828125	0.0	40	2423425	92	57	22	1	0	1938549.5982305	1938549.5986815	80	1938553.0379525	1938553.0384465	40	1938556.3570823	1938556.3575903	100	del	1938557.0764403	1938557.5883521	1938557.5886797	120.0	2.0	1938559.8436953
1186.63232421875	0.0	100	2430223	92	57	22	1	0	1938549.5982305	1938549.5986815	80	1938553.0379525	1938553.0384465	40	1938556.3570823	1938556.3575903	100	del	1938557.0764403	1938557.5883521	1938557.5886797	120.0	2.0	1938559.8436953
1187.86328125	0.0	120	2432744	92	57	22	1	0	1938549.5982305	1938549.5986815	80	1938553.0379525	1938553.0384465	40	1938556.3570823	1938556.3575903	100	del	1938557.0764403	1938557.5883521	1938557.5886797	120.0	2.0	1938559.8436953
1192.62890625	0.0	80	2442504	93	100	50	0	0	1938562.3540266	1938562.3544947	80	1938565.6265373	1938565.6269763	40	1938568.8800532	1938568.8805562	100	del	1938569.7156749	nan	nan	nan	nan	nan
1195.9013671875	0.0	40	2449206	93	100	50	0	0	1938562.3540266	1938562.3544947	80	1938565.6265373	1938565.6269763	40	1938568.8800532	1938568.8805562	100	del	1938569.7156749	nan	nan	nan	nan	nan
1199.15478515625	0.0	100	2455869	93	100	50	0	0	1938562.3540266	1938562.3544947	80	1938565.6265373	1938565.6269763	40	1938568.8800532	1938568.8805562	100	del	1938569.7156749	nan	nan	nan	nan	nan
1202.9091796875	0.0	80	2463558	94	77	560	0	0	1938572.6346811	1938572.6351561	80	1938575.7565467	1938575.7570317	40	1938579.0184773	1938579.0189683	100	imm	1938580.5962118	nan	nan	nan	nan	nan
1206.03125	0.0	40	2469952	94	77	560	0	0	1938572.6346811	1938572.6351561	80	1938575.7565467	1938575.7570317	40	1938579.0184773	1938579.0189683	100	imm	1938580.5962118	nan	nan	nan	nan	nan
1209.29296875	0.0	100	2476632	94	77	560	0	0	1938572.6346811	1938572.6351561	80	1938575.7565467	1938575.7570317	40	1938579.0184773	1938579.0189683	100	imm	1938580.5962118	nan	nan	nan	nan	nan
1213.83837890625	0.0	80	2485941	95	60	260	0	0	1938583.564118	1938583.5646532	80	1938586.859518	1938586.8600133	40	1938590.2953461	1938590.2958506	100	del	1938593.3315155	nan	nan	nan	nan	nan
1217.1337890625	0.0	40	2492690	95	60	260	0	0	1938583.564118	1938583.5646532	80	1938586.859518	1938586.8600133	40	1938590.2953461	1938590.2958506	100	del	1938593.3315155	nan	nan	nan	nan	nan
1220.5693359375	0.0	100	2499726	95	60	260	0	0	1938583.564118	1938583.5646532	80	1938586.859518	1938586.8600133	40	1938590.2953461	1938590.2958506	100	del	1938593.3315155	nan	nan	nan	nan	nan
1226.4931640625	0.0	80	2511858	96	50	130	0	0	1938596.2192047	1938596.2197116	80	1938599.5214499	1938599.5220139	40	1938602.6587272	1938602.6591814	100	imm	1938605.4774583	nan	nan	nan	nan	nan
1229.79541015625	0.0	40	2518621	96	50	130	0	0	1938596.2192047	1938596.2197116	80	1938599.5214499	1938599.5220139	40	1938602.6587272	1938602.6591814	100	imm	1938605.4774583	nan	nan	nan	nan	nan
1232.9326171875	0.0	100	2525046	96	50	130	0	0	1938596.2192047	1938596.2197116	80	1938599.5214499	1938599.5220139	40	1938602.6587272	1938602.6591814	100	imm	1938605.4774583	nan	nan	nan	nan	nan
1238.60205078125	0.0	80	2536657	97	87	90	1	0	1938608.3285721	1938608.3290411	80	1938611.3777222	1938611.37816	40	1938614.704881	1938614.7054132	100	del	1938615.4839999	1938615.9968472	1938615.9973741	120.0	3.0	1938617.9010112
1241.6513671875	0.0	40	2542902	97	87	90	1	0	1938608.3285721	1938608.3290411	80	1938611.3777222	1938611.37816	40	1938614.704881	1938614.7054132	100	del	1938615.4839999	1938615.9968472	1938615.9973741	120.0	3.0	1938617.9010112
1244.978515625	0.0	100	2549716	97	87	90	1	0	1938608.3285721	1938608.3290411	80	1938611.3777222	1938611.37816	40	1938614.704881	1938614.7054132	100	del	1938615.4839999	1938615.9968472	1938615.9973741	120.0	3.0	1938617.9010112
1246.2705078125	0.0	120	2552362	97	87	90	1	0	1938608.3285721	1938608.3290411	80	1938611.3777222	1938611.37816	40	1938614.704881	1938614.7054132	100	del	1938615.4839999	1938615.9968472	1938615.9973741	120.0	3.0	1938617.9010112
1250.52001953125	0.0	80	2561065	98	90	90	1	0	1938620.2465763	1938620.2470952	80	1938623.6195252	1938623.6200103	40	1938627.0780817	1938627.0785906	100	del	1938629.7973969	1938630.3109538	1938630.3115082	120.0	3.0	1938631.5327918
1253.89306640625	0.0	40	2567973	98	90	90	1	0	1938620.2465763	1938620.2470952	80	1938623.6195252	1938623.6200103	40	1938627.0780817	1938627.0785906	100	del	1938629.7973969	1938630.3109538	1938630.3115082	120.0	3.0	1938631.5327918
1257.3515625	0.0	100	2575056	98	90	90	1	0	1938620.2465763	1938620.2470952	80	1938623.6195252	1938623.6200103	40	1938627.0780817	1938627.0785906	100	del	1938629.7973969	1938630.3109538	1938630.3115082	120.0	3.0	1938631.5327918
1260.583984375	0.0	120	2581676	98	90	90	1	0	1938620.2465763	1938620.2470952	80	1938623.6195252	1938623.6200103	40	1938627.0780817	1938627.0785906	100	del	1938629.7973969	1938630.3109538	1938630.3115082	120.0	3.0	1938631.5327918
1264.3134765625	0.0	80	2589314	99	70	560	0	0	1938634.0405892	1938634.0410453	80	1938637.4333081	1938637.4338163	40	1938640.7377124	1938640.7382253	100	del	1938643.1400818	nan	nan	nan	nan	nan
1267.7060546875	0.0	40	2596262	99	70	560	0	0	1938634.0405892	1938634.0410453	80	1938637.4333081	1938637.4338163	40	1938640.7377124	1938640.7382253	100	del	1938643.1400818	nan	nan	nan	nan	nan
1271.0107421875	0.0	100	2603030	99	70	560	0	0	1938634.0405892	1938634.0410453	80	1938637.4333081	1938637.4338163	40	1938640.7377124	1938640.7382253	100	del	1938643.1400818	nan	nan	nan	nan	nan
1276.39599609375	0.0	80	2614059	100	73	390	1	1	1938646.1231204	1938646.1236218	80	1938649.4207034	1938649.4211829	40	1938652.4420215	1938652.4424982	100	imm	1938654.2595389	1938654.7731731	1938654.773719	120.0	3.0	1938655.7088779
1279.693359375	0.0	40	2620812	100	73	390	1	1	1938646.1231204	1938646.1236218	80	1938649.4207034	1938649.4211829	40	1938652.4420215	1938652.4424982	100	imm	1938654.2595389	1938654.7731731	1938654.773719	120.0	3.0	1938655.7088779
1282.71484375	0.0	100	2627000	100	73	390	1	1	1938646.1231204	1938646.1236218	80	1938649.4207034	1938649.4211829	40	1938652.4420215	1938652.4424982	100	imm	1938654.2595389	1938654.7731731	1938654.773719	120.0	3.0	1938655.7088779
1285.0458984375	0.0	120	2631774	100	73	390	1	1	1938646.1231204	1938646.1236218	80	1938649.4207034	1938649.4211829	40	1938652.4420215	1938652.4424982	100	imm	1938654.2595389	1938654.7731731	1938654.773719	120.0	3.0	1938655.7088779
1306.22216796875	0.0	80	2675143	101	50	90	1	0	1938675.9500483	1938675.9504923	80	1938679.3889961	1938679.3894815	40	1938682.6449171	1938682.6454012	100	del	1938684.3409472	1938684.8545443	1938684.8550194	120.0	3.0	1938686.156307
1309.6611328125	0.0	40	2682186	101	50	90	1	0	1938675.9500483	1938675.9504923	80	1938679.3889961	1938679.3894815	40	1938682.6449171	1938682.6454012	100	del	1938684.3409472	1938684.8545443	1938684.8550194	120.0	3.0	1938686.156307
1312.9169921875	0.0	100	2688854	101	50	90	1	0	1938675.9500483	1938675.9504923	80	1938679.3889961	1938679.3894815	40	1938682.6449171	1938682.6454012	100	del	1938684.3409472	1938684.8545443	1938684.8550194	120.0	3.0	1938686.156307
1315.12646484375	0.0	120	2693379	101	50	90	1	0	1938675.9500483	1938675.9504923	80	1938679.3889961	1938679.3894815	40	1938682.6449171	1938682.6454012	100	del	1938684.3409472	1938684.8545443	1938684.8550194	120.0	3.0	1938686.156307
1318.8671875	0.0	80	2701040	102	73	260	0	1	1938688.5956104	1938688.5961194	80	1938691.7094083	1938691.7098918	40	1938694.9991841	1938694.9996539	100	del	1938696.8918917	nan	nan	nan	nan	nan
1321.98095703125	0.0	40	2707417	102	73	260	0	1	1938688.5956104	1938688.5961194	80	1938691.7094083	1938691.7098918	40	1938694.9991841	1938694.9996539	100	del	1938696.8918917	nan	nan	nan	nan	nan
1325.2705078125	0.0	100	2714154	102	73	260	0	1	1938688.5956104	1938688.5961194	80	1938691.7094083	1938691.7098918	40	1938694.9991841	1938694.9996539	100	del	1938696.8918917	nan	nan	nan	nan	nan
1329.99560546875	0.0	80	2723831	103	67	50	0	1	1938699.7241326	1938699.7247091	80	1938702.7477951	1938702.7482868	40	1938706.0679022	1938706.068333	100	imm	1938708.8916119	nan	nan	nan	nan	nan
1333.01904296875	0.0	40	2730023	103	67	50	0	1	1938699.7241326	1938699.7247091	80	1938702.7477951	1938702.7482868	40	1938706.0679022	1938706.068333	100	imm	1938708.8916119	nan	nan	nan	nan	nan
1336.33935546875	0.0	100	2736823	103	67	50	0	1	1938699.7241326	1938699.7247091	80	1938702.7477951	1938702.7482868	40	1938706.0679022	1938706.068333	100	imm	1938708.8916119	nan	nan	nan	nan	nan
1341.859375	0.0	80	2748128	104	90	1150	0	1	1938711.5880798	1938711.5883989	80	1938714.6204336	1938714.6208923	40	1938717.8798364	1938717.8803474	100	imm	1938720.8921979	nan	nan	nan	nan	nan
1344.8916015625	0.0	40	2754338	104	90	1150	0	1	1938711.5880798	1938711.5883989	80	1938714.6204336	1938714.6208923	40	1938717.8798364	1938717.8803474	100	imm	1938720.8921979	nan	nan	nan	nan	nan
1348.15087890625	0.0	100	2761013	104	90	1150	0	1	1938711.5880798	1938711.5883989	80	1938714.6204336	1938714.6208923	40	1938717.8798364	1938717.8803474	100	imm	1938720.8921979	nan	nan	nan	nan	nan
1353.779296875	0.0	80	2772540	105	90	22	1	1	1938723.5085276	1938723.5090086	80	1938726.5775354	1938726.5780588	40	1938729.6937938	1938729.6943216	100	del	1938730.299927	1938730.813975	1938730.814406	120.0	3.0	1938731.8759551
1356.84814453125	0.0	40	2778825	105	90	22	1	1	1938723.5085276	1938723.5090086	80	1938726.5775354	1938726.5780588	40	1938729.6937938	1938729.6943216	100	del	1938730.299927	1938730.813975	1938730.814406	120.0	3.0	1938731.8759551
1359.96435546875	0.0	100	2785207	105	90	22	1	1	1938723.5085276	1938723.5090086	80	1938726.5775354	1938726.5780588	40	1938729.6937938	1938729.6943216	100	del	1938730.299927	1938730.813975	1938730.814406	120.0	3.0	1938731.8759551
1361.08447265625	0.0	120	2787501	105	90	22	1	1	1938723.5085276	1938723.5090086	80	1938726.5775354	1938726.5780588	40	1938729.6937938	1938729.6943216	100	del	1938730.299927	1938730.813975	1938730.814406	120.0	3.0	1938731.8759551
1364.236328125	0.0	80	2793956	106	53	22	1	0	1938733.9657923	1938733.9663102	80	1938737.0680808	1938737.0685741	40	1938740.1022974	1938740.1028267	100	del	1938741.2771095	1938741.7893597	1938741.7897994	120.0	3.0	1938742.7561599
1367.33837890625	0.0	40	2800309	106	53	22	1	0	1938733.9657923	1938733.9663102	80	1938737.0680808	1938737.0685741	40	1938740.1022974	1938740.1028267	100	del	1938741.2771095	1938741.7893597	1938741.7897994	120.0	3.0	1938742.7561599
1370.37255859375	0.0	100	2806523	106	53	22	1	0	1938733.9657923	1938733.9663102	80	1938737.0680808	1938737.0685741	40	1938740.1022974	1938740.1028267	100	del	1938741.2771095	1938741.7893597	1938741.7897994	120.0	3.0	1938742.7561599
1372.0595703125	0.0	120	2809978	106	53	22	1	0	1938733.9657923	1938733.9663102	80	1938737.0680808	1938737.0685741	40	1938740.1022974	1938740.1028267	100	del	1938741.2771095	1938741.7893597	1938741.7897994	120.0	3.0	1938742.7561599
1375.36083984375	0.0	80	2816739	107	63	1150	0	0	1938745.0903977	1938745.0908925	80	1938748.2395861	1938748.2400727	40	1938751.5226086	1938751.5230573	100	imm	1938753.5235897	nan	nan	nan	nan	nan
1378.509765625	0.0	40	2823188	107	63	1150	0	0	1938745.0903977	1938745.0908925	80	1938748.2395861	1938748.2400727	40	1938751.5226086	1938751.5230573	100	imm	1938753.5235897	nan	nan	nan	nan	nan
1381.79296875	0.0	100	2829912	107	63	1150	0	0	1938745.0903977	1938745.0908925	80	1938748.2395861	1938748.2400727	40	1938751.5226086	1938751.5230573	100	imm	1938753.5235897	nan	nan	nan	nan	nan
1386.6591796875	0.0	80	2839878	108	50	22	1	1	1938756.3890899	1938756.3895869	80	1938759.6462694	1938759.6467004	40	1938762.9273742	1938762.9278521	100	del	1938764.3011889	1938764.814172	1938764.8146876	120.0	2.0	1938766.3474528
1389.916015625	0.0	40	2846548	108	50	22	1	1	1938756.3890899	1938756.3895869	80	1938759.6462694	1938759.6467004	40	1938762.9273742	1938762.9278521	100	del	1938764.3011889	1938764.814172	1938764.8146876	120.0	2.0	1938766.3474528
1393.197265625	0.0	100	2853268	108	50	22	1	1	1938756.3890899	1938756.3895869	80	1938759.6462694	1938759.6467004	40	1938762.9273742	1938762.9278521	100	del	1938764.3011889	1938764.814172	1938764.8146876	120.0	2.0	1938766.3474528
1395.083984375	0.0	120	2857132	108	50	22	1	1	1938756.3890899	1938756.3895869	80	1938759.6462694	1938759.6467004	40	1938762.9273742	1938762.9278521	100	del	1938764.3011889	1938764.814172	1938764.8146876	120.0	2.0	1938766.3474528
1398.8564453125	0.0	80	2864858	109	100	260	0	1	1938768.586646	1938768.587101	80	1938771.6535712	1938771.6537948	40	1938774.9111485	1938774.911578	100	del	1938777.1716728	nan	nan	nan	nan	nan
1401.92333984375	0.0	40	2871139	109	100	260	0	1	1938768.586646	1938768.587101	80	1938771.6535712	1938771.6537948	40	1938774.9111485	1938774.911578	100	del	1938777.1716728	nan	nan	nan	nan	nan
1405.1806640625	0.0	100	2877810	109	100	260	0	1	1938768.586646	1938768.587101	80	1938771.6535712	1938771.6537948	40	1938774.9111485	1938774.911578	100	del	1938777.1716728	nan	nan	nan	nan	nan
1410.38623046875	0.0	80	2888471	110	90	800	1	0	1938780.1169985	1938780.1174498	80	1938783.561418	1938783.5618874	40	1938786.7095439	1938786.710009	100	del	1938787.9238312	1938788.4377695	1938788.438296	120.0	4.0	1938789.9951923
1413.83056640625	0.0	40	2895525	110	90	800	1	0	1938780.1169985	1938780.1174498	80	1938783.561418	1938783.5618874	40	1938786.7095439	1938786.710009	100	del	1938787.9238312	1938788.4377695	1938788.438296	120.0	4.0	1938789.9951923
1416.97900390625	0.0	100	2901973	110	90	800	1	0	1938780.1169985	1938780.1174498	80	1938783.561418	1938783.5618874	40	1938786.7095439	1938786.710009	100	del	1938787.9238312	1938788.4377695	1938788.438296	120.0	4.0	1938789.9951923
1418.70703125	0.0	120	2905512	110	90	800	1	0	1938780.1169985	1938780.1174498	80	1938783.561418	1938783.5618874	40	1938786.7095439	1938786.710009	100	del	1938787.9238312	1938788.4377695	1938788.438296	120.0	4.0	1938789.9951923
1422.38525390625	0.0	80	2913045	111	60	800	1	1	1938792.1162559	1938792.1167697	80	1938795.4062004	1938795.4066808	40	1938798.7392783	1938798.739739	100	del	1938799.8039644	1938800.3174263	1938800.3179231	120.0	3.0	1938803.2513497
1425.67529296875	0.0	40	2919783	111	60	800	1	1	1938792.1162559	1938792.1167697	80	1938795.4062004	1938795.4066808	40	1938798.7392783	1938798.739739	100	del	1938799.8039644	1938800.3174263	1938800.3179231	120.0	3.0	1938803.2513497
1429.00830078125	0.0	100	2926609	111	60	800	1	1	1938792.1162559	1938792.1167697	80	1938795.4062004	1938795.4066808	40	1938798.7392783	1938798.739739	100	del	1938799.8039644	1938800.3174263	1938800.3179231	120.0	3.0	1938803.2513497
1430.58642578125	0.0	120	2929841	111	60	800	1	1	1938792.1162559	1938792.1167697	80	1938795.4062004	1938795.4066808	40	1938798.7392783	1938798.739739	100	del	1938799.8039644	1938800.3174263	1938800.3179231	120.0	3.0	1938803.2513497
1435.744140625	0.0	80	2940404	112	77	170	1	0	1938805.4751781	1938805.4756184	80	1938808.5859827	1938808.5864388	40	1938812.0726059	1938812.0731519	100	del	1938814.6368295	1938815.1504316	1938815.1509181	120.0	2.0	1938816.4035532
1438.8544921875	0.0	40	2946774	112	77	170	1	0	1938805.4751781	1938805.4756184	80	1938808.5859827	1938808.5864388	40	1938812.0726059	1938812.0731519	100	del	1938814.6368295	1938815.1504316	1938815.1509181	120.0	2.0	1938816.4035532
1442.34130859375	0.0	100	2953915	112	77	170	1	0	1938805.4751781	1938805.4756184	80	1938808.5859827	1938808.5864388	40	1938812.0726059	1938812.0731519	100	del	1938814.6368295	1938815.1504316	1938815.1509181	120.0	2.0	1938816.4035532
1445.4189453125	0.0	120	2960218	112	77	170	1	0	1938805.4751781	1938805.4756184	80	1938808.5859827	1938808.5864388	40	1938812.0726059	1938812.0731519	100	del	1938814.6368295	1938815.1504316	1938815.1509181	120.0	2.0	1938816.4035532
1448.72900390625	0.0	80	2966997	113	93	260	0	0	1938818.4604338	1938818.4611226	80	1938821.5210687	1938821.5215266	40	1938824.6048089	1938824.6053416	100	del	1938825.9155058	nan	nan	nan	nan	nan
1451.78955078125	0.0	40	2973265	113	93	260	0	0	1938818.4604338	1938818.4611226	80	1938821.5210687	1938821.5215266	40	1938824.6048089	1938824.6053416	100	del	1938825.9155058	nan	nan	nan	nan	nan
1454.873046875	0.0	100	2979580	113	93	260	0	0	1938818.4604338	1938818.4611226	80	1938821.5210687	1938821.5215266	40	1938824.6048089	1938824.6053416	100	del	1938825.9155058	nan	nan	nan	nan	nan
1458.7861328125	0.0	80	2987594	114	97	560	0	0	1938828.5180988	1938828.5184888	80	1938831.8337885	1938831.8339387	40	1938835.1336521	1938835.1341604	100	del	1938835.8527926	nan	nan	nan	nan	nan
1462.10205078125	0.0	40	2994385	114	97	560	0	0	1938828.5180988	1938828.5184888	80	1938831.8337885	1938831.8339387	40	1938835.1336521	1938835.1341604	100	del	1938835.8527926	nan	nan	nan	nan	nan
1465.40185546875	0.0	100	3001143	114	97	560	0	0	1938828.5180988	1938828.5184888	80	1938831.8337885	1938831.8339387	40	1938835.1336521	1938835.1341604	100	del	1938835.8527926	nan	nan	nan	nan	nan
1468.66845703125	0.0	80	3007833	115	63	22	1	0	1938838.4003314	1938838.4008035	80	1938841.8738095	1938841.8742715	40	1938845.2468657	1938845.2471605	100	del	1938846.6917192	1938847.2048727	1938847.2053316	120.0	3.0	1938848.2033846
1472.1416015625	0.0	40	3014946	115	63	22	1	0	1938838.4003314	1938838.4008035	80	1938841.8738095	1938841.8742715	40	1938845.2468657	1938845.2471605	100	del	1938846.6917192	1938847.2048727	1938847.2053316	120.0	3.0	1938848.2033846
1475.5146484375	0.0	100	3021854	115	63	22	1	0	1938838.4003314	1938838.4008035	80	1938841.8738095	1938841.8742715	40	1938845.2468657	1938845.2471605	100	del	1938846.6917192	1938847.2048727	1938847.2053316	120.0	3.0	1938848.2033846
1477.47265625	0.0	120	3025864	115	63	22	1	0	1938838.4003314	1938838.4008035	80	1938841.8738095	1938841.8742715	40	1938845.2468657	1938845.2471605	100	del	1938846.6917192	1938847.2048727	1938847.2053316	120.0	3.0	1938848.2033846
1480.85595703125	0.0	80	3032793	116	60	390	1	1	1938850.5882499	1938850.5886829	80	1938853.6283559	1938853.6288435	40	1938857.0708944	1938857.0713479	100	imm	1938859.2997489	1938859.8136963	1938859.8141859	120.0	2.0	1938860.9635802
1483.89599609375	0.0	40	3039019	116	60	390	1	1	1938850.5882499	1938850.5886829	80	1938853.6283559	1938853.6288435	40	1938857.0708944	1938857.0713479	100	imm	1938859.2997489	1938859.8136963	1938859.8141859	120.0	2.0	1938860.9635802
1487.33837890625	0.0	100	3046069	116	60	390	1	1	1938850.5882499	1938850.5886829	80	1938853.6283559	1938853.6288435	40	1938857.0708944	1938857.0713479	100	imm	1938859.2997489	1938859.8136963	1938859.8141859	120.0	2.0	1938860.9635802
1490.0810546875	0.0	120	3051686	116	60	390	1	1	1938850.5882499	1938850.5886829	80	1938853.6283559	1938853.6288435	40	1938857.0708944	1938857.0713479	100	imm	1938859.2997489	1938859.8136963	1938859.8141859	120.0	2.0	1938860.9635802
1493.71435546875	0.0	80	3059127	117	90	130	0	1	1938863.4469542	1938863.4473625	80	1938866.946947	1938866.947336	40	1938870.3899929	1938870.3904678	100	del	1938872.0928577	nan	nan	nan	nan	nan
1497.21435546875	0.0	40	3066295	117	90	130	0	1	1938863.4469542	1938863.4473625	80	1938866.946947	1938866.947336	40	1938870.3899929	1938870.3904678	100	del	1938872.0928577	nan	nan	nan	nan	nan
1500.6572265625	0.0	100	3073346	117	90	130	0	1	1938863.4469542	1938863.4473625	80	1938866.946947	1938866.947336	40	1938870.3899929	1938870.3904678	100	del	1938872.0928577	nan	nan	nan	nan	nan
1505.271484375	0.0	80	3082796	118	90	560	0	0	1938875.0041206	1938875.0047102	80	1938878.2683316	1938878.2688928	40	1938881.3713932	1938881.3719047	100	del	1938882.3159052	nan	nan	nan	nan	nan
1508.53515625	0.0	40	3089480	118	90	560	0	0	1938875.0041206	1938875.0047102	80	1938878.2683316	1938878.2688928	40	1938881.3713932	1938881.3719047	100	del	1938882.3159052	nan	nan	nan	nan	nan
1511.63818359375	0.0	100	3095835	118	90	560	0	0	1938875.0041206	1938875.0047102	80	1938878.2683316	1938878.2688928	40	1938881.3713932	1938881.3719047	100	del	1938882.3159052	nan	nan	nan	nan	nan
1515.2998046875	0.0	80	3103334	119	53	390	1	1	1938885.0328409	1938885.0333125	80	1938888.107453	1938888.1080063	40	1938891.1370244	1938891.1375583	100	imm	1938891.7471743	1938892.2609437	1938892.2615163	120.0	3.0	1938893.4916481
1518.3740234375	0.0	40	3109630	119	53	390	1	1	1938885.0328409	1938885.0333125	80	1938888.107453	1938888.1080063	40	1938891.1370244	1938891.1375583	100	imm	1938891.7471743	1938892.2609437	1938892.2615163	120.0	3.0	1938893.4916481
1521.40380859375	0.0	100	3115835	119	53	390	1	1	1938885.0328409	1938885.0333125	80	1938888.107453	1938888.1080063	40	1938891.1370244	1938891.1375583	100	imm	1938891.7471743	1938892.2609437	1938892.2615163	120.0	3.0	1938893.4916481
1522.52783203125	0.0	120	3118137	119	53	390	1	1	1938885.0328409	1938885.0333125	80	1938888.107453	1938888.1080063	40	1938891.1370244	1938891.1375583	100	imm	1938891.7471743	1938892.2609437	1938892.2615163	120.0	3.0	1938893.4916481
1526.24365234375	0.0	80	3125747	120	97	260	0	0	1938895.9773077	1938895.9777737	80	1938899.1362759	1938899.1366952	40	1938902.2968061	1938902.2972666	100	del	1938903.8917954	nan	nan	nan	nan	nan
1529.40283203125	0.0	40	3132217	120	97	260	0	0	1938895.9773077	1938895.9777737	80	1938899.1362759	1938899.1366952	40	1938902.2968061	1938902.2972666	100	del	1938903.8917954	nan	nan	nan	nan	nan
1532.56298828125	0.0	100	3138689	120	97	260	0	0	1938895.9773077	1938895.9777737	80	1938899.1362759	1938899.1366952	40	1938902.2968061	1938902.2972666	100	del	1938903.8917954	nan	nan	nan	nan	nan
1557.87744140625	0.0	80	3190533	121	57	800	1	1	1938927.6114429	1938927.611927	80	1938930.8511806	1938930.8514628	40	1938934.1898123	1938934.1903139	100	imm	1938934.7727456	1938935.2867862	1938935.2873268	120.0	3.0	1938936.2126841
1561.11669921875	0.0	40	3197167	121	57	800	1	1	1938927.6114429	1938927.611927	80	1938930.8511806	1938930.8514628	40	1938934.1898123	1938934.1903139	100	imm	1938934.7727456	1938935.2867862	1938935.2873268	120.0	3.0	1938936.2126841
1564.45556640625	0.0	100	3204005	121	57	800	1	1	1938927.6114429	1938927.611927	80	1938930.8511806	1938930.8514628	40	1938934.1898123	1938934.1903139	100	imm	1938934.7727456	1938935.2867862	1938935.2873268	120.0	3.0	1938936.2126841
1565.55224609375	0.0	120	3206251	121	57	800	1	1	1938927.6114429	1938927.611927	80	1938930.8511806	1938930.8514628	40	1938934.1898123	1938934.1903139	100	imm	1938934.7727456	1938935.2867862	1938935.2873268	120.0	3.0	1938936.2126841
1568.50634765625	0.0	80	3212301	122	57	260	0	1	1938938.2408366	1938938.2412467	80	1938941.6694473	1938941.6699578	40	1938944.9619436	1938944.9624758	100	imm	1938947.8033457	nan	nan	nan	nan	nan
1571.93505859375	0.0	40	3219323	122	57	260	0	1	1938938.2408366	1938938.2412467	80	1938941.6694473	1938941.6699578	40	1938944.9619436	1938944.9624758	100	imm	1938947.8033457	nan	nan	nan	nan	nan
1575.2275390625	0.0	100	3226066	122	57	260	0	1	1938938.2408366	1938938.2412467	80	1938941.6694473	1938941.6699578	40	1938944.9619436	1938944.9624758	100	imm	1938947.8033457	nan	nan	nan	nan	nan
1581.013671875	0.0	80	3237916	123	50	50	0	0	1938950.7484493	1938950.7489269	80	1938953.930142	1938953.9306482	40	1938957.1665296	1938957.1669896	100	del	1938957.9068719	nan	nan	nan	nan	nan
1584.1953125	0.0	40	3244432	123	50	50	0	0	1938950.7484493	1938950.7489269	80	1938953.930142	1938953.9306482	40	1938957.1665296	1938957.1669896	100	del	1938957.9068719	nan	nan	nan	nan	nan
1587.431640625	0.0	100	3251060	123	50	50	0	0	1938950.7484493	1938950.7489269	80	1938953.930142	1938953.9306482	40	1938957.1665296	1938957.1669896	100	del	1938957.9068719	nan	nan	nan	nan	nan
1590.7177734375	0.0	80	3257790	124	63	560	0	0	1938960.4528878	1938960.4533554	80	1938963.5489567	1938963.5494161	40	1938966.8932435	1938966.8938498	100	imm	1938967.7246318	nan	nan	nan	nan	nan
1593.81396484375	0.0	40	3264131	124	63	560	0	0	1938960.4528878	1938960.4533554	80	1938963.5489567	1938963.5494161	40	1938966.8932435	1938966.8938498	100	imm	1938967.7246318	nan	nan	nan	nan	nan
1597.158203125	0.0	100	3270980	124	63	560	0	0	1938960.4528878	1938960.4533554	80	1938963.5489567	1938963.5494161	40	1938966.8932435	1938966.8938498	100	imm	1938967.7246318	nan	nan	nan	nan	nan
1600.67333984375	0.0	80	3278179	125	60	22	1	0	1938970.4087011	1938970.4091728	80	1938973.865331	1938973.8657927	40	1938976.9374226	1938976.9378739	100	imm	1938978.3317425	1938978.8464395	1938978.8469548	120.0	3.0	1938981.3084544
1604.1298828125	0.0	40	3285258	125	60	22	1	0	1938970.4087011	1938970.4091728	80	1938973.865331	1938973.8657927	40	1938976.9374226	1938976.9378739	100	imm	1938978.3317425	1938978.8464395	1938978.8469548	120.0	3.0	1938981.3084544
1607.2021484375	0.0	100	3291550	125	60	22	1	0	1938970.4087011	1938970.4091728	80	1938973.865331	1938973.8657927	40	1938976.9374226	1938976.9378739	100	imm	1938978.3317425	1938978.8464395	1938978.8469548	120.0	3.0	1938981.3084544
1609.11083984375	0.0	120	3295459	125	60	22	1	0	1938970.4087011	1938970.4091728	80	1938973.865331	1938973.8657927	40	1938976.9374226	1938976.9378739	100	imm	1938978.3317425	1938978.8464395	1938978.8469548	120.0	3.0	1938981.3084544
1614.0830078125	0.0	80	3305642	126	73	50	0	1	1938983.8187444	1938983.8192618	80	1938987.0963969	1938987.0968795	40	1938990.4662797	1938990.4667316	100	del	1938991.755437	nan	nan	nan	nan	nan
1617.36083984375	0.0	40	3312355	126	73	50	0	1	1938983.8187444	1938983.8192618	80	1938987.0963969	1938987.0968795	40	1938990.4662797	1938990.4667316	100	del	1938991.755437	nan	nan	nan	nan	nan
1620.73046875	0.0	100	3319256	126	73	50	0	1	1938983.8187444	1938983.8192618	80	1938987.0963969	1938987.0968795	40	1938990.4662797	1938990.4667316	100	del	1938991.755437	nan	nan	nan	nan	nan
1625.0380859375	0.0	80	3328078	127	50	560	0	0	1938994.77414	1938994.7746868	80	1938997.9262355	1938997.926752	40	1939001.1471122	1939001.1475824	100	imm	1939003.5244765	nan	nan	nan	nan	nan
1628.1904296875	0.0	40	3334534	127	50	560	0	0	1938994.77414	1938994.7746868	80	1938997.9262355	1938997.926752	40	1939001.1471122	1939001.1475824	100	imm	1939003.5244765	nan	nan	nan	nan	nan
1631.4111328125	0.0	100	3341130	127	50	560	0	0	1938994.77414	1938994.7746868	80	1938997.9262355	1938997.926752	40	1939001.1471122	1939001.1475824	100	imm	1939003.5244765	nan	nan	nan	nan	nan
1636.53857421875	0.0	80	3351631	128	70	22	1	0	1939006.2746249	1939006.2751696	80	1939009.6641787	1939009.6646172	40	1939013.0859992	1939013.0864869	100	del	1939017.3075886	1939017.8207455	1939017.8213583	120.0	3.0	1939018.9165524
1639.927734375	0.0	40	3358572	128	70	22	1	0	1939006.2746249	1939006.2751696	80	1939009.6641787	1939009.6646172	40	1939013.0859992	1939013.0864869	100	del	1939017.3075886	1939017.8207455	1939017.8213583	120.0	3.0	1939018.9165524
1643.349609375	0.0	100	3365580	128	70	22	1	0	1939006.2746249	1939006.2751696	80	1939009.6641787	1939009.6646172	40	1939013.0859992	1939013.0864869	100	del	1939017.3075886	1939017.8207455	1939017.8213583	120.0	3.0	1939018.9165524
1648.08447265625	0.0	120	3375277	128	70	22	1	0	1939006.2746249	1939006.2751696	80	1939009.6641787	1939009.6646172	40	1939013.0859992	1939013.0864869	100	del	1939017.3075886	1939017.8207455	1939017.8213583	120.0	3.0	1939018.9165524
1651.248046875	0.0	80	3381756	129	87	50	0	1	1939020.9846404	1939020.9850946	80	1939024.082279	1939024.0828038	40	1939027.2724122	1939027.2727395	100	imm	1939027.9642162	nan	nan	nan	nan	nan
1654.345703125	0.0	40	3388100	129	87	50	0	1	1939020.9846404	1939020.9850946	80	1939024.082279	1939024.0828038	40	1939027.2724122	1939027.2727395	100	imm	1939027.9642162	nan	nan	nan	nan	nan
1657.53564453125	0.0	100	3394633	129	87	50	0	1	1939020.9846404	1939020.9850946	80	1939024.082279	1939024.0828038	40	1939027.2724122	1939027.2727395	100	imm	1939027.9642162	nan	nan	nan	nan	nan
1660.7763671875	0.0	80	3401270	130	87	260	0	0	1939030.5130003	1939030.5134532	80	1939033.7817705	1939033.782187	40	1939036.9627172	1939036.9631565	100	imm	1939037.8353058	nan	nan	nan	nan	nan
1664.044921875	0.0	40	3407964	130	87	260	0	0	1939030.5130003	1939030.5134532	80	1939033.7817705	1939033.782187	40	1939036.9627172	1939036.9631565	100	imm	1939037.8353058	nan	nan	nan	nan	nan
1667.2255859375	0.0	100	3414478	130	87	260	0	0	1939030.5130003	1939030.5134532	80	1939033.7817705	1939033.782187	40	1939036.9627172	1939036.9631565	100	imm	1939037.8353058	nan	nan	nan	nan	nan
1670.7060546875	0.0	80	3421606	131	67	800	1	1	1939040.4430033	1939040.4434132	80	1939043.5551431	1939043.5556267	40	1939047.0207365	1939047.0211865	100	na	1939050.4749867	1939050.9886166	1939050.9891037	120.0	2.0	1939052.6604749
1673.81787109375	0.0	40	3427979	131	67	800	1	1	1939040.4430033	1939040.4434132	80	1939043.5551431	1939043.5556267	40	1939047.0207365	1939047.0211865	100	na	1939050.4749867	1939050.9886166	1939050.9891037	120.0	2.0	1939052.6604749
1677.28369140625	0.0	100	3435077	131	67	800	1	1	1939040.4430033	1939040.4434132	80	1939043.5551431	1939043.5556267	40	1939047.0207365	1939047.0211865	100	na	1939050.4749867	1939050.9886166	1939050.9891037	120.0	2.0	1939052.6604749
1681.25146484375	0.0	120	3443203	131	67	800	1	1	1939040.4430033	1939040.4434132	80	1939043.5551431	1939043.5556267	40	1939047.0207365	1939047.0211865	100	na	1939050.4749867	1939050.9886166	1939050.9891037	120.0	2.0	1939052.6604749
1685.27685546875	0.0	80	3451447	132	53	170	1	0	1939055.0142993	1939055.0148301	80	1939058.2565455	1939058.2570182	40	1939061.7254647	1939061.7259657	100	imm	1939062.6834827	1939063.1923838	1939063.1927354	120.0	3.0	1939064.3153677
1688.51904296875	0.0	40	3458087	132	53	170	1	0	1939055.0142993	1939055.0148301	80	1939058.2565455	1939058.2570182	40	1939061.7254647	1939061.7259657	100	imm	1939062.6834827	1939063.1923838	1939063.1927354	120.0	3.0	1939064.3153677
1691.98779296875	0.0	100	3465191	132	53	170	1	0	1939055.0142993	1939055.0148301	80	1939058.2565455	1939058.2570182	40	1939061.7254647	1939061.7259657	100	imm	1939062.6834827	1939063.1923838	1939063.1927354	120.0	3.0	1939064.3153677
1693.45458984375	0.0	120	3468195	132	53	170	1	0	1939055.0142993	1939055.0148301	80	1939058.2565455	1939058.2570182	40	1939061.7254647	1939061.7259657	100	imm	1939062.6834827	1939063.1923838	1939063.1927354	120.0	3.0	1939064.3153677
1696.64599609375	0.0	80	3474731	133	80	1150	0	1	1939066.3837573	1939066.3842422	80	1939069.7641611	1939069.764627	40	1939073.1442626	1939073.1447956	100	imm	1939075.3963473	nan	nan	nan	nan	nan
1700.0263671875	0.0	40	3481654	133	80	1150	0	1	1939066.3837573	1939066.3842422	80	1939069.7641611	1939069.764627	40	1939073.1442626	1939073.1447956	100	imm	1939075.3963473	nan	nan	nan	nan	nan
1703.40625	0.0	100	3488576	133	80	1150	0	1	1939066.3837573	1939066.3842422	80	1939069.7641611	1939069.764627	40	1939073.1442626	1939073.1447956	100	imm	1939075.3963473	nan	nan	nan	nan	nan
1708.4560546875	0.0	80	3498918	134	77	390	1	1	1939078.1942344	1939078.1947227	80	1939081.2954259	1939081.2961181	40	1939084.6069227	1939084.607359	100	del	1939086.8992658	1939087.412906	1939087.4134132	120.0	3.0	1939088.3881973
1711.5576171875	0.0	40	3505270	134	77	390	1	1	1939078.1942344	1939078.1947227	80	1939081.2954259	1939081.2961181	40	1939084.6069227	1939084.607359	100	del	1939086.8992658	1939087.412906	1939087.4134132	120.0	3.0	1939088.3881973
1714.86865234375	0.0	100	3512051	134	77	390	1	1	1939078.1942344	1939078.1947227	80	1939081.2954259	1939081.2961181	40	1939084.6069227	1939084.607359	100	del	1939086.8992658	1939087.412906	1939087.4134132	120.0	3.0	1939088.3881973
1717.6748046875	0.0	120	3517798	134	77	390	1	1	1939078.1942344	1939078.1947227	80	1939081.2954259	1939081.2961181	40	1939084.6069227	1939084.607359	100	del	1939086.8992658	1939087.412906	1939087.4134132	120.0	3.0	1939088.3881973
1720.81591796875	0.0	80	3524231	135	93	22	1	0	1939090.5540907	1939090.5545967	80	1939093.6299765	1939093.6305131	40	1939096.7501653	1939096.750662	100	del	1939099.4745027	1939099.9878281	1939099.9883685	120.0	2.0	1939102.1152965
1723.8916015625	0.0	40	3530530	135	93	22	1	0	1939090.5540907	1939090.5545967	80	1939093.6299765	1939093.6305131	40	1939096.7501653	1939096.750662	100	del	1939099.4745027	1939099.9878281	1939099.9883685	120.0	2.0	1939102.1152965
1727.01171875	0.0	100	3536920	135	93	22	1	0	1939090.5540907	1939090.5545967	80	1939093.6299765	1939093.6305131	40	1939096.7501653	1939096.750662	100	del	1939099.4745027	1939099.9878281	1939099.9883685	120.0	2.0	1939102.1152965
1730.24951171875	0.0	120	3543551	135	93	22	1	0	1939090.5540907	1939090.5545967	80	1939093.6299765	1939093.6305131	40	1939096.7501653	1939096.750662	100	del	1939099.4745027	1939099.9878281	1939099.9883685	120.0	2.0	1939102.1152965
