onset	duration	value	sample	trial_idx	val	del	is_cued	rev_opts	del_pres_displaytime	del_pres_triggertime	del_pres_triggercode	val_pres_displaytime	val_pres_triggertime	val_pres_triggercode	choice_displaytime	choice_triggertime	choice_triggercode	choice	choice_time	viv_displaytime	viv_triggertime	viv_triggercode	viv	viv_time
39.31298828125	0.0	80	80513	1	87	720	1	0	79580.8559358	79580.8577022	80	79584.2489549	79584.2507035	40	79587.309107	79587.3108369	100	del	79590.6099482	79591.1207059	79591.1218519	120.0	4.0	79592.8652734
42.7060546875	0.0	40	87462	1	87	720	1	0	79580.8559358	79580.8577022	80	79584.2489549	79584.2507035	40	79587.309107	79587.3108369	100	del	79590.6099482	79591.1207059	79591.1218519	120.0	4.0	79592.8652734
45.76611328125	0.0	100	93729	1	87	720	1	0	79580.8559358	79580.8577022	80	79584.2489549	79584.2507035	40	79587.309107	79587.3108369	100	del	79590.6099482	79591.1207059	79591.1218519	120.0	4.0	79592.8652734
49.578125	0.0	120	101536	1	87	720	1	0	79580.8559358	79580.8577022	80	79584.2489549	79584.2507035	40	79587.309107	79587.3108369	100	del	79590.6099482	79591.1207059	79591.1218519	120.0	4.0	79592.8652734
53.671875	0.0	80	109920	2	97	40	1	1	79595.2149953	79595.215485	80	79598.4812906	79598.4817664	40	79601.5808627	79601.5813572	100	del	79607.6176595	79608.1318313	79608.1322632	120.0	4.0	79611.6898141
56.93798828125	0.0	40	116609	2	97	40	1	1	79595.2149953	79595.215485	80	79598.4812906	79598.4817664	40	79601.5808627	79601.5813572	100	del	79607.6176595	79608.1318313	79608.1322632	120.0	4.0	79611.6898141
60.03759765625	0.0	100	122957	2	97	40	1	1	79595.2149953	79595.215485	80	79598.4812906	79598.4817664	40	79601.5808627	79601.5813572	100	del	79607.6176595	79608.1318313	79608.1322632	120.0	4.0	79611.6898141
66.58837890625	0.0	120	136373	2	97	40	1	1	79595.2149953	79595.215485	80	79598.4812906	79598.4817664	40	79601.5808627	79601.5813572	100	del	79607.6176595	79608.1318313	79608.1322632	120.0	4.0	79611.6898141
72.63134765625	0.0	80	148749	3	97	360	0	0	79614.1750853	79614.1756094	80	79617.4782463	79617.4787236	40	79620.7123274	79620.7127568	100	del	79621.9937077	nan	nan	nan	nan	nan
75.9345703125	0.0	40	155514	3	97	360	0	0	79614.1750853	79614.1756094	80	79617.4782463	79617.4787236	40	79620.7123274	79620.7127568	100	del	79621.9937077	nan	nan	nan	nan	nan
79.16845703125	0.0	100	162137	3	97	360	0	0	79614.1750853	79614.1756094	80	79617.4782463	79617.4787236	40	79620.7123274	79620.7127568	100	del	79621.9937077	nan	nan	nan	nan	nan
83.4384765625	0.0	80	170882	4	53	40	1	1	79624.9824754	79624.9831305	80	79628.3182699	79628.3186817	40	79631.5575369	79631.5582628	100	imm	79633.1056855	79633.6149105	79633.6152449	120.0	4.0	79635.241738
86.7744140625	0.0	40	177714	4	53	40	1	1	79624.9824754	79624.9831305	80	79628.3182699	79628.3186817	40	79631.5575369	79631.5582628	100	imm	79633.1056855	79633.6149105	79633.6152449	120.0	4.0	79635.241738
90.013671875	0.0	100	184348	4	53	40	1	1	79624.9824754	79624.9831305	80	79628.3182699	79628.3186817	40	79631.5575369	79631.5582628	100	imm	79633.1056855	79633.6149105	79633.6152449	120.0	4.0	79635.241738
92.07080078125	0.0	120	188561	4	53	40	1	1	79624.9824754	79624.9831305	80	79628.3182699	79628.3186817	40	79631.5575369	79631.5582628	100	imm	79633.1056855	79633.6149105	79633.6152449	120.0	4.0	79635.241738
96.1328125	0.0	80	196880	5	67	720	1	0	79637.6772846	79637.6777569	80	79640.949771	79640.9501719	40	79644.2415076	79644.2420639	100	del	79647.2494431	79647.7601887	79647.7604902	120.0	4.0	79648.7140429
99.4052734375	0.0	40	203582	5	67	720	1	0	79637.6772846	79637.6777569	80	79640.949771	79640.9501719	40	79644.2415076	79644.2420639	100	del	79647.2494431	79647.7601887	79647.7604902	120.0	4.0	79648.7140429
102.697265625	0.0	100	210324	5	67	720	1	0	79637.6772846	79637.6777569	80	79640.949771	79640.9501719	40	79644.2415076	79644.2420639	100	del	79647.2494431	79647.7601887	79647.7604902	120.0	4.0	79648.7140429
106.2158203125	0.0	120	217530	5	67	720	1	0	79637.6772846	79637.6777569	80	79640.949771	79640.9501719	40	79644.2415076	79644.2420639	100	del	79647.2494431	79647.7601887	79647.7604902	120.0	4.0	79648.7140429
109.525390625	0.0	80	224308	6	93	180	1	0	79651.070223	79651.070693	80	79654.2616982	79654.2620966	40	79657.3950962	79657.3955845	100	del	79658.4591211	79658.9704099	79658.9708325	120.0	4.0	79660.5536985
112.716796875	0.0	40	230844	6	93	180	1	0	79651.070223	79651.070693	80	79654.2616982	79654.2620966	40	79657.3950962	79657.3955845	100	del	79658.4591211	79658.9704099	79658.9708325	120.0	4.0	79660.5536985
115.85009765625	0.0	100	237261	6	93	180	1	0	79651.070223	79651.070693	80	79654.2616982	79654.2620966	40	79657.3950962	79657.3955845	100	del	79658.4591211	79658.9704099	79658.9708325	120.0	4.0	79660.5536985
117.42578125	0.0	120	240488	6	93	180	1	0	79651.070223	79651.070693	80	79654.2616982	79654.2620966	40	79657.3950962	79657.3955845	100	del	79658.4591211	79658.9704099	79658.9708325	120.0	4.0	79660.5536985
121.314453125	0.0	80	248452	7	60	1440	0	0	79662.8591902	79662.8596962	80	79666.3002897	79666.3007864	40	79669.5169216	79669.5174199	100	del	79671.625698	nan	nan	nan	nan	nan
124.75537109375	0.0	40	255499	7	60	1440	0	0	79662.8591902	79662.8596962	80	79666.3002897	79666.3007864	40	79669.5169216	79669.5174199	100	del	79671.625698	nan	nan	nan	nan	nan
127.9716796875	0.0	100	262086	7	60	1440	0	0	79662.8591902	79662.8596962	80	79666.3002897	79666.3007864	40	79669.5169216	79669.5174199	100	del	79671.625698	nan	nan	nan	nan	nan
132.654296875	0.0	80	271676	8	63	720	1	1	79674.1997112	79674.2001968	80	79677.4310712	79677.4315896	40	79680.5948844	79680.5953636	100	imm	79684.2020829	79684.7126807	79684.7130442	120.0	2.0	79686.3071928
135.8857421875	0.0	40	278294	8	63	720	1	1	79674.1997112	79674.2001968	80	79677.4310712	79677.4315896	40	79680.5948844	79680.5953636	100	imm	79684.2020829	79684.7126807	79684.7130442	120.0	2.0	79686.3071928
139.04931640625	0.0	100	284773	8	63	720	1	1	79674.1997112	79674.2001968	80	79677.4310712	79677.4315896	40	79680.5948844	79680.5953636	100	imm	79684.2020829	79684.7126807	79684.7130442	120.0	2.0	79686.3071928
143.1669921875	0.0	120	293206	8	63	720	1	1	79674.1997112	79674.2001968	80	79677.4310712	79677.4315896	40	79680.5948844	79680.5953636	100	imm	79684.2020829	79684.7126807	79684.7130442	120.0	2.0	79686.3071928
146.97802734375	0.0	80	301011	9	87	90	0	0	79688.5236518	79688.5241314	80	79691.9481473	79691.9486686	40	79695.163891	79695.1643826	100	del	79696.0257496	nan	nan	nan	nan	nan
150.40234375	0.0	40	308024	9	87	90	0	0	79688.5236518	79688.5241314	80	79691.9481473	79691.9486686	40	79695.163891	79695.1643826	100	del	79696.0257496	nan	nan	nan	nan	nan
153.6181640625	0.0	100	314610	9	87	90	0	0	79688.5236518	79688.5241314	80	79691.9481473	79691.9486686	40	79695.163891	79695.1643826	100	del	79696.0257496	nan	nan	nan	nan	nan
157.193359375	0.0	80	321932	10	70	180	1	0	79698.7391214	79698.739629	80	79701.9271469	79701.9276551	40	79705.0105966	79705.0110701	100	del	79706.6173693	79707.1263931	79707.1267678	120.0	3.0	79708.3544398
160.38134765625	0.0	40	328461	10	70	180	1	0	79698.7391214	79698.739629	80	79701.9271469	79701.9276551	40	79705.0105966	79705.0110701	100	del	79706.6173693	79707.1263931	79707.1267678	120.0	3.0	79708.3544398
163.46435546875	0.0	100	334775	10	70	180	1	0	79698.7391214	79698.739629	80	79701.9271469	79701.9276551	40	79705.0105966	79705.0110701	100	del	79706.6173693	79707.1263931	79707.1267678	120.0	3.0	79708.3544398
165.580078125	0.0	120	339108	10	70	180	1	0	79698.7391214	79698.739629	80	79701.9271469	79701.9276551	40	79705.0105966	79705.0110701	100	del	79706.6173693	79707.1263931	79707.1267678	120.0	3.0	79708.3544398
168.953125	0.0	80	346016	11	67	180	1	1	79710.4991521	79710.4996857	80	79713.549461	79713.5498782	40	79716.7767938	79716.7772668	100	del	79720.881815	79721.3946663	79721.3952657	120.0	3.0	79723.3787671
172.00341796875	0.0	40	352263	11	67	180	1	1	79710.4991521	79710.4996857	80	79713.549461	79713.5498782	40	79716.7767938	79716.7772668	100	del	79720.881815	79721.3946663	79721.3952657	120.0	3.0	79723.3787671
175.23046875	0.0	100	358872	11	67	180	1	1	79710.4991521	79710.4996857	80	79713.549461	79713.5498782	40	79716.7767938	79716.7772668	100	del	79720.881815	79721.3946663	79721.3952657	120.0	3.0	79723.3787671
179.84814453125	0.0	120	368329	11	67	180	1	1	79710.4991521	79710.4996857	80	79713.549461	79713.5498782	40	79716.7767938	79716.7772668	100	del	79720.881815	79721.3946663	79721.3952657	120.0	3.0	79723.3787671
183.9775390625	0.0	80	376786	12	100	360	0	0	79725.5239637	79725.5244915	80	79728.6813712	79728.6818517	40	79731.906831	79731.9073322	100	del	79733.7693687	nan	nan	nan	nan	nan
187.134765625	0.0	40	383252	12	100	360	0	0	79725.5239637	79725.5244915	80	79728.6813712	79728.6818517	40	79731.906831	79731.9073322	100	del	79733.7693687	nan	nan	nan	nan	nan
190.3603515625	0.0	100	389858	12	100	360	0	0	79725.5239637	79725.5244915	80	79728.6813712	79728.6818517	40	79731.906831	79731.9073322	100	del	79733.7693687	nan	nan	nan	nan	nan
194.7978515625	0.0	80	398946	13	90	40	1	1	79736.3446782	79736.3451823	80	79739.5998229	79739.6003402	40	79742.9674305	79742.968006	100	del	79746.1218885	79746.6352443	79746.6356936	120.0	4.0	79747.6491917
198.052734375	0.0	40	405612	13	90	40	1	1	79736.3446782	79736.3451823	80	79739.5998229	79739.6003402	40	79742.9674305	79742.968006	100	del	79746.1218885	79746.6352443	79746.6356936	120.0	4.0	79747.6491917
201.42041015625	0.0	100	412509	13	90	40	1	1	79736.3446782	79736.3451823	80	79739.5998229	79739.6003402	40	79742.9674305	79742.968006	100	del	79746.1218885	79746.6352443	79746.6356936	120.0	4.0	79747.6491917
205.08837890625	0.0	120	420021	13	90	40	1	1	79736.3446782	79736.3451823	80	79739.5998229	79739.6003402	40	79742.9674305	79742.968006	100	del	79746.1218885	79746.6352443	79746.6356936	120.0	4.0	79747.6491917
208.2412109375	0.0	80	426478	14	100	40	1	0	79749.7882571	79749.7888334	80	79753.1885757	79753.1890854	40	79756.2388643	79756.2393419	100	del	79757.5777291	79758.0910361	79758.0915333	120.0	4.0	79758.9533331
211.64111328125	0.0	40	433441	14	100	40	1	0	79749.7882571	79749.7888334	80	79753.1885757	79753.1890854	40	79756.2388643	79756.2393419	100	del	79757.5777291	79758.0910361	79758.0915333	120.0	4.0	79758.9533331
214.69140625	0.0	100	439688	14	100	40	1	0	79749.7882571	79749.7888334	80	79753.1885757	79753.1890854	40	79756.2388643	79756.2393419	100	del	79757.5777291	79758.0910361	79758.0915333	120.0	4.0	79758.9533331
216.54345703125	0.0	120	443481	14	100	40	1	0	79749.7882571	79749.7888334	80	79753.1885757	79753.1890854	40	79756.2388643	79756.2393419	100	del	79757.5777291	79758.0910361	79758.0915333	120.0	4.0	79758.9533331
219.62109375	0.0	80	449784	15	77	720	1	0	79761.1685671	79761.1690644	80	79764.1783682	79764.1787827	40	79767.3022133	79767.3027337	100	del	79768.9611695	79769.4751669	79769.4758056	120.0	4.0	79770.2332373
222.630859375	0.0	40	455948	15	77	720	1	0	79761.1685671	79761.1690644	80	79764.1783682	79764.1787827	40	79767.3022133	79767.3027337	100	del	79768.9611695	79769.4751669	79769.4758056	120.0	4.0	79770.2332373
225.75439453125	0.0	100	462345	15	77	720	1	0	79761.1685671	79761.1690644	80	79764.1783682	79764.1787827	40	79767.3022133	79767.3027337	100	del	79768.9611695	79769.4751669	79769.4758056	120.0	4.0	79770.2332373
227.927734375	0.0	120	466796	15	77	720	1	0	79761.1685671	79761.1690644	80	79764.1783682	79764.1787827	40	79767.3022133	79767.3027337	100	del	79768.9611695	79769.4751669	79769.4758056	120.0	4.0	79770.2332373
230.703125	0.0	80	472480	16	97	1440	0	0	79772.2509428	79772.2514148	80	79775.3530975	79775.353577	40	79778.4372611	79778.4377872	100	imm	79780.9052619	nan	nan	nan	nan	nan
233.80517578125	0.0	40	478833	16	97	1440	0	0	79772.2509428	79772.2514148	80	79775.3530975	79775.353577	40	79778.4372611	79778.4377872	100	imm	79780.9052619	nan	nan	nan	nan	nan
236.88916015625	0.0	100	485149	16	97	1440	0	0	79772.2509428	79772.2514148	80	79775.3530975	79775.353577	40	79778.4372611	79778.4377872	100	imm	79780.9052619	nan	nan	nan	nan	nan
242.00732421875	0.0	80	495631	17	80	720	1	0	79783.5554392	79783.5560497	80	79786.6504124	79786.650868	40	79789.732598	79789.7331727	100	del	79791.0012301	79791.5123701	79791.5127737	120.0	4.0	79792.7058467
245.10205078125	0.0	40	501969	17	80	720	1	0	79783.5554392	79783.5560497	80	79786.6504124	79786.650868	40	79789.732598	79789.7331727	100	del	79791.0012301	79791.5123701	79791.5127737	120.0	4.0	79792.7058467
248.1845703125	0.0	100	508282	17	80	720	1	0	79783.5554392	79783.5560497	80	79786.6504124	79786.650868	40	79789.732598	79789.7331727	100	del	79791.0012301	79791.5123701	79791.5127737	120.0	4.0	79792.7058467
249.9638671875	0.0	120	511926	17	80	720	1	0	79783.5554392	79783.5560497	80	79786.6504124	79786.650868	40	79789.732598	79789.7331727	100	del	79791.0012301	79791.5123701	79791.5127737	120.0	4.0	79792.7058467
253.470703125	0.0	80	519108	18	87	180	1	1	79795.0191946	79795.019696	80	79798.4784864	79798.4789683	40	79801.9617191	79801.9622282	100	del	79803.2669635	79803.7801939	79803.7807057	120.0	3.0	79805.7697551
256.93017578125	0.0	40	526193	18	87	180	1	1	79795.0191946	79795.019696	80	79798.4784864	79798.4789683	40	79801.9617191	79801.9622282	100	del	79803.2669635	79803.7801939	79803.7807057	120.0	3.0	79805.7697551
260.4130859375	0.0	100	533326	18	87	180	1	1	79795.0191946	79795.019696	80	79798.4784864	79798.4789683	40	79801.9617191	79801.9622282	100	del	79803.2669635	79803.7801939	79803.7807057	120.0	3.0	79805.7697551
262.2314453125	0.0	120	537050	18	87	180	1	1	79795.0191946	79795.019696	80	79798.4784864	79798.4789683	40	79801.9617191	79801.9622282	100	del	79803.2669635	79803.7801939	79803.7807057	120.0	3.0	79805.7697551
266.34765625	0.0	80	545480	19	60	40	1	0	79807.8962874	79807.8967226	80	79811.1467008	79811.1471725	40	79814.3476629	79814.348182	100	imm	79816.2419017	79816.7556144	79816.7561636	120.0	4.0	79818.7860886
269.59765625	0.0	40	552136	19	60	40	1	0	79807.8962874	79807.8967226	80	79811.1467008	79811.1471725	40	79814.3476629	79814.348182	100	imm	79816.2419017	79816.7556144	79816.7561636	120.0	4.0	79818.7860886
272.798828125	0.0	100	558692	19	60	40	1	0	79807.8962874	79807.8967226	80	79811.1467008	79811.1471725	40	79814.3476629	79814.348182	100	imm	79816.2419017	79816.7556144	79816.7561636	120.0	4.0	79818.7860886
275.20654296875	0.0	120	563623	19	60	40	1	0	79807.8962874	79807.8967226	80	79811.1467008	79811.1471725	40	79814.3476629	79814.348182	100	imm	79816.2419017	79816.7556144	79816.7561636	120.0	4.0	79818.7860886
279.5146484375	0.0	80	572446	20	57	720	1	1	79821.0638318	79821.0643124	80	79824.2042019	79824.204689	40	79827.2516113	79827.2522592	100	imm	79828.5774677	79829.0913547	79829.0918835	120.0	3.0	79831.0333036
282.6552734375	0.0	40	578878	20	57	720	1	1	79821.0638318	79821.0643124	80	79824.2042019	79824.204689	40	79827.2516113	79827.2522592	100	imm	79828.5774677	79829.0913547	79829.0918835	120.0	3.0	79831.0333036
285.70263671875	0.0	100	585119	20	57	720	1	1	79821.0638318	79821.0643124	80	79824.2042019	79824.204689	40	79827.2516113	79827.2522592	100	imm	79828.5774677	79829.0913547	79829.0918835	120.0	3.0	79831.0333036
287.5419921875	0.0	120	588886	20	57	720	1	1	79821.0638318	79821.0643124	80	79824.2042019	79824.204689	40	79827.2516113	79827.2522592	100	imm	79828.5774677	79829.0913547	79829.0918835	120.0	3.0	79831.0333036
300.04541015625	0.0	80	614493	21	77	1	1	0	79841.5950637	79841.595566	80	79844.6896323	79844.6901	40	79847.7127351	79847.7131094	100	del	79848.4414356	79848.9549828	79848.9554768	120.0	2.0	79852.2170576
303.14013671875	0.0	40	620831	21	77	1	1	0	79841.5950637	79841.595566	80	79844.6896323	79844.6901	40	79847.7127351	79847.7131094	100	del	79848.4414356	79848.9549828	79848.9554768	120.0	2.0	79852.2170576
306.1630859375	0.0	100	627022	21	77	1	1	0	79841.5950637	79841.595566	80	79844.6896323	79844.6901	40	79847.7127351	79847.7131094	100	del	79848.4414356	79848.9549828	79848.9554768	120.0	2.0	79852.2170576
307.4052734375	0.0	120	629566	21	77	1	1	0	79841.5950637	79841.595566	80	79844.6896323	79844.6901	40	79847.7127351	79847.7131094	100	del	79848.4414356	79848.9549828	79848.9554768	120.0	2.0	79852.2170576
313.1611328125	0.0	80	641354	22	87	40	1	1	79854.7108669	79854.7113547	80	79857.934479	79857.9349796	40	79861.4285643	79861.429047	100	del	79862.769327	79863.2786008	79863.2788446	120.0	4.0	79864.4018895
316.38427734375	0.0	40	647955	22	87	40	1	1	79854.7108669	79854.7113547	80	79857.934479	79857.9349796	40	79861.4285643	79861.429047	100	del	79862.769327	79863.2786008	79863.2788446	120.0	4.0	79864.4018895
319.87841796875	0.0	100	655111	22	87	40	1	1	79854.7108669	79854.7113547	80	79857.934479	79857.9349796	40	79861.4285643	79861.429047	100	del	79862.769327	79863.2786008	79863.2788446	120.0	4.0	79864.4018895
321.72900390625	0.0	120	658901	22	87	40	1	1	79854.7108669	79854.7113547	80	79857.934479	79857.9349796	40	79861.4285643	79861.429047	100	del	79862.769327	79863.2786008	79863.2788446	120.0	4.0	79864.4018895
325.2490234375	0.0	80	666110	23	83	720	1	1	79866.7991323	79866.7995935	80	79869.8103369	79869.8108141	40	79873.1646361	79873.1651738	100	del	79874.8497059	79875.3608182	79875.3612658	120.0	4.0	79876.4894101
328.259765625	0.0	40	672276	23	83	720	1	1	79866.7991323	79866.7995935	80	79869.8103369	79869.8108141	40	79873.1646361	79873.1651738	100	del	79874.8497059	79875.3608182	79875.3612658	120.0	4.0	79876.4894101
331.6142578125	0.0	100	679146	23	83	720	1	1	79866.7991323	79866.7995935	80	79869.8103369	79869.8108141	40	79873.1646361	79873.1651738	100	del	79874.8497059	79875.3608182	79875.3612658	120.0	4.0	79876.4894101
333.810546875	0.0	120	683644	23	83	720	1	1	79866.7991323	79866.7995935	80	79869.8103369	79869.8108141	40	79873.1646361	79873.1651738	100	del	79874.8497059	79875.3608182	79875.3612658	120.0	4.0	79876.4894101
337.3076171875	0.0	80	690806	24	100	90	0	1	79878.8582282	79878.8587067	80	79882.1886203	79882.1890893	40	79885.4778922	79885.4786991	100	del	79886.617353	nan	nan	nan	nan	nan
340.63818359375	0.0	40	697627	24	100	90	0	1	79878.8582282	79878.8587067	80	79882.1886203	79882.1890893	40	79885.4778922	79885.4786991	100	del	79886.617353	nan	nan	nan	nan	nan
343.9267578125	0.0	100	704362	24	100	90	0	1	79878.8582282	79878.8587067	80	79882.1886203	79882.1890893	40	79885.4778922	79885.4786991	100	del	79886.617353	nan	nan	nan	nan	nan
347.69091796875	0.0	80	712071	25	60	1	1	1	79889.2418243	79889.2422506	80	79892.6366603	79892.6371057	40	79895.7648625	79895.7653609	100	del	79898.4731285	79898.9837021	79898.9840202	120.0	4.0	79899.9388969
351.0859375	0.0	40	719024	25	60	1	1	1	79889.2418243	79889.2422506	80	79892.6366603	79892.6371057	40	79895.7648625	79895.7653609	100	del	79898.4731285	79898.9837021	79898.9840202	120.0	4.0	79899.9388969
354.2138671875	0.0	100	725430	25	60	1	1	1	79889.2418243	79889.2422506	80	79892.6366603	79892.6371057	40	79895.7648625	79895.7653609	100	del	79898.4731285	79898.9837021	79898.9840202	120.0	4.0	79899.9388969
357.4326171875	0.0	120	732022	25	60	1	1	1	79889.2418243	79889.2422506	80	79892.6366603	79892.6371057	40	79895.7648625	79895.7653609	100	del	79898.4731285	79898.9837021	79898.9840202	120.0	4.0	79899.9388969
360.5859375	0.0	80	738480	26	63	1440	0	0	79902.1371262	79902.1374334	80	79905.5898571	79905.5902839	40	79909.0336868	79909.034128	100	del	79911.3937036	nan	nan	nan	nan	nan
364.03857421875	0.0	40	745551	26	63	1440	0	0	79902.1371262	79902.1374334	80	79905.5898571	79905.5902839	40	79909.0336868	79909.034128	100	del	79911.3937036	nan	nan	nan	nan	nan
367.482421875	0.0	100	752604	26	63	1440	0	0	79902.1371262	79902.1374334	80	79905.5898571	79905.5902839	40	79909.0336868	79909.034128	100	del	79911.3937036	nan	nan	nan	nan	nan
372.56103515625	0.0	80	763005	27	60	180	1	0	79914.1126309	79914.1130413	80	79917.279249	79917.2797251	40	79920.5971374	79920.5976109	100	del	79921.8179055	79922.3314803	79922.3319878	120.0	4.0	79924.2019104
375.7275390625	0.0	40	769490	27	60	180	1	0	79914.1126309	79914.1130413	80	79917.279249	79917.2797251	40	79920.5971374	79920.5976109	100	del	79921.8179055	79922.3314803	79922.3319878	120.0	4.0	79924.2019104
379.04541015625	0.0	100	776285	27	60	180	1	0	79914.1126309	79914.1130413	80	79917.279249	79917.2797251	40	79920.5971374	79920.5976109	100	del	79921.8179055	79922.3314803	79922.3319878	120.0	4.0	79924.2019104
380.77978515625	0.0	120	779837	27	60	180	1	0	79914.1126309	79914.1130413	80	79917.279249	79917.2797251	40	79920.5971374	79920.5976109	100	del	79921.8179055	79922.3314803	79922.3319878	120.0	4.0	79924.2019104
385.12109375	0.0	80	788728	28	90	90	0	0	79926.6730472	79926.6735083	80	79930.1353046	79930.1357853	40	79933.4447546	79933.4452454	100	del	79934.2746117	nan	nan	nan	nan	nan
388.58349609375	0.0	40	795819	28	90	90	0	0	79926.6730472	79926.6735083	80	79930.1353046	79930.1357853	40	79933.4447546	79933.4452454	100	del	79934.2746117	nan	nan	nan	nan	nan
391.892578125	0.0	100	802596	28	90	90	0	0	79926.6730472	79926.6735083	80	79930.1353046	79930.1357853	40	79933.4447546	79933.4452454	100	del	79934.2746117	nan	nan	nan	nan	nan
395.4072265625	0.0	80	809794	29	83	180	1	0	79936.9593451	79936.959818	80	79940.3935212	79940.3940969	40	79943.6281211	79943.6286057	100	del	79948.2252555	79948.7392167	79948.7397489	120.0	4.0	79950.0250903
398.84130859375	0.0	40	816827	29	83	180	1	0	79936.9593451	79936.959818	80	79940.3935212	79940.3940969	40	79943.6281211	79943.6286057	100	del	79948.2252555	79948.7392167	79948.7397489	120.0	4.0	79950.0250903
402.07568359375	0.0	100	823451	29	83	180	1	0	79936.9593451	79936.959818	80	79940.3935212	79940.3940969	40	79943.6281211	79943.6286057	100	del	79948.2252555	79948.7392167	79948.7397489	120.0	4.0	79950.0250903
407.18701171875	0.0	120	833919	29	83	180	1	0	79936.9593451	79936.959818	80	79940.3935212	79940.3940969	40	79943.6281211	79943.6286057	100	del	79948.2252555	79948.7392167	79948.7397489	120.0	4.0	79950.0250903
410.9423828125	0.0	80	841610	30	97	180	1	0	79952.4949341	79952.4954692	80	79955.5194179	79955.5199327	40	79958.7986629	79958.7991425	100	del	79962.1051631	79962.62107	79962.6215653	120.0	4.0	79964.7770134
413.966796875	0.0	40	847804	30	97	180	1	0	79952.4949341	79952.4954692	80	79955.5194179	79955.5199327	40	79958.7986629	79958.7991425	100	del	79962.1051631	79962.62107	79962.6215653	120.0	4.0	79964.7770134
417.24609375	0.0	100	854520	30	97	180	1	0	79952.4949341	79952.4954692	80	79955.5194179	79955.5199327	40	79958.7986629	79958.7991425	100	del	79962.1051631	79962.62107	79962.6215653	120.0	4.0	79964.7770134
421.068359375	0.0	120	862348	30	97	180	1	0	79952.4949341	79952.4954692	80	79955.5194179	79955.5199327	40	79958.7986629	79958.7991425	100	del	79962.1051631	79962.62107	79962.6215653	120.0	4.0	79964.7770134
425.5986328125	0.0	80	871626	31	63	10	0	1	79967.1514778	79967.1519937	80	79970.2457135	79970.2459342	40	79973.4273647	79973.4278434	100	del	79973.9776754	nan	nan	nan	nan	nan
428.69287109375	0.0	40	877963	31	63	10	0	1	79967.1514778	79967.1519937	80	79970.2457135	79970.2459342	40	79973.4273647	79973.4278434	100	del	79973.9776754	nan	nan	nan	nan	nan
431.87451171875	0.0	100	884479	31	63	10	0	1	79967.1514778	79967.1519937	80	79970.2457135	79970.2459342	40	79973.4273647	79973.4278434	100	del	79973.9776754	nan	nan	nan	nan	nan
435.0341796875	0.0	80	890950	32	53	720	1	0	79976.5872494	79976.587605	80	79979.7556699	79979.7561455	40	79982.9707439	79982.9712503	100	del	79986.3853556	79986.8966741	79986.8970614	120.0	4.0	79988.1535064
438.20263671875	0.0	40	897439	32	53	720	1	0	79976.5872494	79976.587605	80	79979.7556699	79979.7561455	40	79982.9707439	79982.9712503	100	del	79986.3853556	79986.8966741	79986.8970614	120.0	4.0	79988.1535064
441.41748046875	0.0	100	904023	32	53	720	1	0	79976.5872494	79976.587605	80	79979.7556699	79979.7561455	40	79982.9707439	79982.9712503	100	del	79986.3853556	79986.8966741	79986.8970614	120.0	4.0	79988.1535064
445.34326171875	0.0	120	912063	32	53	720	1	0	79976.5872494	79976.587605	80	79979.7556699	79979.7561455	40	79982.9707439	79982.9712503	100	del	79986.3853556	79986.8966741	79986.8970614	120.0	4.0	79988.1535064
448.89111328125	0.0	80	919329	33	93	360	0	1	79990.444369	79990.4448573	80	79993.4763288	79993.4767504	40	79996.7656278	79996.7663091	100	imm	79999.1615728	nan	nan	nan	nan	nan
451.9228515625	0.0	40	925538	33	93	360	0	1	79990.444369	79990.4448573	80	79993.4763288	79993.4767504	40	79996.7656278	79996.7663091	100	imm	79999.1615728	nan	nan	nan	nan	nan
455.2119140625	0.0	100	932274	33	93	360	0	1	79990.444369	79990.4448573	80	79993.4763288	79993.4767504	40	79996.7656278	79996.7663091	100	imm	79999.1615728	nan	nan	nan	nan	nan
460.26220703125	0.0	80	942617	34	63	90	0	0	80001.8161211	80001.8165433	80	80004.9439266	80004.944405	40	80008.0796395	80008.0801298	100	imm	80010.1051009	nan	nan	nan	nan	nan
463.39013671875	0.0	40	949023	34	63	90	0	0	80001.8161211	80001.8165433	80	80004.9439266	80004.944405	40	80008.0796395	80008.0801298	100	imm	80010.1051009	nan	nan	nan	nan	nan
466.52587890625	0.0	100	955445	34	63	90	0	0	80001.8161211	80001.8165433	80	80004.9439266	80004.944405	40	80008.0796395	80008.0801298	100	imm	80010.1051009	nan	nan	nan	nan	nan
471.1455078125	0.0	80	964906	35	50	1	1	1	80012.6995901	80012.7000923	80	80016.1847793	80016.1852159	40	80019.6657363	80019.6663388	100	del	80021.0418759	80021.5553694	80021.5558833	120.0	1.0	80025.9531777
474.63037109375	0.0	40	972043	35	50	1	1	1	80012.6995901	80012.7000923	80	80016.1847793	80016.1852159	40	80019.6657363	80019.6663388	100	del	80021.0418759	80021.5553694	80021.5558833	120.0	1.0	80025.9531777
478.11181640625	0.0	100	979173	35	50	1	1	1	80012.6995901	80012.7000923	80	80016.1847793	80016.1852159	40	80019.6657363	80019.6663388	100	del	80021.0418759	80021.5553694	80021.5558833	120.0	1.0	80025.9531777
480.0009765625	0.0	120	983042	35	50	1	1	1	80012.6995901	80012.7000923	80	80016.1847793	80016.1852159	40	80019.6657363	80019.6663388	100	del	80021.0418759	80021.5553694	80021.5558833	120.0	1.0	80025.9531777
486.8232421875	0.0	80	997014	36	83	180	0	0	80028.3779541	80028.3783443	80	80031.7494704	80031.7499904	40	80034.8511392	80034.8516304	100	na	80036.9938642	nan	nan	nan	nan	nan
490.19482421875	0.0	40	1003919	36	83	180	0	0	80028.3779541	80028.3783443	80	80031.7494704	80031.7499904	40	80034.8511392	80034.8516304	100	na	80036.9938642	nan	nan	nan	nan	nan
493.29638671875	0.0	100	1010271	36	83	180	0	0	80028.3779541	80028.3783443	80	80031.7494704	80031.7499904	40	80034.8511392	80034.8516304	100	na	80036.9938642	nan	nan	nan	nan	nan
498.13720703125	0.0	80	1020185	37	97	720	1	0	80039.6918832	80039.6922975	80	80042.7948966	80042.7954039	40	80045.8083782	80045.8089507	100	del	80046.7450581	80047.2595763	80047.2602342	120.0	4.0	80047.9535519
501.240234375	0.0	40	1026540	37	97	720	1	0	80039.6918832	80039.6922975	80	80042.7948966	80042.7954039	40	80045.8083782	80045.8089507	100	del	80046.7450581	80047.2595763	80047.2602342	120.0	4.0	80047.9535519
504.25341796875	0.0	100	1032711	37	97	720	1	0	80039.6918832	80039.6922975	80	80042.7948966	80042.7954039	40	80045.8083782	80045.8089507	100	del	80046.7450581	80047.2595763	80047.2602342	120.0	4.0	80047.9535519
505.70458984375	0.0	120	1035683	37	97	720	1	0	80039.6918832	80039.6922975	80	80042.7948966	80042.7954039	40	80045.8083782	80045.8089507	100	del	80046.7450581	80047.2595763	80047.2602342	120.0	4.0	80047.9535519
508.572265625	0.0	80	1041556	38	80	1	1	1	80050.1273588	80050.127879	80	80053.4847207	80053.4851522	40	80056.8114786	80056.8119769	100	del	80058.3539241	80058.8672959	80058.8678074	120.0	4.0	80059.5618927
511.9296875	0.0	40	1048432	38	80	1	1	1	80050.1273588	80050.127879	80	80053.4847207	80053.4851522	40	80056.8114786	80056.8119769	100	del	80058.3539241	80058.8672959	80058.8678074	120.0	4.0	80059.5618927
515.25634765625	0.0	100	1055245	38	80	1	1	1	80050.1273588	80050.127879	80	80053.4847207	80053.4851522	40	80056.8114786	80056.8119769	100	del	80058.3539241	80058.8672959	80058.8678074	120.0	4.0	80059.5618927
517.31201171875	0.0	120	1059455	38	80	1	1	1	80050.1273588	80050.127879	80	80053.4847207	80053.4851522	40	80056.8114786	80056.8119769	100	del	80058.3539241	80058.8672959	80058.8678074	120.0	4.0	80059.5618927
520.29443359375	0.0	80	1065563	39	83	1	1	0	80061.8498585	80061.8503799	80	80065.0775299	80065.0779898	40	80068.2342716	80068.234737	100	del	80069.2976713	80069.8082178	80069.8085392	120.0	4.0	80070.5218593
523.52197265625	0.0	40	1072173	39	83	1	1	0	80061.8498585	80061.8503799	80	80065.0775299	80065.0779898	40	80068.2342716	80068.234737	100	del	80069.2976713	80069.8082178	80069.8085392	120.0	4.0	80070.5218593
526.6787109375	0.0	100	1078638	39	83	1	1	0	80061.8498585	80061.8503799	80	80065.0775299	80065.0779898	40	80068.2342716	80068.234737	100	del	80069.2976713	80069.8082178	80069.8085392	120.0	4.0	80070.5218593
528.25244140625	0.0	120	1081861	39	83	1	1	0	80061.8498585	80061.8503799	80	80065.0775299	80065.0779898	40	80068.2342716	80068.234737	100	del	80069.2976713	80069.8082178	80069.8085392	120.0	4.0	80070.5218593
531.232421875	0.0	80	1087964	40	70	10	0	1	80072.7879761	80072.7884377	80	80076.1771139	80076.1775829	40	80079.5715482	80079.5720288	100	del	80080.4413459	nan	nan	nan	nan	nan
534.62158203125	0.0	40	1094905	40	70	10	0	1	80072.7879761	80072.7884377	80	80076.1771139	80076.1775829	40	80079.5715482	80079.5720288	100	del	80080.4413459	nan	nan	nan	nan	nan
538.015625	0.0	100	1101856	40	70	10	0	1	80072.7879761	80072.7884377	80	80076.1771139	80076.1775829	40	80079.5715482	80079.5720288	100	del	80080.4413459	nan	nan	nan	nan	nan
569.10693359375	0.0	80	1165531	41	93	90	0	0	80110.6634286	80110.6637975	80	80114.046122	80114.0466411	40	80117.3819763	80117.3824909	100	del	80118.3868705	nan	nan	nan	nan	nan
572.4892578125	0.0	40	1172458	41	93	90	0	0	80110.6634286	80110.6637975	80	80114.046122	80114.0466411	40	80117.3819763	80117.3824909	100	del	80118.3868705	nan	nan	nan	nan	nan
575.8251953125	0.0	100	1179290	41	93	90	0	0	80110.6634286	80110.6637975	80	80114.046122	80114.0466411	40	80117.3819763	80117.3824909	100	del	80118.3868705	nan	nan	nan	nan	nan
579.4111328125	0.0	80	1186634	42	93	40	1	0	80120.9681781	80120.9689867	80	80124.2286579	80124.2291425	40	80127.4153721	80127.4159692	100	del	80128.5692863	80129.0793804	80129.0797722	120.0	4.0	80129.7465747
582.671875	0.0	40	1193312	42	93	40	1	0	80120.9681781	80120.9689867	80	80124.2286579	80124.2291425	40	80127.4153721	80127.4159692	100	del	80128.5692863	80129.0793804	80129.0797722	120.0	4.0	80129.7465747
585.8583984375	0.0	100	1199838	42	93	40	1	0	80120.9681781	80120.9689867	80	80124.2286579	80124.2291425	40	80127.4153721	80127.4159692	100	del	80128.5692863	80129.0793804	80129.0797722	120.0	4.0	80129.7465747
587.52197265625	0.0	120	1203245	42	93	40	1	0	80120.9681781	80120.9689867	80	80124.2286579	80124.2291425	40	80127.4153721	80127.4159692	100	del	80128.5692863	80129.0793804	80129.0797722	120.0	4.0	80129.7465747
590.25048828125	0.0	80	1208833	43	63	40	1	1	80131.8076181	80131.8080966	80	80134.8890871	80134.8895511	40	80138.0011447	80138.0016174	100	del	80140.5058828	80141.0195549	80141.0200625	120.0	3.0	80141.7451203
593.33203125	0.0	40	1215144	43	63	40	1	1	80131.8076181	80131.8080966	80	80134.8890871	80134.8895511	40	80138.0011447	80138.0016174	100	del	80140.5058828	80141.0195549	80141.0200625	120.0	3.0	80141.7451203
596.44384765625	0.0	100	1221517	43	63	40	1	1	80131.8076181	80131.8080966	80	80134.8890871	80134.8895511	40	80138.0011447	80138.0016174	100	del	80140.5058828	80141.0195549	80141.0200625	120.0	3.0	80141.7451203
599.4619140625	0.0	120	1227698	43	63	40	1	1	80131.8076181	80131.8080966	80	80134.8890871	80134.8895511	40	80138.0011447	80138.0016174	100	del	80140.5058828	80141.0195549	80141.0200625	120.0	3.0	80141.7451203
602.53662109375	0.0	80	1233995	44	97	10	0	1	80144.0941684	80144.094531	80	80147.3181451	80147.3186527	40	80150.6780388	80150.6785446	100	na	80153.1294888	nan	nan	nan	nan	nan
605.7607421875	0.0	40	1240598	44	97	10	0	1	80144.0941684	80144.094531	80	80147.3181451	80147.3186527	40	80150.6780388	80150.6785446	100	na	80153.1294888	nan	nan	nan	nan	nan
609.12060546875	0.0	100	1247479	44	97	10	0	1	80144.0941684	80144.094531	80	80147.3181451	80147.3186527	40	80150.6780388	80150.6785446	100	na	80153.1294888	nan	nan	nan	nan	nan
614.21728515625	0.0	80	1257917	45	60	180	0	1	80155.7751319	80155.7755704	80	80158.7875178	80158.7879183	40	80162.0669795	80162.0674245	100	imm	80163.5532838	nan	nan	nan	nan	nan
617.2294921875	0.0	40	1264086	45	60	180	0	1	80155.7751319	80155.7755704	80	80158.7875178	80158.7879183	40	80162.0669795	80162.0674245	100	imm	80163.5532838	nan	nan	nan	nan	nan
620.5087890625	0.0	100	1270802	45	60	180	0	1	80155.7751319	80155.7755704	80	80158.7875178	80158.7879183	40	80162.0669795	80162.0674245	100	imm	80163.5532838	nan	nan	nan	nan	nan
624.6533203125	0.0	80	1279290	46	67	40	1	1	80166.2111813	80166.2117935	80	80169.6919305	80169.6923721	40	80173.1580909	80173.1586107	100	del	80174.8891047	80175.4025707	80175.4030857	120.0	4.0	80176.2267652
628.1337890625	0.0	40	1286418	46	67	40	1	1	80166.2111813	80166.2117935	80	80169.6919305	80169.6923721	40	80173.1580909	80173.1586107	100	del	80174.8891047	80175.4025707	80175.4030857	120.0	4.0	80176.2267652
631.599609375	0.0	100	1293516	46	67	40	1	1	80166.2111813	80166.2117935	80	80169.6919305	80169.6923721	40	80173.1580909	80173.1586107	100	del	80174.8891047	80175.4025707	80175.4030857	120.0	4.0	80176.2267652
633.84423828125	0.0	120	1298113	46	67	40	1	1	80166.2111813	80166.2117935	80	80169.6919305	80169.6923721	40	80173.1580909	80173.1586107	100	del	80174.8891047	80175.4025707	80175.4030857	120.0	4.0	80176.2267652
636.87841796875	0.0	80	1304327	47	53	360	0	0	80178.436864	80178.4373169	80	80181.4565592	80181.4570142	40	80184.8052595	80184.805737	100	del	80185.6896468	nan	nan	nan	nan	nan
639.89794921875	0.0	40	1310511	47	53	360	0	0	80178.436864	80178.4373169	80	80181.4565592	80181.4570142	40	80184.8052595	80184.805737	100	del	80185.6896468	nan	nan	nan	nan	nan
643.24658203125	0.0	100	1317369	47	53	360	0	0	80178.436864	80178.4373169	80	80181.4565592	80181.4570142	40	80184.8052595	80184.805737	100	del	80185.6896468	nan	nan	nan	nan	nan
647.06689453125	0.0	80	1325193	48	70	180	1	0	80188.6256093	80188.6274787	80	80192.1202134	80192.1206852	40	80195.1620137	80195.1625661	100	del	80196.809286	80197.3184365	80197.3187922	120.0	4.0	80198.1129355
650.5615234375	0.0	40	1332350	48	70	180	1	0	80188.6256093	80188.6274787	80	80192.1202134	80192.1206852	40	80195.1620137	80195.1625661	100	del	80196.809286	80197.3184365	80197.3187922	120.0	4.0	80198.1129355
653.60302734375	0.0	100	1338579	48	70	180	1	0	80188.6256093	80188.6274787	80	80192.1202134	80192.1206852	40	80195.1620137	80195.1625661	100	del	80196.809286	80197.3184365	80197.3187922	120.0	4.0	80198.1129355
655.75927734375	0.0	120	1342995	48	70	180	1	0	80188.6256093	80188.6274787	80	80192.1202134	80192.1206852	40	80195.1620137	80195.1625661	100	del	80196.809286	80197.3184365	80197.3187922	120.0	4.0	80198.1129355
658.794921875	0.0	80	1349212	49	67	90	0	0	80200.3539536	80200.3544575	80	80203.6527966	80203.6533015	40	80207.0096521	80207.0101577	100	del	80210.8267101	nan	nan	nan	nan	nan
662.09375	0.0	40	1355968	49	67	90	0	0	80200.3539536	80200.3544575	80	80203.6527966	80203.6533015	40	80207.0096521	80207.0101577	100	del	80210.8267101	nan	nan	nan	nan	nan
665.45068359375	0.0	100	1362843	49	67	90	0	0	80200.3539536	80200.3544575	80	80203.6527966	80203.6533015	40	80207.0096521	80207.0101577	100	del	80210.8267101	nan	nan	nan	nan	nan
672.14501953125	0.0	80	1376553	50	73	180	1	1	80213.7043189	80213.7047732	80	80217.0378777	80217.0384059	40	80220.414985	80220.4154745	100	del	80223.7692791	80224.2828373	80224.2832693	120.0	2.0	80228.6732014
675.478515625	0.0	40	1383380	50	73	180	1	1	80213.7043189	80213.7047732	80	80217.0378777	80217.0384059	40	80220.414985	80220.4154745	100	del	80223.7692791	80224.2828373	80224.2832693	120.0	2.0	80228.6732014
678.85546875	0.0	100	1390296	50	73	180	1	1	80213.7043189	80213.7047732	80	80217.0378777	80217.0384059	40	80220.414985	80220.4154745	100	del	80223.7692791	80224.2828373	80224.2832693	120.0	2.0	80228.6732014
682.72314453125	0.0	120	1398217	50	73	180	1	1	80213.7043189	80213.7047732	80	80217.0378777	80217.0384059	40	80220.414985	80220.4154745	100	del	80223.7692791	80224.2828373	80224.2832693	120.0	2.0	80228.6732014
689.31640625	0.0	80	1411720	51	87	360	0	0	80230.8763459	80230.8768169	80	80234.1753324	80234.1758319	40	80237.2466738	80237.2471412	100	del	80238.5850625	nan	nan	nan	nan	nan
692.61572265625	0.0	40	1418477	51	87	360	0	0	80230.8763459	80230.8768169	80	80234.1753324	80234.1758319	40	80237.2466738	80237.2471412	100	del	80238.5850625	nan	nan	nan	nan	nan
695.6865234375	0.0	100	1424766	51	87	360	0	0	80230.8763459	80230.8768169	80	80234.1753324	80234.1758319	40	80237.2466738	80237.2471412	100	del	80238.5850625	nan	nan	nan	nan	nan
699.57177734375	0.0	80	1432723	52	87	10	0	0	80241.1319514	80241.1324515	80	80244.6294934	80244.6299665	40	80247.7848538	80247.7854386	100	del	80248.6895318	nan	nan	nan	nan	nan
703.0693359375	0.0	40	1439886	52	87	10	0	0	80241.1319514	80241.1324515	80	80244.6294934	80244.6299665	40	80247.7848538	80247.7854386	100	del	80248.6895318	nan	nan	nan	nan	nan
706.224609375	0.0	100	1446348	52	87	10	0	0	80241.1319514	80241.1324515	80	80244.6294934	80244.6299665	40	80247.7848538	80247.7854386	100	del	80248.6895318	nan	nan	nan	nan	nan
709.9443359375	0.0	80	1453966	53	73	180	0	1	80251.5048638	80251.5053616	80	80254.9934747	80254.9938802	40	80258.0996636	80258.1001958	100	del	80259.0974234	nan	nan	nan	nan	nan
713.43310546875	0.0	40	1461111	53	73	180	0	1	80251.5048638	80251.5053616	80	80254.9934747	80254.9938802	40	80258.0996636	80258.1001958	100	del	80259.0974234	nan	nan	nan	nan	nan
716.5390625	0.0	100	1467472	53	73	180	0	1	80251.5048638	80251.5053616	80	80254.9934747	80254.9938802	40	80258.0996636	80258.1001958	100	del	80259.0974234	nan	nan	nan	nan	nan
720.15283203125	0.0	80	1474873	54	73	40	1	1	80261.7134537	80261.7139941	80	80264.8921666	80264.8927588	40	80268.3727251	80268.3732375	100	del	80269.6572561	80270.1663568	80270.1666682	120.0	4.0	80271.8176541
723.33154296875	0.0	40	1481383	54	73	40	1	1	80261.7134537	80261.7139941	80	80264.8921666	80264.8927588	40	80268.3727251	80268.3732375	100	del	80269.6572561	80270.1663568	80270.1666682	120.0	4.0	80271.8176541
726.81201171875	0.0	100	1488511	54	73	40	1	1	80261.7134537	80261.7139941	80	80264.8921666	80264.8927588	40	80268.3727251	80268.3732375	100	del	80269.6572561	80270.1663568	80270.1666682	120.0	4.0	80271.8176541
728.60546875	0.0	120	1492184	54	73	40	1	1	80261.7134537	80261.7139941	80	80264.8921666	80264.8927588	40	80268.3727251	80268.3732375	100	del	80269.6572561	80270.1663568	80270.1666682	120.0	4.0	80271.8176541
732.4677734375	0.0	80	1500094	55	73	90	0	0	80274.0286483	80274.0291833	80	80277.1731071	80277.1735774	40	80280.2620289	80280.2624828	100	del	80280.9847682	nan	nan	nan	nan	nan
735.6123046875	0.0	40	1506534	55	73	90	0	0	80274.0286483	80274.0291833	80	80277.1731071	80277.1735774	40	80280.2620289	80280.2624828	100	del	80280.9847682	nan	nan	nan	nan	nan
738.701171875	0.0	100	1512860	55	73	90	0	0	80274.0286483	80274.0291833	80	80277.1731071	80277.1735774	40	80280.2620289	80280.2624828	100	del	80280.9847682	nan	nan	nan	nan	nan
742.13720703125	0.0	80	1519897	56	83	40	1	1	80283.69854	80283.6988762	80	80286.8931352	80286.8935769	40	80289.9725253	80289.9730254	100	del	80291.642494	80292.1521471	80292.1524853	120.0	4.0	80292.9217459
745.33203125	0.0	40	1526440	56	83	40	1	1	80283.69854	80283.6988762	80	80286.8931352	80286.8935769	40	80289.9725253	80289.9730254	100	del	80291.642494	80292.1521471	80292.1524853	120.0	4.0	80292.9217459
748.4111328125	0.0	100	1532746	56	83	40	1	1	80283.69854	80283.6988762	80	80286.8931352	80286.8935769	40	80289.9725253	80289.9730254	100	del	80291.642494	80292.1521471	80292.1524853	120.0	4.0	80292.9217459
750.5908203125	0.0	120	1537210	56	83	40	1	1	80283.69854	80283.6988762	80	80286.8931352	80286.8935769	40	80289.9725253	80289.9730254	100	del	80291.642494	80292.1521471	80292.1524853	120.0	4.0	80292.9217459
753.5947265625	0.0	80	1543362	57	77	10	0	1	80295.1559857	80295.1564726	80	80298.2094598	80298.2099309	40	80301.5310636	80301.5316681	100	del	80303.7209909	nan	nan	nan	nan	nan
756.64794921875	0.0	40	1549615	57	77	10	0	1	80295.1559857	80295.1564726	80	80298.2094598	80298.2099309	40	80301.5310636	80301.5316681	100	del	80303.7209909	nan	nan	nan	nan	nan
759.96923828125	0.0	100	1556417	57	77	10	0	1	80295.1559857	80295.1564726	80	80298.2094598	80298.2099309	40	80301.5310636	80301.5316681	100	del	80303.7209909	nan	nan	nan	nan	nan
764.68310546875	0.0	80	1566071	58	63	360	0	0	80306.2448765	80306.2453541	80	80309.539766	80309.5402592	40	80312.9504512	80312.9510954	100	del	80313.4905835	nan	nan	nan	nan	nan
767.97802734375	0.0	40	1572819	58	63	360	0	0	80306.2448765	80306.2453541	80	80309.539766	80309.5402592	40	80312.9504512	80312.9510954	100	del	80313.4905835	nan	nan	nan	nan	nan
771.388671875	0.0	100	1579804	58	63	360	0	0	80306.2448765	80306.2453541	80	80309.539766	80309.5402592	40	80312.9504512	80312.9510954	100	del	80313.4905835	nan	nan	nan	nan	nan
774.5625	0.0	80	1586304	59	100	180	1	0	80316.1246745	80316.1251759	80	80319.3566424	80319.3570997	40	80322.6540205	80322.6544439	100	del	80323.2811107	80323.7912674	80323.7916437	120.0	4.0	80325.2410263
777.79443359375	0.0	40	1592923	59	100	180	1	0	80316.1246745	80316.1251759	80	80319.3566424	80319.3570997	40	80322.6540205	80322.6544439	100	del	80323.2811107	80323.7912674	80323.7916437	120.0	4.0	80325.2410263
781.091796875	0.0	100	1599676	59	100	180	1	0	80316.1246745	80316.1251759	80	80319.3566424	80319.3570997	40	80322.6540205	80322.6544439	100	del	80323.2811107	80323.7912674	80323.7916437	120.0	4.0	80325.2410263
782.22900390625	0.0	120	1602005	59	100	180	1	0	80316.1246745	80316.1251759	80	80319.3566424	80319.3570997	40	80322.6540205	80322.6544439	100	del	80323.2811107	80323.7912674	80323.7916437	120.0	4.0	80325.2410263
785.72607421875	0.0	80	1609167	60	63	180	1	1	80327.2883254	80327.2888234	80	80330.544786	80330.545273	40	80333.8794929	80333.8799904	100	del	80334.8168242	80335.3307398	80335.3312203	120.0	3.0	80335.9377429
788.982421875	0.0	40	1615836	60	63	180	1	1	80327.2883254	80327.2888234	80	80330.544786	80330.545273	40	80333.8794929	80333.8799904	100	del	80334.8168242	80335.3307398	80335.3312203	120.0	3.0	80335.9377429
792.31689453125	0.0	100	1622665	60	63	180	1	1	80327.2883254	80327.2888234	80	80330.544786	80330.545273	40	80333.8794929	80333.8799904	100	del	80334.8168242	80335.3307398	80335.3312203	120.0	3.0	80335.9377429
793.76806640625	0.0	120	1625637	60	63	180	1	1	80327.2883254	80327.2888234	80	80330.544786	80330.545273	40	80333.8794929	80333.8799904	100	del	80334.8168242	80335.3307398	80335.3312203	120.0	3.0	80335.9377429
826.17431640625	0.0	80	1692005	61	77	360	0	1	80367.7375897	80367.73819	80	80371.1637962	80371.16427	40	80374.6627153	80374.6632294	100	del	80375.5852383	nan	nan	nan	nan	nan
829.6005859375	0.0	40	1699022	61	77	360	0	1	80367.7375897	80367.73819	80	80371.1637962	80371.16427	40	80374.6627153	80374.6632294	100	del	80375.5852383	nan	nan	nan	nan	nan
833.09912109375	0.0	100	1706187	61	77	360	0	1	80367.7375897	80367.73819	80	80371.1637962	80371.16427	40	80374.6627153	80374.6632294	100	del	80375.5852383	nan	nan	nan	nan	nan
836.962890625	0.0	80	1714100	62	67	1440	0	0	80378.526432	80378.5269307	80	80381.7869301	80381.7875362	40	80384.9398817	80384.9403996	100	del	80385.6342028	nan	nan	nan	nan	nan
840.22314453125	0.0	40	1720777	62	67	1440	0	0	80378.526432	80378.5269307	80	80381.7869301	80381.7875362	40	80384.9398817	80384.9403996	100	del	80385.6342028	nan	nan	nan	nan	nan
843.3759765625	0.0	100	1727234	62	67	1440	0	0	80378.526432	80378.5269307	80	80381.7869301	80381.7875362	40	80384.9398817	80384.9403996	100	del	80385.6342028	nan	nan	nan	nan	nan
846.9619140625	0.0	80	1734578	63	70	180	0	1	80388.5257349	80388.5262059	80	80391.6520403	80391.6525754	40	80395.1442532	80395.1446872	100	del	80396.1929832	nan	nan	nan	nan	nan
850.087890625	0.0	40	1740980	63	70	180	0	1	80388.5257349	80388.5262059	80	80391.6520403	80391.6525754	40	80395.1442532	80395.1446872	100	del	80396.1929832	nan	nan	nan	nan	nan
853.580078125	0.0	100	1748132	63	70	180	0	1	80388.5257349	80388.5262059	80	80391.6520403	80391.6525754	40	80395.1442532	80395.1446872	100	del	80396.1929832	nan	nan	nan	nan	nan
857.4580078125	0.0	80	1756074	64	57	90	0	1	80399.0219744	80399.0224454	80	80402.3299133	80402.3304249	40	80405.4294259	80405.4299543	100	imm	80407.0336951	nan	nan	nan	nan	nan
860.765625	0.0	40	1762848	64	57	90	0	1	80399.0219744	80399.0224454	80	80402.3299133	80402.3304249	40	80405.4294259	80405.4299543	100	imm	80407.0336951	nan	nan	nan	nan	nan
863.865234375	0.0	100	1769196	64	57	90	0	1	80399.0219744	80399.0224454	80	80402.3299133	80402.3304249	40	80405.4294259	80405.4299543	100	imm	80407.0336951	nan	nan	nan	nan	nan
868.03076171875	0.0	80	1777727	65	57	40	1	1	80409.5954019	80409.5958802	80	80412.7307653	80412.7312579	40	80416.1742807	80416.1747779	100	del	80417.1929878	80417.7036164	80417.7039613	120.0	4.0	80418.5768505
871.166015625	0.0	40	1784148	65	57	40	1	1	80409.5954019	80409.5958802	80	80412.7307653	80412.7312579	40	80416.1742807	80416.1747779	100	del	80417.1929878	80417.7036164	80417.7039613	120.0	4.0	80418.5768505
874.60986328125	0.0	100	1791201	65	57	40	1	1	80409.5954019	80409.5958802	80	80412.7307653	80412.7312579	40	80416.1742807	80416.1747779	100	del	80417.1929878	80417.7036164	80417.7039613	120.0	4.0	80418.5768505
876.138671875	0.0	120	1794332	65	57	40	1	1	80409.5954019	80409.5958802	80	80412.7307653	80412.7312579	40	80416.1742807	80416.1747779	100	del	80417.1929878	80417.7036164	80417.7039613	120.0	4.0	80418.5768505
879.48388671875	0.0	80	1801183	66	63	1	1	0	80421.0485877	80421.0490683	80	80424.406203	80424.4067146	40	80427.7821954	80427.7828327	100	del	80428.5447902	80429.0582034	80429.0587138	120.0	4.0	80430.344674
882.84130859375	0.0	40	1808059	66	63	1	1	0	80421.0485877	80421.0490683	80	80424.406203	80424.4067146	40	80427.7821954	80427.7828327	100	del	80428.5447902	80429.0582034	80429.0587138	120.0	4.0	80430.344674
886.21728515625	0.0	100	1814973	66	63	1	1	0	80421.0485877	80421.0490683	80	80424.406203	80424.4067146	40	80427.7821954	80427.7828327	100	del	80428.5447902	80429.0582034	80429.0587138	120.0	4.0	80430.344674
887.4931640625	0.0	120	1817586	66	63	1	1	0	80421.0485877	80421.0490683	80	80424.406203	80424.4067146	40	80427.7821954	80427.7828327	100	del	80428.5447902	80429.0582034	80429.0587138	120.0	4.0	80430.344674
890.90966796875	0.0	80	1824583	67	97	180	0	0	80432.4746228	80432.4750209	80	80435.7702216	80435.7707227	40	80439.1887661	80439.1892324	100	del	80440.0408293	nan	nan	nan	nan	nan
894.205078125	0.0	40	1831332	67	97	180	0	0	80432.4746228	80432.4750209	80	80435.7702216	80435.7707227	40	80439.1887661	80439.1892324	100	del	80440.0408293	nan	nan	nan	nan	nan
897.62353515625	0.0	100	1838333	67	97	180	0	0	80432.4746228	80432.4750209	80	80435.7702216	80435.7707227	40	80439.1887661	80439.1892324	100	del	80440.0408293	nan	nan	nan	nan	nan
901.193359375	0.0	80	1845644	68	70	360	0	0	80442.7586113	80442.7590625	80	80446.2604139	80446.260869	40	80449.3193903	80449.3198479	100	del	80450.5144398	nan	nan	nan	nan	nan
904.69482421875	0.0	40	1852815	68	70	360	0	0	80442.7586113	80442.7590625	80	80446.2604139	80446.260869	40	80449.3193903	80449.3198479	100	del	80450.5144398	nan	nan	nan	nan	nan
907.75390625	0.0	100	1859080	68	70	360	0	0	80442.7586113	80442.7590625	80	80446.2604139	80446.260869	40	80449.3193903	80449.3198479	100	del	80450.5144398	nan	nan	nan	nan	nan
911.62744140625	0.0	80	1867013	69	100	1	1	0	80453.1931861	80453.1936666	80	80456.4574987	80456.4580088	40	80459.5012663	80459.5017842	100	del	80460.4013023	80460.9149331	80460.9154148	120.0	4.0	80461.785496
914.8916015625	0.0	40	1873698	69	100	1	1	0	80453.1931861	80453.1936666	80	80456.4574987	80456.4580088	40	80459.5012663	80459.5017842	100	del	80460.4013023	80460.9149331	80460.9154148	120.0	4.0	80461.785496
917.935546875	0.0	100	1879932	69	100	1	1	0	80453.1931861	80453.1936666	80	80456.4574987	80456.4580088	40	80459.5012663	80459.5017842	100	del	80460.4013023	80460.9149331	80460.9154148	120.0	4.0	80461.785496
919.34912109375	0.0	120	1882827	69	100	1	1	0	80453.1931861	80453.1936666	80	80456.4574987	80456.4580088	40	80459.5012663	80459.5017842	100	del	80460.4013023	80460.9149331	80460.9154148	120.0	4.0	80461.785496
922.59765625	0.0	80	1889480	70	90	360	0	0	80464.163622	80464.1640995	80	80467.4493762	80467.4498827	40	80470.7287314	80470.7292593	100	del	80471.5693	nan	nan	nan	nan	nan
925.88330078125	0.0	40	1896209	70	90	360	0	0	80464.163622	80464.1640995	80	80467.4493762	80467.4498827	40	80470.7287314	80470.7292593	100	del	80471.5693	nan	nan	nan	nan	nan
929.16259765625	0.0	100	1902925	70	90	360	0	0	80464.163622	80464.1640995	80	80467.4493762	80467.4498827	40	80470.7287314	80470.7292593	100	del	80471.5693	nan	nan	nan	nan	nan
932.935546875	0.0	80	1910652	71	63	180	0	1	80474.5018008	80474.5022221	80	80477.9385947	80477.9390465	40	80481.3469442	80481.3474448	100	del	80482.5384678	nan	nan	nan	nan	nan
936.37255859375	0.0	40	1917691	71	63	180	0	1	80474.5018008	80474.5022221	80	80477.9385947	80477.9390465	40	80481.3469442	80481.3474448	100	del	80482.5384678	nan	nan	nan	nan	nan
939.78076171875	0.0	100	1924671	71	63	180	0	1	80474.5018008	80474.5022221	80	80477.9385947	80477.9390465	40	80481.3469442	80481.3474448	100	del	80482.5384678	nan	nan	nan	nan	nan
943.650390625	0.0	80	1932596	72	90	1	1	0	80485.2166149	80485.2171122	80	80488.450387	80488.4508892	40	80491.8405132	80491.8410077	100	del	80496.5854862	80497.0948569	80497.0951307	120.0	3.0	80498.2972475
946.8837890625	0.0	40	1939218	72	90	1	1	0	80485.2166149	80485.2171122	80	80488.450387	80488.4508892	40	80491.8405132	80491.8410077	100	del	80496.5854862	80497.0948569	80497.0951307	120.0	3.0	80498.2972475
950.27392578125	0.0	100	1946161	72	90	1	1	0	80485.2166149	80485.2171122	80	80488.450387	80488.4508892	40	80491.8405132	80491.8410077	100	del	80496.5854862	80497.0948569	80497.0951307	120.0	3.0	80498.2972475
955.52783203125	0.0	120	1956921	72	90	1	1	0	80485.2166149	80485.2171122	80	80488.450387	80488.4508892	40	80491.8405132	80491.8410077	100	del	80496.5854862	80497.0948569	80497.0951307	120.0	3.0	80498.2972475
958.80078125	0.0	80	1963624	73	50	1440	0	0	80500.3677905	80500.3682962	80	80503.4303194	80503.430792	40	80506.5792564	80506.5796946	100	del	80507.1610608	nan	nan	nan	nan	nan
961.86328125	0.0	40	1969896	73	50	1440	0	0	80500.3677905	80500.3682962	80	80503.4303194	80503.430792	40	80506.5792564	80506.5796946	100	del	80507.1610608	nan	nan	nan	nan	nan
965.01220703125	0.0	100	1976345	73	50	1440	0	0	80500.3677905	80500.3682962	80	80503.4303194	80503.430792	40	80506.5792564	80506.5796946	100	del	80507.1610608	nan	nan	nan	nan	nan
968.37451171875	0.0	80	1983231	74	90	180	1	1	80509.9417155	80509.9421904	80	80513.43571	80513.4362325	40	80516.8049575	80516.8054279	100	del	80518.1367888	80518.6507294	80518.6512413	120.0	4.0	80519.5126561
971.86865234375	0.0	40	1990387	74	90	180	1	1	80509.9417155	80509.9421904	80	80513.43571	80513.4362325	40	80516.8049575	80516.8054279	100	del	80518.1367888	80518.6507294	80518.6512413	120.0	4.0	80519.5126561
975.23779296875	0.0	100	1997287	74	90	180	1	1	80509.9417155	80509.9421904	80	80513.43571	80513.4362325	40	80516.8049575	80516.8054279	100	del	80518.1367888	80518.6507294	80518.6512413	120.0	4.0	80519.5126561
977.08349609375	0.0	120	2001067	74	90	180	1	1	80509.9417155	80509.9421904	80	80513.43571	80513.4362325	40	80516.8049575	80516.8054279	100	del	80518.1367888	80518.6507294	80518.6512413	120.0	4.0	80519.5126561
980.11669921875	0.0	80	2007279	75	93	1440	0	0	80521.6842958	80521.6847638	80	80524.8382985	80524.8388492	40	80528.2767997	80528.2773132	100	del	80529.0969422	nan	nan	nan	nan	nan
983.27099609375	0.0	40	2013739	75	93	1440	0	0	80521.6842958	80521.6847638	80	80524.8382985	80524.8388492	40	80528.2767997	80528.2773132	100	del	80529.0969422	nan	nan	nan	nan	nan
986.70947265625	0.0	100	2020781	75	93	1440	0	0	80521.6842958	80521.6847638	80	80524.8382985	80524.8388492	40	80528.2767997	80528.2773132	100	del	80529.0969422	nan	nan	nan	nan	nan
990.50244140625	0.0	80	2028549	76	100	720	1	1	80532.0700958	80532.0707529	80	80535.3976546	80535.3981366	40	80538.5387941	80538.5393245	100	imm	80539.4185555	80539.9321653	80539.9326749	120.0	4.0	80542.4893422
993.830078125	0.0	40	2035364	76	100	720	1	1	80532.0700958	80532.0707529	80	80535.3976546	80535.3981366	40	80538.5387941	80538.5393245	100	imm	80539.4185555	80539.9321653	80539.9326749	120.0	4.0	80542.4893422
996.97119140625	0.0	100	2041797	76	100	720	1	1	80532.0700958	80532.0707529	80	80535.3976546	80535.3981366	40	80538.5387941	80538.5393245	100	imm	80539.4185555	80539.9321653	80539.9326749	120.0	4.0	80542.4893422
998.3642578125	0.0	120	2044650	76	100	720	1	1	80532.0700958	80532.0707529	80	80535.3976546	80535.3981366	40	80538.5387941	80538.5393245	100	imm	80539.4185555	80539.9321653	80539.9326749	120.0	4.0	80542.4893422
1002.98095703125	0.0	80	2054105	77	77	40	1	0	80544.5489226	80544.5493893	80	80547.9765862	80547.9770777	40	80551.2818311	80551.2823152	100	del	80554.4341877	80554.9440591	80554.9443886	120.0	4.0	80555.6890155
1006.40869140625	0.0	40	2061125	77	77	40	1	0	80544.5489226	80544.5493893	80	80547.9765862	80547.9770777	40	80551.2818311	80551.2823152	100	del	80554.4341877	80554.9440591	80554.9443886	120.0	4.0	80555.6890155
1009.7138671875	0.0	100	2067894	77	77	40	1	0	80544.5489226	80544.5493893	80	80547.9765862	80547.9770777	40	80551.2818311	80551.2823152	100	del	80554.4341877	80554.9440591	80554.9443886	120.0	4.0	80555.6890155
1013.3759765625	0.0	120	2075394	77	77	40	1	0	80544.5489226	80544.5493893	80	80547.9765862	80547.9770777	40	80551.2818311	80551.2823152	100	del	80554.4341877	80554.9440591	80554.9443886	120.0	4.0	80555.6890155
1016.60986328125	0.0	80	2082017	78	60	180	1	1	80558.1783902	80558.1796452	80	80561.2180923	80561.2186234	40	80564.5241807	80564.5246917	100	del	80568.8729846	80569.3831005	80569.383535	120.0	4.0	80570.2490816
1019.64990234375	0.0	40	2088243	78	60	180	1	1	80558.1783902	80558.1796452	80	80561.2180923	80561.2186234	40	80564.5241807	80564.5246917	100	del	80568.8729846	80569.3831005	80569.383535	120.0	4.0	80570.2490816
1022.95556640625	0.0	100	2095013	78	60	180	1	1	80558.1783902	80558.1796452	80	80561.2180923	80561.2186234	40	80564.5241807	80564.5246917	100	del	80568.8729846	80569.3831005	80569.383535	120.0	4.0	80570.2490816
1027.814453125	0.0	120	2104964	78	60	180	1	1	80558.1783902	80558.1796452	80	80561.2180923	80561.2186234	40	80564.5241807	80564.5246917	100	del	80568.8729846	80569.3831005	80569.383535	120.0	4.0	80570.2490816
1030.83984375	0.0	80	2111160	79	57	180	1	0	80572.4083892	80572.4088944	80	80575.8297373	80575.8305686	40	80578.9388268	80578.9393567	100	del	80580.5369923	80581.0481445	80581.0485457	120.0	4.0	80582.5929737
1034.2607421875	0.0	40	2118166	79	57	180	1	0	80572.4083892	80572.4088944	80	80575.8297373	80575.8305686	40	80578.9388268	80578.9393567	100	del	80580.5369923	80581.0481445	80581.0485457	120.0	4.0	80582.5929737
1037.3701171875	0.0	100	2124534	79	57	180	1	0	80572.4083892	80572.4088944	80	80575.8297373	80575.8305686	40	80578.9388268	80578.9393567	100	del	80580.5369923	80581.0481445	80581.0485457	120.0	4.0	80582.5929737
1039.47900390625	0.0	120	2128853	79	57	180	1	0	80572.4083892	80572.4088944	80	80575.8297373	80575.8305686	40	80578.9388268	80578.9393567	100	del	80580.5369923	80581.0481445	80581.0485457	120.0	4.0	80582.5929737
1043.26220703125	0.0	80	2136601	80	80	1440	0	1	80584.8313769	80584.8319685	80	80588.0356773	80588.0361497	40	80591.4626653	80591.4632075	100	del	80592.5614598	nan	nan	nan	nan	nan
1046.46630859375	0.0	40	2143163	80	80	1440	0	1	80584.8313769	80584.8319685	80	80588.0356773	80588.0361497	40	80591.4626653	80591.4632075	100	del	80592.5614598	nan	nan	nan	nan	nan
1049.8935546875	0.0	100	2150182	80	80	1440	0	1	80584.8313769	80584.8319685	80	80588.0356773	80588.0361497	40	80591.4626653	80591.4632075	100	del	80592.5614598	nan	nan	nan	nan	nan
1082.56640625	0.0	80	2217096	81	73	720	1	0	80624.1362792	80624.1367583	80	80627.247819	80627.2482956	40	80630.4197484	80630.4202177	100	del	80631.3293804	80631.8409033	80631.8412697	120.0	4.0	80632.9695166
1085.677734375	0.0	40	2223468	81	73	720	1	0	80624.1362792	80624.1367583	80	80627.247819	80627.2482956	40	80630.4197484	80630.4202177	100	del	80631.3293804	80631.8409033	80631.8412697	120.0	4.0	80632.9695166
1088.849609375	0.0	100	2229964	81	73	720	1	0	80624.1362792	80624.1367583	80	80627.247819	80627.2482956	40	80630.4197484	80630.4202177	100	del	80631.3293804	80631.8409033	80631.8412697	120.0	4.0	80632.9695166
1090.2705078125	0.0	120	2232874	81	73	720	1	0	80624.1362792	80624.1367583	80	80627.247819	80627.2482956	40	80630.4197484	80630.4202177	100	del	80631.3293804	80631.8409033	80631.8412697	120.0	4.0	80632.9695166
1093.48291015625	0.0	80	2239453	82	93	180	0	0	80635.053298	80635.0537768	80	80638.3966475	80638.3971175	40	80641.6958835	80641.6963416	100	del	80642.4820206	nan	nan	nan	nan	nan
1096.826171875	0.0	40	2246300	82	93	180	0	0	80635.053298	80635.0537768	80	80638.3966475	80638.3971175	40	80641.6958835	80641.6963416	100	del	80642.4820206	nan	nan	nan	nan	nan
1100.12548828125	0.0	100	2253057	82	93	180	0	0	80635.053298	80635.0537768	80	80638.3966475	80638.3971175	40	80641.6958835	80641.6963416	100	del	80642.4820206	nan	nan	nan	nan	nan
1103.51171875	0.0	80	2259992	83	97	90	0	0	80645.0822998	80645.082662	80	80648.163658	80648.1641447	40	80651.4148671	80651.4153753	100	del	80652.3382639	nan	nan	nan	nan	nan
1106.5927734375	0.0	40	2266302	83	97	90	0	0	80645.0822998	80645.082662	80	80648.163658	80648.1641447	40	80651.4148671	80651.4153753	100	del	80652.3382639	nan	nan	nan	nan	nan
1109.84423828125	0.0	100	2272961	83	97	90	0	0	80645.0822998	80645.082662	80	80648.163658	80648.1641447	40	80651.4148671	80651.4153753	100	del	80652.3382639	nan	nan	nan	nan	nan
1113.7392578125	0.0	80	2280938	84	70	40	1	1	80655.3101385	80655.3106299	80	80658.5938427	80658.5943365	40	80661.6236554	80661.6241347	100	del	80663.7768913	80664.2899597	80664.2904702	120.0	4.0	80665.026196
1117.02294921875	0.0	40	2287663	84	70	40	1	1	80655.3101385	80655.3106299	80	80658.5938427	80658.5943365	40	80661.6236554	80661.6241347	100	del	80663.7768913	80664.2899597	80664.2904702	120.0	4.0	80665.026196
1120.052734375	0.0	100	2293868	84	70	40	1	1	80655.3101385	80655.3106299	80	80658.5938427	80658.5943365	40	80661.6236554	80661.6241347	100	del	80663.7768913	80664.2899597	80664.2904702	120.0	4.0	80665.026196
1122.71875	0.0	120	2299328	84	70	40	1	1	80655.3101385	80655.3106299	80	80658.5938427	80658.5943365	40	80661.6236554	80661.6241347	100	del	80663.7768913	80664.2899597	80664.2904702	120.0	4.0	80665.026196
1125.4970703125	0.0	80	2305018	85	57	180	0	1	80667.0680888	80667.0685632	80	80670.478989	80670.4794929	40	80673.7178041	80673.7182696	100	imm	80675.825142	nan	nan	nan	nan	nan
1128.90771484375	0.0	40	2312003	85	57	180	0	1	80667.0680888	80667.0685632	80	80670.478989	80670.4794929	40	80673.7178041	80673.7182696	100	imm	80675.825142	nan	nan	nan	nan	nan
1132.146484375	0.0	100	2318636	85	57	180	0	1	80667.0680888	80667.0685632	80	80670.478989	80670.4794929	40	80673.7178041	80673.7182696	100	imm	80675.825142	nan	nan	nan	nan	nan
1136.96337890625	0.0	80	2328501	86	57	360	0	0	80678.5349318	80678.5355446	80	80681.9378266	80681.9384046	40	80685.1328522	80685.1333823	100	del	80685.8248194	nan	nan	nan	nan	nan
1140.3662109375	0.0	40	2335470	86	57	360	0	0	80678.5349318	80678.5355446	80	80681.9378266	80681.9384046	40	80685.1328522	80685.1333823	100	del	80685.8248194	nan	nan	nan	nan	nan
1143.56103515625	0.0	100	2342013	86	57	360	0	0	80678.5349318	80678.5355446	80	80681.9378266	80681.9384046	40	80685.1328522	80685.1333823	100	del	80685.8248194	nan	nan	nan	nan	nan
1147.03662109375	0.0	80	2349131	87	57	1	1	0	80688.6084865	80688.6089146	80	80691.9728067	80691.973267	40	80695.4223388	80695.4228228	100	del	80696.0885543	80696.6038596	80696.6043401	120.0	4.0	80698.1845301
1150.40087890625	0.0	40	2356021	87	57	1	1	0	80688.6084865	80688.6089146	80	80691.9728067	80691.973267	40	80695.4223388	80695.4228228	100	del	80696.0885543	80696.6038596	80696.6043401	120.0	4.0	80698.1845301
1153.8505859375	0.0	100	2363086	87	57	1	1	0	80688.6084865	80688.6089146	80	80691.9728067	80691.973267	40	80695.4223388	80695.4228228	100	del	80696.0885543	80696.6038596	80696.6043401	120.0	4.0	80698.1845301
1155.03173828125	0.0	120	2365505	87	57	1	1	0	80688.6084865	80688.6089146	80	80691.9728067	80691.973267	40	80695.4223388	80695.4228228	100	del	80696.0885543	80696.6038596	80696.6043401	120.0	4.0	80698.1845301
1158.79248046875	0.0	80	2373207	88	83	1440	0	0	80700.3644196	80700.3648604	80	80703.698028	80703.6985004	40	80707.1992494	80707.1997238	100	del	80708.1933566	nan	nan	nan	nan	nan
1162.1259765625	0.0	40	2380034	88	83	1440	0	0	80700.3644196	80700.3648604	80	80703.698028	80703.6985004	40	80707.1992494	80707.1997238	100	del	80708.1933566	nan	nan	nan	nan	nan
1165.626953125	0.0	100	2387204	88	83	1440	0	0	80700.3644196	80700.3648604	80	80703.698028	80703.6985004	40	80707.1992494	80707.1997238	100	del	80708.1933566	nan	nan	nan	nan	nan
1169.177734375	0.0	80	2394476	89	70	90	0	0	80710.7501367	80710.7506553	80	80714.0516223	80714.0520999	40	80717.272624	80717.2731424	100	del	80718.0973687	nan	nan	nan	nan	nan
1172.47900390625	0.0	40	2401237	89	70	90	0	0	80710.7501367	80710.7506553	80	80714.0516223	80714.0520999	40	80717.272624	80717.2731424	100	del	80718.0973687	nan	nan	nan	nan	nan
1175.7001953125	0.0	100	2407834	89	70	90	0	0	80710.7501367	80710.7506553	80	80714.0516223	80714.0520999	40	80717.272624	80717.2731424	100	del	80718.0973687	nan	nan	nan	nan	nan
1179.193359375	0.0	80	2414988	90	60	360	0	1	80720.7659415	80720.7662335	80	80723.9052674	80723.9056782	40	80727.2988502	80727.2993514	100	imm	80728.3372675	nan	nan	nan	nan	nan
1182.33251953125	0.0	40	2421417	90	60	360	0	1	80720.7659415	80720.7662335	80	80723.9052674	80723.9056782	40	80727.2988502	80727.2993514	100	imm	80728.3372675	nan	nan	nan	nan	nan
1185.72607421875	0.0	100	2428367	90	60	360	0	1	80720.7659415	80720.7662335	80	80723.9052674	80723.9056782	40	80727.2988502	80727.2993514	100	imm	80728.3372675	nan	nan	nan	nan	nan
1189.779296875	0.0	80	2436668	91	53	180	0	1	80731.3523304	80731.3527991	80	80734.4530816	80734.4534796	40	80737.8558069	80737.8562779	100	del	80739.3686418	nan	nan	nan	nan	nan
1192.88037109375	0.0	40	2443019	91	53	180	0	1	80731.3523304	80731.3527991	80	80734.4530816	80734.4534796	40	80737.8558069	80737.8562779	100	del	80739.3686418	nan	nan	nan	nan	nan
1196.28271484375	0.0	100	2449987	91	53	180	0	1	80731.3523304	80731.3527991	80	80734.4530816	80734.4534796	40	80737.8558069	80737.8562779	100	del	80739.3686418	nan	nan	nan	nan	nan
1200.41162109375	0.0	80	2458443	92	53	1440	0	0	80741.9849929	80741.9854433	80	80745.4883382	80745.4887972	40	80748.9028709	80748.9033378	100	imm	80749.8010667	nan	nan	nan	nan	nan
1203.9150390625	0.0	40	2465618	92	53	1440	0	0	80741.9849929	80741.9854433	80	80745.4883382	80745.4887972	40	80748.9028709	80748.9033378	100	imm	80749.8010667	nan	nan	nan	nan	nan
1207.32958984375	0.0	100	2472611	92	53	1440	0	0	80741.9849929	80741.9854433	80	80745.4883382	80745.4887972	40	80748.9028709	80748.9033378	100	imm	80749.8010667	nan	nan	nan	nan	nan
1210.95751953125	0.0	80	2480041	93	97	1	1	1	80752.5310677	80752.5315403	80	80755.9030675	80755.9035487	40	80759.1654959	80759.1659913	100	del	80759.9127189	80760.4255054	80760.426091	120.0	4.0	80762.0903198
1214.32958984375	0.0	40	2486947	93	97	1	1	1	80752.5310677	80752.5315403	80	80755.9030675	80755.9035487	40	80759.1654959	80759.1659913	100	del	80759.9127189	80760.4255054	80760.426091	120.0	4.0	80762.0903198
1217.591796875	0.0	100	2493628	93	97	1	1	1	80752.5310677	80752.5315403	80	80755.9030675	80755.9035487	40	80759.1654959	80759.1659913	100	del	80759.9127189	80760.4255054	80760.426091	120.0	4.0	80762.0903198
1218.85205078125	0.0	120	2496209	93	97	1	1	1	80752.5310677	80752.5315403	80	80755.9030675	80755.9035487	40	80759.1654959	80759.1659913	100	del	80759.9127189	80760.4255054	80760.426091	120.0	4.0	80762.0903198
1222.9375	0.0	80	2504576	94	100	1440	0	1	80764.5111602	80764.5116836	80	80767.6971638	80767.6976324	40	80770.748168	80770.7486712	100	del	80772.0086005	nan	nan	nan	nan	nan
1226.12353515625	0.0	40	2511101	94	100	1440	0	1	80764.5111602	80764.5116836	80	80767.6971638	80767.6976324	40	80770.748168	80770.7486712	100	del	80772.0086005	nan	nan	nan	nan	nan
1229.17431640625	0.0	100	2517349	94	100	1440	0	1	80764.5111602	80764.5116836	80	80767.6971638	80767.6976324	40	80770.748168	80770.7486712	100	del	80772.0086005	nan	nan	nan	nan	nan
1233.24755859375	0.0	80	2525691	95	90	180	1	1	80774.8213312	80774.8218126	80	80778.2845298	80778.2849975	40	80781.3949802	80781.3955152	100	del	80782.1611201	80782.674263	80782.6750327	120.0	4.0	80784.2326208
1236.71044921875	0.0	40	2532783	95	90	180	1	1	80774.8213312	80774.8218126	80	80778.2845298	80778.2849975	40	80781.3949802	80781.3955152	100	del	80782.1611201	80782.674263	80782.6750327	120.0	4.0	80784.2326208
1239.82080078125	0.0	100	2539153	95	90	180	1	1	80774.8213312	80774.8218126	80	80778.2845298	80778.2849975	40	80781.3949802	80781.3955152	100	del	80782.1611201	80782.674263	80782.6750327	120.0	4.0	80784.2326208
1241.10009765625	0.0	120	2541773	95	90	180	1	1	80774.8213312	80774.8218126	80	80778.2845298	80778.2849975	40	80781.3949802	80781.3955152	100	del	80782.1611201	80782.674263	80782.6750327	120.0	4.0	80784.2326208
1244.88818359375	0.0	80	2549531	96	87	180	0	1	80786.4626361	80786.4630256	80	80789.8447235	80789.8451991	40	80792.8780843	80792.8786108	100	del	80796.0813534	nan	nan	nan	nan	nan
1248.2705078125	0.0	40	2556458	96	87	180	0	1	80786.4626361	80786.4630256	80	80789.8447235	80789.8451991	40	80792.8780843	80792.8786108	100	del	80796.0813534	nan	nan	nan	nan	nan
1251.3037109375	0.0	100	2562670	96	87	180	0	1	80786.4626361	80786.4630256	80	80789.8447235	80789.8451991	40	80792.8780843	80792.8786108	100	del	80796.0813534	nan	nan	nan	nan	nan
1257.50146484375	0.0	80	2575363	97	57	10	0	0	80799.0760644	80799.0764994	80	80802.4657007	80802.4662308	40	80805.7581098	80805.7585911	100	del	80806.6564086	nan	nan	nan	nan	nan
1260.89111328125	0.0	40	2582305	97	57	10	0	0	80799.0760644	80799.0764994	80	80802.4657007	80802.4662308	40	80805.7581098	80805.7585911	100	del	80806.6564086	nan	nan	nan	nan	nan
1264.18310546875	0.0	100	2589047	97	57	10	0	0	80799.0760644	80799.0764994	80	80802.4657007	80802.4662308	40	80805.7581098	80805.7585911	100	del	80806.6564086	nan	nan	nan	nan	nan
1267.689453125	0.0	80	2596228	98	60	720	1	0	80809.2643618	80809.2648025	80	80812.5223257	80812.5228499	40	80815.7949141	80815.7953758	100	del	80816.4739078	80816.9850101	80816.9854044	120.0	3.0	80818.1523432
1270.947265625	0.0	40	2602900	98	60	720	1	0	80809.2643618	80809.2648025	80	80812.5223257	80812.5228499	40	80815.7949141	80815.7953758	100	del	80816.4739078	80816.9850101	80816.9854044	120.0	3.0	80818.1523432
1274.2197265625	0.0	100	2609602	98	60	720	1	0	80809.2643618	80809.2648025	80	80812.5223257	80812.5228499	40	80815.7949141	80815.7953758	100	del	80816.4739078	80816.9850101	80816.9854044	120.0	3.0	80818.1523432
1275.40966796875	0.0	120	2612039	98	60	720	1	0	80809.2643618	80809.2648025	80	80812.5223257	80812.5228499	40	80815.7949141	80815.7953758	100	del	80816.4739078	80816.9850101	80816.9854044	120.0	3.0	80818.1523432
1279.09033203125	0.0	80	2619577	99	93	10	0	0	80820.665408	80820.665895	80	80824.1006383	80824.1010293	40	80827.5986496	80827.5990822	100	na	80830.3131161	nan	nan	nan	nan	nan
1282.525390625	0.0	40	2626612	99	93	10	0	0	80820.665408	80820.665895	80	80824.1006383	80824.1010293	40	80827.5986496	80827.5990822	100	na	80830.3131161	nan	nan	nan	nan	nan
1286.0234375	0.0	100	2633776	99	93	10	0	0	80820.665408	80820.665895	80	80824.1006383	80824.1010293	40	80827.5986496	80827.5990822	100	na	80830.3131161	nan	nan	nan	nan	nan
1291.595703125	0.0	80	2645188	100	90	180	0	1	80833.1710981	80833.171596	80	80836.3803074	80836.380792	40	80839.861142	80839.8616501	100	del	80843.2807782	nan	nan	nan	nan	nan
1294.8046875	0.0	40	2651760	100	90	180	0	1	80833.1710981	80833.171596	80	80836.3803074	80836.380792	40	80839.861142	80839.8616501	100	del	80843.2807782	nan	nan	nan	nan	nan
1298.28564453125	0.0	100	2658889	100	90	180	0	1	80833.1710981	80833.171596	80	80836.3803074	80836.380792	40	80839.861142	80839.8616501	100	del	80843.2807782	nan	nan	nan	nan	nan
1342.37548828125	0.0	80	2749185	101	77	180	1	1	80883.9521267	80883.9525724	80	80887.0756398	80887.0761715	40	80890.2879993	80890.2884699	100	del	80892.4169013	80892.9300686	80892.9305826	120.0	3.0	80894.6899366
1345.49853515625	0.0	40	2755581	101	77	180	1	1	80883.9521267	80883.9525724	80	80887.0756398	80887.0761715	40	80890.2879993	80890.2884699	100	del	80892.4169013	80892.9300686	80892.9305826	120.0	3.0	80894.6899366
1348.7109375	0.0	100	2762160	101	77	180	1	1	80883.9521267	80883.9525724	80	80887.0756398	80887.0761715	40	80890.2879993	80890.2884699	100	del	80892.4169013	80892.9300686	80892.9305826	120.0	3.0	80894.6899366
1351.35302734375	0.0	120	2767571	101	77	180	1	1	80883.9521267	80883.9525724	80	80887.0756398	80887.0761715	40	80890.2879993	80890.2884699	100	del	80892.4169013	80892.9300686	80892.9305826	120.0	3.0	80894.6899366
1355.4814453125	0.0	80	2776026	102	70	1440	0	0	80897.0584875	80897.0589287	80	80900.3523127	80900.3529831	40	80903.7448895	80903.7454107	100	del	80905.1778011	nan	nan	nan	nan	nan
1358.775390625	0.0	40	2782772	102	70	1440	0	0	80897.0584875	80897.0589287	80	80900.3523127	80900.3529831	40	80903.7448895	80903.7454107	100	del	80905.1778011	nan	nan	nan	nan	nan
1362.16748046875	0.0	100	2789719	102	70	1440	0	0	80897.0584875	80897.0589287	80	80900.3523127	80900.3529831	40	80903.7448895	80903.7454107	100	del	80905.1778011	nan	nan	nan	nan	nan
1366.61572265625	0.0	80	2798829	103	50	180	1	0	80908.1929579	80908.193544	80	80911.6817475	80911.6822549	40	80914.9625731	80914.9630386	100	imm	80915.481308	80915.9946288	80915.9951497	120.0	2.0	80919.4019882
1370.10400390625	0.0	40	2805973	103	50	180	1	0	80908.1929579	80908.193544	80	80911.6817475	80911.6822549	40	80914.9625731	80914.9630386	100	imm	80915.481308	80915.9946288	80915.9951497	120.0	2.0	80919.4019882
1373.384765625	0.0	100	2812692	103	50	180	1	0	80908.1929579	80908.193544	80	80911.6817475	80911.6822549	40	80914.9625731	80914.9630386	100	imm	80915.481308	80915.9946288	80915.9951497	120.0	2.0	80919.4019882
1374.4169921875	0.0	120	2814806	103	50	180	1	0	80908.1929579	80908.193544	80	80911.6817475	80911.6822549	40	80914.9625731	80914.9630386	100	imm	80915.481308	80915.9946288	80915.9951497	120.0	2.0	80919.4019882
1380.322265625	0.0	80	2826900	104	50	180	1	1	80921.9000252	80921.9005	80	80924.9655438	80924.9660323	40	80928.00415	80928.0046386	100	del	80928.8646539	80929.3783247	80929.378827	120.0	4.0	80930.3768716
1383.3876953125	0.0	40	2833178	104	50	180	1	1	80921.9000252	80921.9005	80	80924.9655438	80924.9660323	40	80928.00415	80928.0046386	100	del	80928.8646539	80929.3783247	80929.378827	120.0	4.0	80930.3768716
1386.42626953125	0.0	100	2839401	104	50	180	1	1	80921.9000252	80921.9005	80	80924.9655438	80924.9660323	40	80928.00415	80928.0046386	100	del	80928.8646539	80929.3783247	80929.378827	120.0	4.0	80930.3768716
1387.80029296875	0.0	120	2842215	104	50	180	1	1	80921.9000252	80921.9005	80	80924.9655438	80924.9660323	40	80928.00415	80928.0046386	100	del	80928.8646539	80929.3783247	80929.378827	120.0	4.0	80930.3768716
1390.966796875	0.0	80	2848700	105	77	90	0	1	80932.5448994	80932.545318	80	80935.8427633	80935.8432766	40	80939.1215518	80939.1220934	100	del	80940.0487231	nan	nan	nan	nan	nan
1394.2646484375	0.0	40	2855454	105	77	90	0	1	80932.5448994	80932.545318	80	80935.8427633	80935.8432766	40	80939.1215518	80939.1220934	100	del	80940.0487231	nan	nan	nan	nan	nan
1397.54345703125	0.0	100	2862169	105	77	90	0	1	80932.5448994	80932.545318	80	80935.8427633	80935.8432766	40	80939.1215518	80939.1220934	100	del	80940.0487231	nan	nan	nan	nan	nan
1401.43798828125	0.0	80	2870145	106	73	10	0	1	80943.0166001	80943.0170949	80	80946.2960919	80946.2965978	40	80949.5255536	80949.5259902	100	del	80950.4490442	nan	nan	nan	nan	nan
1404.7177734375	0.0	40	2876862	106	73	10	0	1	80943.0166001	80943.0170949	80	80946.2960919	80946.2965978	40	80949.5255536	80949.5259902	100	del	80950.4490442	nan	nan	nan	nan	nan
1407.94677734375	0.0	100	2883475	106	73	10	0	1	80943.0166001	80943.0170949	80	80946.2960919	80946.2965978	40	80949.5255536	80949.5259902	100	del	80950.4490442	nan	nan	nan	nan	nan
1411.66064453125	0.0	80	2891081	107	50	720	1	0	80953.2392164	80953.2397223	80	80956.6029799	80956.6036072	40	80959.6252123	80959.6257421	100	imm	80962.0806769	80962.5898893	80962.5901876	120.0	3.0	80964.3202715
1415.0244140625	0.0	40	2897970	107	50	720	1	0	80953.2392164	80953.2397223	80	80956.6029799	80956.6036072	40	80959.6252123	80959.6257421	100	imm	80962.0806769	80962.5898893	80962.5901876	120.0	3.0	80964.3202715
1418.04638671875	0.0	100	2904159	107	50	720	1	0	80953.2392164	80953.2397223	80	80956.6029799	80956.6036072	40	80959.6252123	80959.6257421	100	imm	80962.0806769	80962.5898893	80962.5901876	120.0	3.0	80964.3202715
1421.0107421875	0.0	120	2910230	107	50	720	1	0	80953.2392164	80953.2397223	80	80956.6029799	80956.6036072	40	80959.6252123	80959.6257421	100	imm	80962.0806769	80962.5898893	80962.5901876	120.0	3.0	80964.3202715
1425.158203125	0.0	80	2918724	108	57	1440	0	1	80966.7371166	80966.7375678	80	80969.8163588	80969.8167787	40	80973.0704267	80973.0709107	100	del	80978.8565578	nan	nan	nan	nan	nan
1428.2373046875	0.0	40	2925030	108	57	1440	0	1	80966.7371166	80966.7375678	80	80969.8163588	80969.8167787	40	80973.0704267	80973.0709107	100	del	80978.8565578	nan	nan	nan	nan	nan
1431.4912109375	0.0	100	2931694	108	57	1440	0	1	80966.7371166	80966.7375678	80	80969.8163588	80969.8167787	40	80973.0704267	80973.0709107	100	del	80978.8565578	nan	nan	nan	nan	nan
1439.92333984375	0.0	80	2948963	109	73	1	1	0	80981.5027255	80981.5032802	80	80984.6948438	80984.6953419	40	80988.0391988	80988.0397135	100	del	80991.8806257	80992.3942888	80992.3948301	120.0	3.0	80994.05792
1443.115234375	0.0	40	2955500	109	73	1	1	0	80981.5027255	80981.5032802	80	80984.6948438	80984.6953419	40	80988.0391988	80988.0397135	100	del	80991.8806257	80992.3942888	80992.3948301	120.0	3.0	80994.05792
1446.45947265625	0.0	100	2962349	109	73	1	1	0	80981.5027255	80981.5032802	80	80984.6948438	80984.6953419	40	80988.0391988	80988.0397135	100	del	80991.8806257	80992.3942888	80992.3948301	120.0	3.0	80994.05792
1450.814453125	0.0	120	2971268	109	73	1	1	0	80981.5027255	80981.5032802	80	80984.6948438	80984.6953419	40	80988.0391988	80988.0397135	100	del	80991.8806257	80992.3942888	80992.3948301	120.0	3.0	80994.05792
1454.57861328125	0.0	80	2978977	110	53	90	0	1	80996.1583513	80996.1588674	80	80999.305346	80999.3058053	40	81002.4178358	81002.4183359	100	del	81003.1681878	nan	nan	nan	nan	nan
1457.7255859375	0.0	40	2985422	110	53	90	0	1	80996.1583513	80996.1588674	80	80999.305346	80999.3058053	40	81002.4178358	81002.4183359	100	del	81003.1681878	nan	nan	nan	nan	nan
1460.837890625	0.0	100	2991796	110	53	90	0	1	80996.1583513	80996.1588674	80	80999.305346	80999.3058053	40	81002.4178358	81002.4183359	100	del	81003.1681878	nan	nan	nan	nan	nan
1464.203125	0.0	80	2998688	111	80	180	1	0	81005.783193	81005.783765	80	81008.954175	81008.9546518	40	81012.4074153	81012.407922	100	del	81013.321039	81013.8311011	81013.8315644	120.0	4.0	81014.9445821
1467.3740234375	0.0	40	3005182	111	80	180	1	0	81005.783193	81005.783765	80	81008.954175	81008.9546518	40	81012.4074153	81012.407922	100	del	81013.321039	81013.8311011	81013.8315644	120.0	4.0	81014.9445821
1470.8271484375	0.0	100	3012254	111	80	180	1	0	81005.783193	81005.783765	80	81008.954175	81008.9546518	40	81012.4074153	81012.407922	100	del	81013.321039	81013.8311011	81013.8315644	120.0	4.0	81014.9445821
1472.2509765625	0.0	120	3015170	111	80	180	1	0	81005.783193	81005.783765	80	81008.954175	81008.9546518	40	81012.4074153	81012.407922	100	del	81013.321039	81013.8311011	81013.8315644	120.0	4.0	81014.9445821
1475.615234375	0.0	80	3022060	112	63	180	1	1	81017.1957975	81017.1963478	80	81020.4056277	81020.4060591	40	81023.5079677	81023.5084787	100	del	81028.5770345	81029.0873408	81029.0877062	120.0	4.0	81033.6803947
1478.8251953125	0.0	40	3028634	112	63	180	1	1	81017.1957975	81017.1963478	80	81020.4056277	81020.4060591	40	81023.5079677	81023.5084787	100	del	81028.5770345	81029.0873408	81029.0877062	120.0	4.0	81033.6803947
1481.92724609375	0.0	100	3034987	112	63	180	1	1	81017.1957975	81017.1963478	80	81020.4056277	81020.4060591	40	81023.5079677	81023.5084787	100	del	81028.5770345	81029.0873408	81029.0877062	120.0	4.0	81033.6803947
1487.5068359375	0.0	120	3046414	112	63	180	1	1	81017.1957975	81017.1963478	80	81020.4056277	81020.4060591	40	81023.5079677	81023.5084787	100	del	81028.5770345	81029.0873408	81029.0877062	120.0	4.0	81033.6803947
1494.6005859375	0.0	80	3060942	113	90	10	0	1	81036.1814045	81036.1818912	80	81039.3916193	81039.3919765	40	81042.829	81042.8295155	100	del	81043.704939	nan	nan	nan	nan	nan
1497.810546875	0.0	40	3067516	113	90	10	0	1	81036.1814045	81036.1818912	80	81039.3916193	81039.3919765	40	81042.829	81042.8295155	100	del	81043.704939	nan	nan	nan	nan	nan
1501.248046875	0.0	100	3074556	113	90	10	0	1	81036.1814045	81036.1818912	80	81039.3916193	81039.3919765	40	81042.829	81042.8295155	100	del	81043.704939	nan	nan	nan	nan	nan
1504.94970703125	0.0	80	3082137	114	50	360	0	0	81046.530842	81046.5313556	80	81049.728174	81049.728675	40	81053.1811859	81053.1816719	100	del	81054.2805902	nan	nan	nan	nan	nan
1508.14697265625	0.0	40	3088685	114	50	360	0	0	81046.530842	81046.5313556	80	81049.728174	81049.728675	40	81053.1811859	81053.1816719	100	del	81054.2805902	nan	nan	nan	nan	nan
1511.60009765625	0.0	100	3095757	114	50	360	0	0	81046.530842	81046.5313556	80	81049.728174	81049.728675	40	81053.1811859	81053.1816719	100	del	81054.2805902	nan	nan	nan	nan	nan
1515.609375	0.0	80	3103968	115	83	360	0	1	81057.1908942	81057.1914517	80	81060.4311748	81060.4317301	40	81063.8510774	81063.8519175	100	del	81065.8971816	nan	nan	nan	nan	nan
1518.849609375	0.0	40	3110604	115	83	360	0	1	81057.1908942	81057.1914517	80	81060.4311748	81060.4317301	40	81063.8510774	81063.8519175	100	del	81065.8971816	nan	nan	nan	nan	nan
1522.26953125	0.0	100	3117608	115	83	360	0	1	81057.1908942	81057.1914517	80	81060.4311748	81060.4317301	40	81063.8510774	81063.8519175	100	del	81065.8971816	nan	nan	nan	nan	nan
1527.2822265625	0.0	80	3127874	116	100	10	0	0	81068.8640083	81068.8644907	80	81072.0862138	81072.0866932	40	81075.2670774	81075.267565	100	del	81076.649876	nan	nan	nan	nan	nan
1530.50439453125	0.0	40	3134473	116	100	10	0	0	81068.8640083	81068.8644907	80	81072.0862138	81072.0866932	40	81075.2670774	81075.267565	100	del	81076.649876	nan	nan	nan	nan	nan
1533.68505859375	0.0	100	3140987	116	100	10	0	0	81068.8640083	81068.8644907	80	81072.0862138	81072.0866932	40	81075.2670774	81075.267565	100	del	81076.649876	nan	nan	nan	nan	nan
1537.88330078125	0.0	80	3149585	117	80	10	0	0	81079.4654431	81079.4658802	80	81082.9244296	81082.9250841	40	81086.2857302	81086.286136	100	del	81086.9764524	nan	nan	nan	nan	nan
1541.3427734375	0.0	40	3156670	117	80	10	0	0	81079.4654431	81079.4658802	80	81082.9244296	81082.9250841	40	81086.2857302	81086.286136	100	del	81086.9764524	nan	nan	nan	nan	nan
1544.70361328125	0.0	100	3163553	117	80	10	0	0	81079.4654431	81079.4658802	80	81082.9244296	81082.9250841	40	81086.2857302	81086.286136	100	del	81086.9764524	nan	nan	nan	nan	nan
1548.1005859375	0.0	80	3170510	118	53	180	1	1	81089.682895	81089.6833995	80	81093.058162	81093.0586654	40	81096.5479558	81096.5484565	100	del	81098.4163413	81098.926094	81098.9264025	120.0	4.0	81100.410014
1551.4755859375	0.0	40	3177422	118	53	180	1	1	81089.682895	81089.6833995	80	81093.058162	81093.0586654	40	81096.5479558	81096.5484565	100	del	81098.4163413	81098.926094	81098.9264025	120.0	4.0	81100.410014
1554.96533203125	0.0	100	3184569	118	53	180	1	1	81089.682895	81089.6833995	80	81093.058162	81093.0586654	40	81096.5479558	81096.5484565	100	del	81098.4163413	81098.926094	81098.9264025	120.0	4.0	81100.410014
1557.34375	0.0	120	3189440	118	53	180	1	1	81089.682895	81089.6833995	80	81093.058162	81093.0586654	40	81096.5479558	81096.5484565	100	del	81098.4163413	81098.926094	81098.9264025	120.0	4.0	81100.410014
1561.115234375	0.0	80	3197164	119	50	90	0	0	81102.6975825	81102.698102	80	81105.9753953	81105.9758842	40	81109.1411034	81109.1414887	100	del	81113.0329741	nan	nan	nan	nan	nan
1564.392578125	0.0	40	3203876	119	50	90	0	0	81102.6975825	81102.698102	80	81105.9753953	81105.9758842	40	81109.1411034	81109.1414887	100	del	81113.0329741	nan	nan	nan	nan	nan
1567.55810546875	0.0	100	3210359	119	50	90	0	0	81102.6975825	81102.698102	80	81105.9753953	81105.9758842	40	81109.1411034	81109.1414887	100	del	81113.0329741	nan	nan	nan	nan	nan
1574.0029296875	0.0	80	3223558	120	80	90	0	1	81115.5855833	81115.5862045	80	81118.6855821	81118.6861119	40	81121.7449515	81121.7454395	100	del	81123.4889803	nan	nan	nan	nan	nan
1577.1025390625	0.0	40	3229906	120	80	90	0	1	81115.5855833	81115.5862045	80	81118.6855821	81118.6861119	40	81121.7449515	81121.7454395	100	del	81123.4889803	nan	nan	nan	nan	nan
1580.162109375	0.0	100	3236172	120	80	90	0	1	81115.5855833	81115.5862045	80	81118.6855821	81118.6861119	40	81121.7449515	81121.7454395	100	del	81123.4889803	nan	nan	nan	nan	nan
1667.16845703125	0.0	80	3414361	121	67	360	0	0	81208.7537568	81208.7542227	80	81211.7663365	81211.7667708	40	81215.2369659	81215.2374734	100	del	81215.8481953	nan	nan	nan	nan	nan
1670.1806640625	0.0	40	3420530	121	67	360	0	0	81208.7537568	81208.7542227	80	81211.7663365	81211.7667708	40	81215.2369659	81215.2374734	100	del	81215.8481953	nan	nan	nan	nan	nan
1673.6513671875	0.0	100	3427638	121	67	360	0	0	81208.7537568	81208.7542227	80	81211.7663365	81211.7667708	40	81215.2369659	81215.2374734	100	del	81215.8481953	nan	nan	nan	nan	nan
1677.1025390625	0.0	80	3434706	122	77	180	1	1	81218.6883055	81218.688811	80	81221.6971446	81221.6976333	40	81224.7259678	81224.7264658	100	del	81226.1139092	81226.624768	81226.6251297	120.0	3.0	81227.7125661
1680.111328125	0.0	40	3440868	122	77	180	1	1	81218.6883055	81218.688811	80	81221.6971446	81221.6976333	40	81224.7259678	81224.7264658	100	del	81226.1139092	81226.624768	81226.6251297	120.0	3.0	81227.7125661
1683.14013671875	0.0	100	3447071	122	77	180	1	1	81218.6883055	81218.688811	80	81221.6971446	81221.6976333	40	81224.7259678	81224.7264658	100	del	81226.1139092	81226.624768	81226.6251297	120.0	3.0	81227.7125661
1685.0390625	0.0	120	3450960	122	77	180	1	1	81218.6883055	81218.688811	80	81221.6971446	81221.6976333	40	81224.7259678	81224.7264658	100	del	81226.1139092	81226.624768	81226.6251297	120.0	3.0	81227.7125661
1688.248046875	0.0	80	3457532	123	67	10	0	0	81229.833904	81229.8343872	80	81233.0690551	81233.0695219	40	81236.147004	81236.1474749	100	del	81237.7449885	nan	nan	nan	nan	nan
1691.48291015625	0.0	40	3464157	123	67	10	0	0	81229.833904	81229.8343872	80	81233.0690551	81233.0695219	40	81236.147004	81236.1474749	100	del	81237.7449885	nan	nan	nan	nan	nan
1694.56103515625	0.0	100	3470461	123	67	10	0	0	81229.833904	81229.8343872	80	81233.0690551	81233.0695219	40	81236.147004	81236.1474749	100	del	81237.7449885	nan	nan	nan	nan	nan
1698.68017578125	0.0	80	3478897	124	87	1440	0	0	81240.266375	81240.2668244	80	81243.638997	81243.6395011	40	81246.8290823	81246.829608	100	del	81250.337025	nan	nan	nan	nan	nan
1702.052734375	0.0	40	3485804	124	87	1440	0	0	81240.266375	81240.2668244	80	81243.638997	81243.6395011	40	81246.8290823	81246.829608	100	del	81250.337025	nan	nan	nan	nan	nan
1705.24267578125	0.0	100	3492337	124	87	1440	0	0	81240.266375	81240.2668244	80	81243.638997	81243.6395011	40	81246.8290823	81246.829608	100	del	81250.337025	nan	nan	nan	nan	nan
1711.65869140625	0.0	80	3505477	125	73	360	0	1	81253.2451826	81253.2456247	80	81256.4720168	81256.4724179	40	81259.7039485	81259.7044254	100	del	81262.5845776	nan	nan	nan	nan	nan
1714.88525390625	0.0	40	3512085	125	73	360	0	1	81253.2451826	81253.2456247	80	81256.4720168	81256.4724179	40	81259.7039485	81259.7044254	100	del	81262.5845776	nan	nan	nan	nan	nan
1718.1171875	0.0	100	3518704	125	73	360	0	1	81253.2451826	81253.2456247	80	81256.4720168	81256.4724179	40	81259.7039485	81259.7044254	100	del	81262.5845776	nan	nan	nan	nan	nan
1723.54150390625	0.0	80	3529813	126	83	180	1	0	81265.1283956	81265.1289087	80	81268.1606422	81268.1611339	40	81271.2195221	81271.2200841	100	del	81272.2565359	81272.7700736	81272.7705651	120.0	1.0	81280.8085049
1726.57373046875	0.0	40	3536023	126	83	180	1	0	81265.1283956	81265.1289087	80	81268.1606422	81268.1611339	40	81271.2195221	81271.2200841	100	del	81272.2565359	81272.7700736	81272.7705651	120.0	1.0	81280.8085049
1729.6328125	0.0	100	3542288	126	83	180	1	0	81265.1283956	81265.1289087	80	81268.1606422	81268.1611339	40	81271.2195221	81271.2200841	100	del	81272.2565359	81272.7700736	81272.7705651	120.0	1.0	81280.8085049
1731.18310546875	0.0	120	3545463	126	83	180	1	0	81265.1283956	81265.1289087	80	81268.1606422	81268.1611339	40	81271.2195221	81271.2200841	100	del	81272.2565359	81272.7700736	81272.7705651	120.0	1.0	81280.8085049
1741.5341796875	0.0	80	3566662	127	50	10	0	0	81283.1216373	81283.122114	80	81286.2506638	81286.2511634	40	81289.6844766	81289.6850287	100	imm	81290.4087683	nan	nan	nan	nan	nan
1744.6630859375	0.0	40	3573070	127	50	10	0	0	81283.1216373	81283.122114	80	81286.2506638	81286.2511634	40	81289.6844766	81289.6850287	100	imm	81290.4087683	nan	nan	nan	nan	nan
1748.09716796875	0.0	100	3580103	127	50	10	0	0	81283.1216373	81283.122114	80	81286.2506638	81286.2511634	40	81289.6844766	81289.6850287	100	imm	81290.4087683	nan	nan	nan	nan	nan
1751.76806640625	0.0	80	3587621	128	60	90	0	0	81293.3556176	81293.3561158	80	81296.8448855	81296.8453639	40	81300.1036047	81300.1041067	100	del	81301.4808426	nan	nan	nan	nan	nan
1755.25732421875	0.0	40	3594767	128	60	90	0	0	81293.3556176	81293.3561158	80	81296.8448855	81296.8453639	40	81300.1036047	81300.1041067	100	del	81301.4808426	nan	nan	nan	nan	nan
1758.515625	0.0	100	3601440	128	60	90	0	0	81293.3556176	81293.3561158	80	81296.8448855	81296.8453639	40	81300.1036047	81300.1041067	100	del	81301.4808426	nan	nan	nan	nan	nan
1762.5205078125	0.0	80	3609642	129	77	180	0	1	81304.108164	81304.1085969	80	81307.2289785	81307.2296403	40	81310.5103239	81310.5108167	100	del	81314.1848102	nan	nan	nan	nan	nan
1765.64111328125	0.0	40	3616033	129	77	180	0	1	81304.108164	81304.1085969	80	81307.2289785	81307.2296403	40	81310.5103239	81310.5108167	100	del	81314.1848102	nan	nan	nan	nan	nan
1768.92236328125	0.0	100	3622753	129	77	180	0	1	81304.108164	81304.1085969	80	81307.2289785	81307.2296403	40	81310.5103239	81310.5108167	100	del	81314.1848102	nan	nan	nan	nan	nan
1775.49609375	0.0	80	3636216	130	93	180	1	1	81317.0841634	81317.0846532	80	81320.2658797	81320.2663692	40	81323.5091198	81323.5096016	100	del	81324.960605	81325.4708146	81325.4712446	120.0	4.0	81327.0647652
1778.677734375	0.0	40	3642732	130	93	180	1	1	81317.0841634	81317.0846532	80	81320.2658797	81320.2663692	40	81323.5091198	81323.5096016	100	del	81324.960605	81325.4708146	81325.4712446	120.0	4.0	81327.0647652
1781.9208984375	0.0	100	3649374	130	93	180	1	1	81317.0841634	81317.0846532	80	81320.2658797	81320.2663692	40	81323.5091198	81323.5096016	100	del	81324.960605	81325.4708146	81325.4712446	120.0	4.0	81327.0647652
1783.88232421875	0.0	120	3653391	130	93	180	1	1	81317.0841634	81317.0846532	80	81320.2658797	81320.2663692	40	81323.5091198	81323.5096016	100	del	81324.960605	81325.4708146	81325.4712446	120.0	4.0	81327.0647652
1787.81005859375	0.0	80	3661435	131	87	1	1	0	81329.3984502	81329.3989763	80	81332.8649504	81332.8653869	40	81335.9585967	81335.9592314	100	del	81338.1760131	81338.6897899	81338.6902356	120.0	4.0	81339.9367613
1791.2763671875	0.0	40	3668534	131	87	1	1	0	81329.3984502	81329.3989763	80	81332.8649504	81332.8653869	40	81335.9585967	81335.9592314	100	del	81338.1760131	81338.6897899	81338.6902356	120.0	4.0	81339.9367613
1794.3701171875	0.0	100	3674870	131	87	1	1	0	81329.3984502	81329.3989763	80	81332.8649504	81332.8653869	40	81335.9585967	81335.9592314	100	del	81338.1760131	81338.6897899	81338.6902356	120.0	4.0	81339.9367613
1797.10107421875	0.0	120	3680463	131	87	1	1	0	81329.3984502	81329.3989763	80	81332.8649504	81332.8653869	40	81335.9585967	81335.9592314	100	del	81338.1760131	81338.6897899	81338.6902356	120.0	4.0	81339.9367613
1800.72216796875	0.0	80	3687879	132	73	180	1	0	81342.3109416	81342.3114695	80	81345.6076495	81345.6081317	40	81348.8373552	81348.8379154	100	del	81352.3537241	81352.8673275	81352.8677899	120.0	1.0	81353.5762672
1804.0185546875	0.0	40	3694630	132	73	180	1	0	81342.3109416	81342.3114695	80	81345.6076495	81345.6081317	40	81348.8373552	81348.8379154	100	del	81352.3537241	81352.8673275	81352.8677899	120.0	1.0	81353.5762672
1807.24853515625	0.0	100	3701245	132	73	180	1	0	81342.3109416	81342.3114695	80	81345.6076495	81345.6081317	40	81348.8373552	81348.8379154	100	del	81352.3537241	81352.8673275	81352.8677899	120.0	1.0	81353.5762672
1811.2783203125	0.0	120	3709498	132	73	180	1	0	81342.3109416	81342.3114695	80	81345.6076495	81345.6081317	40	81348.8373552	81348.8379154	100	del	81352.3537241	81352.8673275	81352.8677899	120.0	1.0	81353.5762672
1814.44580078125	0.0	80	3715985	133	83	90	0	0	81356.0349584	81356.0354099	80	81359.2389411	81359.2395835	40	81362.3419415	81362.3424264	100	del	81364.7295478	nan	nan	nan	nan	nan
1817.64990234375	0.0	40	3722547	133	83	90	0	0	81356.0349584	81356.0354099	80	81359.2389411	81359.2395835	40	81362.3419415	81362.3424264	100	del	81364.7295478	nan	nan	nan	nan	nan
1820.75244140625	0.0	100	3728901	133	83	90	0	0	81356.0349584	81356.0354099	80	81359.2389411	81359.2395835	40	81362.3419415	81362.3424264	100	del	81364.7295478	nan	nan	nan	nan	nan
1825.97509765625	0.0	80	3739597	134	70	720	1	1	81367.5645126	81367.5650229	80	81370.8839646	81370.8844608	40	81374.061938	81374.0624674	100	del	81380.2168416	81380.7269085	81380.7272316	120.0	4.0	81381.7619046
1829.29443359375	0.0	40	3746395	134	70	720	1	1	81367.5645126	81367.5650229	80	81370.8839646	81370.8844608	40	81374.061938	81374.0624674	100	del	81380.2168416	81380.7269085	81380.7272316	120.0	4.0	81381.7619046
1832.47216796875	0.0	100	3752903	134	70	720	1	1	81367.5645126	81367.5650229	80	81370.8839646	81370.8844608	40	81374.061938	81374.0624674	100	del	81380.2168416	81380.7269085	81380.7272316	120.0	4.0	81381.7619046
1839.13720703125	0.0	120	3766553	134	70	720	1	1	81367.5645126	81367.5650229	80	81370.8839646	81370.8844608	40	81374.061938	81374.0624674	100	del	81380.2168416	81380.7269085	81380.7272316	120.0	4.0	81381.7619046
1842.59375	0.0	80	3773632	135	97	180	1	0	81384.183576	81384.1840791	80	81387.6912452	81387.6917723	40	81391.1947942	81391.19528	100	del	81392.4161022	81392.9255424	81392.9259066	120.0	4.0	81398.712291
1846.10107421875	0.0	40	3780815	135	97	180	1	0	81384.183576	81384.1840791	80	81387.6912452	81387.6917723	40	81391.1947942	81391.19528	100	del	81392.4161022	81392.9255424	81392.9259066	120.0	4.0	81398.712291
1849.6044921875	0.0	100	3787990	135	97	180	1	0	81384.183576	81384.1840791	80	81387.6912452	81387.6917723	40	81391.1947942	81391.19528	100	del	81392.4161022	81392.9255424	81392.9259066	120.0	4.0	81398.712291
1851.33544921875	0.0	120	3791535	135	97	180	1	0	81384.183576	81384.1840791	80	81387.6912452	81387.6917723	40	81391.1947942	81391.19528	100	del	81392.4161022	81392.9255424	81392.9259066	120.0	4.0	81398.712291
1859.19970703125	0.0	80	3807641	136	93	1	1	1	81400.7898965	81400.7903647	80	81403.9136404	81403.9140778	40	81406.9387668	81406.9393018	100	del	81408.3928441	81408.9011857	81408.9013925	120.0	4.0	81409.5932536
1862.3232421875	0.0	40	3814038	136	93	1	1	1	81400.7898965	81400.7903647	80	81403.9136404	81403.9140778	40	81406.9387668	81406.9393018	100	del	81408.3928441	81408.9011857	81408.9013925	120.0	4.0	81409.5932536
1865.34814453125	0.0	100	3820233	136	93	1	1	1	81400.7898965	81400.7903647	80	81403.9136404	81403.9140778	40	81406.9387668	81406.9393018	100	del	81408.3928441	81408.9011857	81408.9013925	120.0	4.0	81409.5932536
1867.31103515625	0.0	120	3824253	136	93	1	1	1	81400.7898965	81400.7903647	80	81403.9136404	81403.9140778	40	81406.9387668	81406.9393018	100	del	81408.3928441	81408.9011857	81408.9013925	120.0	4.0	81409.5932536
1870.3154296875	0.0	80	3830406	137	67	180	1	1	81411.9059253	81411.9061185	80	81414.9688845	81414.9693468	40	81418.1862802	81418.1867861	100	na	81418.8007776	81419.3101478	81419.3104462	120.0	1.0	81421.3922363
1873.3779296875	0.0	40	3836678	137	67	180	1	1	81411.9059253	81411.9061185	80	81414.9688845	81414.9693468	40	81418.1862802	81418.1867861	100	na	81418.8007776	81419.3101478	81419.3104462	120.0	1.0	81421.3922363
1876.595703125	0.0	100	3843268	137	67	180	1	1	81411.9059253	81411.9061185	80	81414.9688845	81414.9693468	40	81418.1862802	81418.1867861	100	na	81418.8007776	81419.3101478	81419.3104462	120.0	1.0	81421.3922363
1877.71923828125	0.0	120	3845569	137	67	180	1	1	81411.9059253	81411.9061185	80	81414.9688845	81414.9693468	40	81418.1862802	81418.1867861	100	na	81418.8007776	81419.3101478	81419.3104462	120.0	1.0	81421.3922363
1882.2587890625	0.0	80	3854866	138	90	720	1	1	81423.8495639	81423.8502188	80	81427.131632	81427.1321167	40	81430.3295833	81430.3300794	100	del	81438.696897	81439.2100976	81439.2105734	120.0	4.0	81440.0248065
1885.54052734375	0.0	40	3861587	138	90	720	1	1	81423.8495639	81423.8502188	80	81427.131632	81427.1321167	40	81430.3295833	81430.3300794	100	del	81438.696897	81439.2100976	81439.2105734	120.0	4.0	81440.0248065
1888.73828125	0.0	100	3868136	138	90	720	1	1	81423.8495639	81423.8502188	80	81427.131632	81427.1321167	40	81430.3295833	81430.3300794	100	del	81438.696897	81439.2100976	81439.2105734	120.0	4.0	81440.0248065
1897.61865234375	0.0	120	3886323	138	90	720	1	1	81423.8495639	81423.8502188	80	81427.131632	81427.1321167	40	81430.3295833	81430.3300794	100	del	81438.696897	81439.2100976	81439.2105734	120.0	4.0	81440.0248065
1900.55322265625	0.0	80	3892333	139	50	180	0	0	81442.1447893	81442.145283	80	81445.3736774	81445.3741268	40	81448.8653302	81448.8658018	100	del	81461.7688089	nan	nan	nan	nan	nan
1903.7822265625	0.0	40	3898946	139	50	180	0	0	81442.1447893	81442.145283	80	81445.3736774	81445.3741268	40	81448.8653302	81448.8658018	100	del	81461.7688089	nan	nan	nan	nan	nan
1907.27392578125	0.0	100	3906097	139	50	180	0	0	81442.1447893	81442.145283	80	81445.3736774	81445.3741268	40	81448.8653302	81448.8658018	100	del	81461.7688089	nan	nan	nan	nan	nan
1922.7568359375	0.0	80	3937806	140	100	180	1	0	81464.3487793	81464.3492582	80	81467.591622	81467.5920901	40	81471.0343164	81471.0348127	100	del	81472.8241472	81473.3382466	81473.3387757	120.0	3.0	81473.8641748
1925.99951171875	0.0	40	3944447	140	100	180	1	0	81464.3487793	81464.3492582	80	81467.591622	81467.5920901	40	81471.0343164	81471.0348127	100	del	81472.8241472	81473.3382466	81473.3387757	120.0	3.0	81473.8641748
1929.44189453125	0.0	100	3951497	140	100	180	1	0	81464.3487793	81464.3492582	80	81467.591622	81467.5920901	40	81471.0343164	81471.0348127	100	del	81472.8241472	81473.3382466	81473.3387757	120.0	3.0	81473.8641748
1931.74609375	0.0	120	3956216	140	100	180	1	0	81464.3487793	81464.3492582	80	81467.591622	81467.5920901	40	81471.0343164	81471.0348127	100	del	81472.8241472	81473.3382466	81473.3387757	120.0	3.0	81473.8641748
2021.771484375	0.0	80	4140588	141	73	1440	0	0	81563.3661394	81563.366675	80	81566.7201531	81566.7206624	40	81570.2234465	81570.2239702	100	del	81571.6317904	nan	nan	nan	nan	nan
2025.12548828125	0.0	40	4147457	141	73	1440	0	0	81563.3661394	81563.366675	80	81566.7201531	81566.7206624	40	81570.2234465	81570.2239702	100	del	81571.6317904	nan	nan	nan	nan	nan
2028.62890625	0.0	100	4154632	141	73	1440	0	0	81563.3661394	81563.366675	80	81566.7201531	81566.7206624	40	81570.2234465	81570.2239702	100	del	81571.6317904	nan	nan	nan	nan	nan
2032.69677734375	0.0	80	4162963	142	70	1	1	0	81574.2915691	81574.2921443	80	81577.366822	81577.3673123	40	81580.7228897	81580.7234211	100	del	81584.3919153	81584.905236	81584.9057216	120.0	3.0	81585.7679026
2035.77197265625	0.0	40	4169261	142	70	1	1	0	81574.2915691	81574.2921443	80	81577.366822	81577.3673123	40	81580.7228897	81580.7234211	100	del	81584.3919153	81584.905236	81584.9057216	120.0	3.0	81585.7679026
2039.1279296875	0.0	100	4176134	142	70	1	1	0	81574.2915691	81574.2921443	80	81577.366822	81577.3673123	40	81580.7228897	81580.7234211	100	del	81584.3919153	81584.905236	81584.9057216	120.0	3.0	81585.7679026
2043.31005859375	0.0	120	4184699	142	70	1	1	0	81574.2915691	81574.2921443	80	81577.366822	81577.3673123	40	81580.7228897	81580.7234211	100	del	81584.3919153	81584.905236	81584.9057216	120.0	3.0	81585.7679026
2046.64111328125	0.0	80	4191521	143	53	1	1	1	81588.2365747	81588.2368434	80	81591.5495319	81591.5500185	40	81595.0125177	81595.0130381	100	del	81596.1361511	81596.6454018	81596.6457462	120.0	4.0	81597.2083016
2049.9541015625	0.0	40	4198306	143	53	1	1	1	81588.2365747	81588.2368434	80	81591.5495319	81591.5500185	40	81595.0125177	81595.0130381	100	del	81596.1361511	81596.6454018	81596.6457462	120.0	4.0	81597.2083016
2053.4169921875	0.0	100	4205398	143	53	1	1	1	81588.2365747	81588.2368434	80	81591.5495319	81591.5500185	40	81595.0125177	81595.0130381	100	del	81596.1361511	81596.6454018	81596.6457462	120.0	4.0	81597.2083016
2055.0498046875	0.0	120	4208742	143	53	1	1	1	81588.2365747	81588.2368434	80	81591.5495319	81591.5500185	40	81595.0125177	81595.0130381	100	del	81596.1361511	81596.6454018	81596.6457462	120.0	4.0	81597.2083016
2057.72265625	0.0	80	4214216	144	50	40	1	0	81599.3181622	81599.3184495	80	81602.7027004	81602.7032245	40	81605.8886163	81605.8891086	100	imm	81607.6001524	81608.111926	81608.1124157	120.0	1.0	81609.1604571
2061.10693359375	0.0	40	4221147	144	50	40	1	0	81599.3181622	81599.3184495	80	81602.7027004	81602.7032245	40	81605.8886163	81605.8891086	100	imm	81607.6001524	81608.111926	81608.1124157	120.0	1.0	81609.1604571
2064.29296875	0.0	100	4227672	144	50	40	1	0	81599.3181622	81599.3184495	80	81602.7027004	81602.7032245	40	81605.8886163	81605.8891086	100	imm	81607.6001524	81608.111926	81608.1124157	120.0	1.0	81609.1604571
2066.51611328125	0.0	120	4232225	144	50	40	1	0	81599.3181622	81599.3184495	80	81602.7027004	81602.7032245	40	81605.8886163	81605.8891086	100	imm	81607.6001524	81608.111926	81608.1124157	120.0	1.0	81609.1604571
2069.7900390625	0.0	80	4238930	145	80	180	1	0	81611.385734	81611.3861501	80	81614.4709382	81614.4713619	40	81617.8934944	81617.8939977	100	del	81620.265563	81620.778784	81620.7792973	120.0	1.0	81621.3365631
2072.875	0.0	40	4245248	145	80	180	1	0	81611.385734	81611.3861501	80	81614.4709382	81614.4713619	40	81617.8934944	81617.8939977	100	del	81620.265563	81620.778784	81620.7792973	120.0	1.0	81621.3365631
2076.29736328125	0.0	100	4252257	145	80	180	1	0	81611.385734	81611.3861501	80	81614.4709382	81614.4713619	40	81617.8934944	81617.8939977	100	del	81620.265563	81620.778784	81620.7792973	120.0	1.0	81621.3365631
2079.1826171875	0.0	120	4258166	145	80	180	1	0	81611.385734	81611.3861501	80	81614.4709382	81614.4713619	40	81617.8934944	81617.8939977	100	del	81620.265563	81620.778784	81620.7792973	120.0	1.0	81621.3365631
2082.06884765625	0.0	80	4264077	146	67	180	0	1	81623.6649045	81623.6654131	80	81627.0418854	81627.0424541	40	81630.457811	81630.45843	100	del	81631.4007819	nan	nan	nan	nan	nan
2085.44580078125	0.0	40	4270993	146	67	180	0	1	81623.6649045	81623.6654131	80	81627.0418854	81627.0424541	40	81630.457811	81630.45843	100	del	81631.4007819	nan	nan	nan	nan	nan
