onset	duration	value	sample	trial_idx	val	del	is_cued	rev_opts	del_pres_displaytime	del_pres_triggertime	del_pres_triggercode	val_pres_displaytime	val_pres_triggertime	val_pres_triggercode	choice_displaytime	choice_triggertime	choice_triggercode	choice	choice_time	viv_displaytime	viv_triggertime	viv_triggercode	viv	viv_time
47.9677734375	0.0	80	98238	1	97	906	1	0	721966.3789285	721966.3802768	80	721969.5810406	721969.5819318	40	721972.7107324	721972.711613	100	imm	721976.5782287	721977.0920257	721977.0925657	120.0	3.0	721980.5068289
51.169921875	0.0	40	104796	1	97	906	1	0	721966.3789285	721966.3802768	80	721969.5810406	721969.5819318	40	721972.7107324	721972.711613	100	imm	721976.5782287	721977.0920257	721977.0925657	120.0	3.0	721980.5068289
54.29931640625	0.0	100	111205	1	97	906	1	0	721966.3789285	721966.3802768	80	721969.5810406	721969.5819318	40	721972.7107324	721972.711613	100	imm	721976.5782287	721977.0920257	721977.0925657	120.0	3.0	721980.5068289
58.6806640625	0.0	120	120178	1	97	906	1	0	721966.3789285	721966.3802768	80	721969.5810406	721969.5819318	40	721972.7107324	721972.711613	100	imm	721976.5782287	721977.0920257	721977.0925657	120.0	3.0	721980.5068289
64.3583984375	0.0	80	131806	2	83	560	0	1	721982.7695743	721982.7702072	80	721985.9484011	721985.9491921	40	721989.4391671	721989.4399345	100	imm	721991.5062557	nan	nan	nan	nan	nan
67.53662109375	0.0	40	138315	2	83	560	0	1	721982.7695743	721982.7702072	80	721985.9484011	721985.9491921	40	721989.4391671	721989.4399345	100	imm	721991.5062557	nan	nan	nan	nan	nan
71.02734375	0.0	100	145464	2	83	560	0	1	721982.7695743	721982.7702072	80	721985.9484011	721985.9491921	40	721989.4391671	721989.4399345	100	imm	721991.5062557	nan	nan	nan	nan	nan
76.078125	0.0	80	155808	3	53	250	0	0	721994.4895543	721994.4901748	80	721997.5246204	721997.5253484	40	722000.9080485	722000.9087563	100	imm	722001.8117727	nan	nan	nan	nan	nan
79.11279296875	0.0	40	162023	3	53	250	0	0	721994.4895543	721994.4901748	80	721997.5246204	721997.5253484	40	722000.9080485	722000.9087563	100	imm	722001.8117727	nan	nan	nan	nan	nan
82.49658203125	0.0	100	168953	3	53	250	0	0	721994.4895543	721994.4901748	80	721997.5246204	721997.5253484	40	722000.9080485	722000.9087563	100	imm	722001.8117727	nan	nan	nan	nan	nan
86.0537109375	0.0	80	176238	4	63	340	1	1	722004.4659191	722004.4666798	80	722007.6863781	722007.6870231	40	722010.9748072	722010.9755079	100	imm	722012.4182024	722012.9310481	722012.9317045	120.0	2.0	722015.4903078
89.2744140625	0.0	40	182834	4	63	340	1	1	722004.4659191	722004.4666798	80	722007.6863781	722007.6870231	40	722010.9748072	722010.9755079	100	imm	722012.4182024	722012.9310481	722012.9317045	120.0	2.0	722015.4903078
92.56298828125	0.0	100	189569	4	63	340	1	1	722004.4659191	722004.4666798	80	722007.6863781	722007.6870231	40	722010.9748072	722010.9755079	100	imm	722012.4182024	722012.9310481	722012.9317045	120.0	2.0	722015.4903078
94.51904296875	0.0	120	193575	4	63	340	1	1	722004.4659191	722004.4666798	80	722007.6863781	722007.6870231	40	722010.9748072	722010.9755079	100	imm	722012.4182024	722012.9310481	722012.9317045	120.0	2.0	722015.4903078
99.57080078125	0.0	80	203921	5	83	180	1	1	722017.9828343	722017.9847939	80	722021.2053428	722021.2077411	40	722024.7183948	722024.7208808	100	del	722027.7703891	722028.284661	722028.2852497	120.0	2.0	722029.8904161
102.79296875	0.0	40	210520	5	83	180	1	1	722017.9828343	722017.9847939	80	722021.2053428	722021.2077411	40	722024.7183948	722024.7208808	100	del	722027.7703891	722028.284661	722028.2852497	120.0	2.0	722029.8904161
106.30615234375	0.0	100	217715	5	83	180	1	1	722017.9828343	722017.9847939	80	722021.2053428	722021.2077411	40	722024.7183948	722024.7208808	100	del	722027.7703891	722028.284661	722028.2852497	120.0	2.0	722029.8904161
109.8720703125	0.0	120	225018	5	83	180	1	1	722017.9828343	722017.9847939	80	722021.2053428	722021.2077411	40	722024.7183948	722024.7208808	100	del	722027.7703891	722028.284661	722028.2852497	120.0	2.0	722029.8904161
113.6494140625	0.0	80	232754	6	100	340	1	1	722032.0620736	722032.0627081	80	722035.4205099	722035.4211987	40	722038.7671515	722038.7676693	100	del	722039.8108123	722040.3232914	722040.3240276	120.0	3.0	722041.9943259
117.0078125	0.0	40	239632	6	100	340	1	1	722032.0620736	722032.0627081	80	722035.4205099	722035.4211987	40	722038.7671515	722038.7676693	100	del	722039.8108123	722040.3232914	722040.3240276	120.0	3.0	722041.9943259
120.3544921875	0.0	100	246486	6	100	340	1	1	722032.0620736	722032.0627081	80	722035.4205099	722035.4211987	40	722038.7671515	722038.7676693	100	del	722039.8108123	722040.3232914	722040.3240276	120.0	3.0	722041.9943259
121.91015625	0.0	120	249672	6	100	340	1	1	722032.0620736	722032.0627081	80	722035.4205099	722035.4211987	40	722038.7671515	722038.7676693	100	del	722039.8108123	722040.3232914	722040.3240276	120.0	3.0	722041.9943259
125.86572265625	0.0	80	257773	7	97	340	1	0	722044.2786376	722044.2790998	80	722047.6348288	722047.6355329	40	722050.9841861	722050.9846852	100	imm	722052.2582781	722052.7701982	722052.7720309	120.0	2.0	722055.1062437
129.22216796875	0.0	40	264647	7	97	340	1	0	722044.2786376	722044.2790998	80	722047.6348288	722047.6355329	40	722050.9841861	722050.9846852	100	imm	722052.2582781	722052.7701982	722052.7720309	120.0	2.0	722055.1062437
132.5712890625	0.0	100	271506	7	97	340	1	0	722044.2786376	722044.2790998	80	722047.6348288	722047.6355329	40	722050.9841861	722050.9846852	100	imm	722052.2582781	722052.7701982	722052.7720309	120.0	2.0	722055.1062437
134.35693359375	0.0	120	275163	7	97	340	1	0	722044.2786376	722044.2790998	80	722047.6348288	722047.6355329	40	722050.9841861	722050.9846852	100	imm	722052.2582781	722052.7701982	722052.7720309	120.0	2.0	722055.1062437
138.79833984375	0.0	80	284259	8	83	906	1	1	722057.2116952	722057.2121664	80	722060.2832	722060.2837093	40	722063.798406	722063.7988901	100	imm	722065.5864799	722066.0957875	722066.0960167	120.0	3.0	722067.4100356
141.86962890625	0.0	40	290549	8	83	906	1	1	722057.2116952	722057.2121664	80	722060.2832	722060.2837093	40	722063.798406	722063.7988901	100	imm	722065.5864799	722066.0957875	722066.0960167	120.0	3.0	722067.4100356
145.384765625	0.0	100	297748	8	83	906	1	1	722057.2116952	722057.2121664	80	722060.2832	722060.2837093	40	722063.798406	722063.7988901	100	imm	722065.5864799	722066.0957875	722066.0960167	120.0	3.0	722067.4100356
147.6826171875	0.0	120	302454	8	83	906	1	1	722057.2116952	722057.2121664	80	722060.2832	722060.2837093	40	722063.798406	722063.7988901	100	imm	722065.5864799	722066.0957875	722066.0960167	120.0	3.0	722067.4100356
151.09814453125	0.0	80	309449	9	100	560	0	0	722069.5115062	722069.5119546	80	722072.5355551	722072.5359955	40	722075.8302348	722075.8307771	100	imm	722078.3858747	nan	nan	nan	nan	nan
154.1220703125	0.0	40	315642	9	100	560	0	0	722069.5115062	722069.5119546	80	722072.5355551	722072.5359955	40	722075.8302348	722075.8307771	100	imm	722078.3858747	nan	nan	nan	nan	nan
157.41650390625	0.0	100	322389	9	100	560	0	0	722069.5115062	722069.5119546	80	722072.5355551	722072.5359955	40	722075.8302348	722075.8307771	100	imm	722078.3858747	nan	nan	nan	nan	nan
162.93212890625	0.0	80	333685	10	70	30	0	1	722081.3458966	722081.3463644	80	722084.6883967	722084.688857	40	722087.7968008	722087.7972709	100	del	722089.52255	nan	nan	nan	nan	nan
166.2744140625	0.0	40	340530	10	70	30	0	1	722081.3458966	722081.3463644	80	722084.6883967	722084.688857	40	722087.7968008	722087.7972709	100	del	722089.52255	nan	nan	nan	nan	nan
169.3828125	0.0	100	346896	10	70	30	0	1	722081.3458966	722081.3463644	80	722084.6883967	722084.688857	40	722087.7968008	722087.7972709	100	del	722089.52255	nan	nan	nan	nan	nan
173.80859375	0.0	80	355960	11	73	906	1	1	722092.2229135	722092.2233968	80	722095.4614866	722095.4619314	40	722098.961666	722098.9620676	100	imm	722099.7223879	722100.2334694	722100.2338289	120.0	1.0	722102.466444
177.04736328125	0.0	40	362593	11	73	906	1	1	722092.2229135	722092.2233968	80	722095.4614866	722095.4619314	40	722098.961666	722098.9620676	100	imm	722099.7223879	722100.2334694	722100.2338289	120.0	1.0	722102.466444
180.54736328125	0.0	100	369761	11	73	906	1	1	722092.2229135	722092.2233968	80	722095.4614866	722095.4619314	40	722098.961666	722098.9620676	100	imm	722099.7223879	722100.2334694	722100.2338289	120.0	1.0	722102.466444
181.8193359375	0.0	120	372366	11	73	906	1	1	722092.2229135	722092.2233968	80	722095.4614866	722095.4619314	40	722098.961666	722098.9620676	100	imm	722099.7223879	722100.2334694	722100.2338289	120.0	1.0	722102.466444
186.1455078125	0.0	80	381226	12	50	180	1	1	722104.5599217	722104.560383	80	722107.996714	722107.9971791	40	722111.3325851	722111.3331836	100	imm	722112.7076303	722113.2215483	722113.2220225	120.0	1.0	722115.7381757
189.58203125	0.0	40	388264	12	50	180	1	1	722104.5599217	722104.560383	80	722107.996714	722107.9971791	40	722111.3325851	722111.3331836	100	imm	722112.7076303	722113.2215483	722113.2220225	120.0	1.0	722115.7381757
192.91796875	0.0	100	395096	12	50	180	1	1	722104.5599217	722104.560383	80	722107.996714	722107.9971791	40	722111.3325851	722111.3331836	100	imm	722112.7076303	722113.2215483	722113.2220225	120.0	1.0	722115.7381757
194.806640625	0.0	120	398964	12	50	180	1	1	722104.5599217	722104.560383	80	722107.996714	722107.9971791	40	722111.3325851	722111.3331836	100	imm	722112.7076303	722113.2215483	722113.2220225	120.0	1.0	722115.7381757
199.52783203125	0.0	80	408633	13	50	1470	0	1	722117.9427823	722117.9432178	80	722121.0460057	722121.0464595	40	722124.2737427	722124.274167	100	imm	722126.0656745	nan	nan	nan	nan	nan
202.63134765625	0.0	40	414989	13	50	1470	0	1	722117.9427823	722117.9432178	80	722121.0460057	722121.0464595	40	722124.2737427	722124.274167	100	imm	722126.0656745	nan	nan	nan	nan	nan
205.85888671875	0.0	100	421599	13	50	1470	0	1	722117.9427823	722117.9432178	80	722121.0460057	722121.0464595	40	722124.2737427	722124.274167	100	imm	722126.0656745	nan	nan	nan	nan	nan
210.40966796875	0.0	80	430919	14	90	180	1	1	722128.8246975	722128.8251864	80	722131.8931205	722131.8937046	40	722135.2018313	722135.2023026	100	imm	722137.2576754	722137.7694118	722137.7697941	120.0	3.0	722141.7784895
213.47802734375	0.0	40	437203	14	90	180	1	1	722128.8246975	722128.8251864	80	722131.8931205	722131.8937046	40	722135.2018313	722135.2023026	100	imm	722137.2576754	722137.7694118	722137.7697941	120.0	3.0	722141.7784895
216.78662109375	0.0	100	443979	14	90	180	1	1	722128.8246975	722128.8251864	80	722131.8931205	722131.8937046	40	722135.2018313	722135.2023026	100	imm	722137.2576754	722137.7694118	722137.7697941	120.0	3.0	722141.7784895
219.35400390625	0.0	120	449237	14	90	180	1	1	722128.8246975	722128.8251864	80	722131.8931205	722131.8937046	40	722135.2018313	722135.2023026	100	imm	722137.2576754	722137.7694118	722137.7697941	120.0	3.0	722141.7784895
225.49462890625	0.0	80	461813	15	100	1470	0	1	722143.9099596	722143.911048	80	722147.1104246	722147.1108536	40	722150.4158621	722150.4163731	100	imm	722151.7939279	nan	nan	nan	nan	nan
228.69482421875	0.0	40	468367	15	100	1470	0	1	722143.9099596	722143.911048	80	722147.1104246	722147.1108536	40	722150.4158621	722150.4163731	100	imm	722151.7939279	nan	nan	nan	nan	nan
232.00048828125	0.0	100	475137	15	100	1470	0	1	722143.9099596	722143.911048	80	722147.1104246	722147.1108536	40	722150.4158621	722150.4163731	100	imm	722151.7939279	nan	nan	nan	nan	nan
236.0205078125	0.0	80	483370	16	100	180	1	1	722154.4362327	722154.4366653	80	722157.5891739	722157.5895654	40	722160.9109307	722160.9116958	100	imm	722163.6978854	722164.2073633	722164.2076774	120.0	2.0	722165.3939573
239.17333984375	0.0	40	489827	16	100	180	1	1	722154.4362327	722154.4366653	80	722157.5891739	722157.5895654	40	722160.9109307	722160.9116958	100	imm	722163.6978854	722164.2073633	722164.2076774	120.0	2.0	722165.3939573
242.4951171875	0.0	100	496630	16	100	180	1	1	722154.4362327	722154.4366653	80	722157.5891739	722157.5895654	40	722160.9109307	722160.9116958	100	imm	722163.6978854	722164.2073633	722164.2076774	120.0	2.0	722165.3939573
245.79150390625	0.0	120	503381	16	100	180	1	1	722154.4362327	722154.4366653	80	722157.5891739	722157.5895654	40	722160.9109307	722160.9116958	100	imm	722163.6978854	722164.2073633	722164.2076774	120.0	2.0	722165.3939573
249.1259765625	0.0	80	510210	17	80	120	0	1	722167.5418565	722167.5424287	80	722170.9624199	722170.9628948	40	722174.4673021	722174.4677279	100	imm	722175.802004	nan	nan	nan	nan	nan
252.54638671875	0.0	40	517215	17	80	120	0	1	722167.5418565	722167.5424287	80	722170.9624199	722170.9628948	40	722174.4673021	722174.4677279	100	imm	722175.802004	nan	nan	nan	nan	nan
256.05126953125	0.0	100	524393	17	80	120	0	1	722167.5418565	722167.5424287	80	722170.9624199	722170.9628948	40	722174.4673021	722174.4677279	100	imm	722175.802004	nan	nan	nan	nan	nan
260.26953125	0.0	80	533032	18	93	120	0	1	722178.6858168	722178.6863256	80	722181.865614	722181.8660479	40	722185.1706161	722185.1711358	100	imm	722186.9859427	nan	nan	nan	nan	nan
263.44921875	0.0	40	539544	18	93	120	0	1	722178.6858168	722178.6863256	80	722181.865614	722181.8660479	40	722185.1706161	722185.1711358	100	imm	722186.9859427	nan	nan	nan	nan	nan
266.75439453125	0.0	100	546313	18	93	120	0	1	722178.6858168	722178.6863256	80	722181.865614	722181.8660479	40	722185.1706161	722185.1711358	100	imm	722186.9859427	nan	nan	nan	nan	nan
271.14111328125	0.0	80	555297	19	73	1470	0	1	722189.5576126	722189.5580757	80	722193.0181458	722193.0185829	40	722196.4710268	722196.4715888	100	imm	722197.2415159	nan	nan	nan	nan	nan
274.6015625	0.0	40	562384	19	73	1470	0	1	722189.5576126	722189.5580757	80	722193.0181458	722193.0185829	40	722196.4710268	722196.4715888	100	imm	722197.2415159	nan	nan	nan	nan	nan
278.05419921875	0.0	100	569455	19	73	1470	0	1	722189.5576126	722189.5580757	80	722193.0181458	722193.0185829	40	722196.4710268	722196.4715888	100	imm	722197.2415159	nan	nan	nan	nan	nan
281.7509765625	0.0	80	577026	20	97	180	1	0	722200.1676027	722200.1680587	80	722203.3058318	722203.3062992	40	722206.6161729	722206.6166608	100	imm	722208.5219764	722209.0352625	722209.0357821	120.0	2.0	722210.0418244
284.88916015625	0.0	40	583453	20	97	180	1	0	722200.1676027	722200.1680587	80	722203.3058318	722203.3062992	40	722206.6161729	722206.6166608	100	imm	722208.5219764	722209.0352625	722209.0357821	120.0	2.0	722210.0418244
288.19921875	0.0	100	590232	20	97	180	1	0	722200.1676027	722200.1680587	80	722203.3058318	722203.3062992	40	722206.6161729	722206.6166608	100	imm	722208.5219764	722209.0352625	722209.0357821	120.0	2.0	722210.0418244
290.6181640625	0.0	120	595186	20	97	180	1	0	722200.1676027	722200.1680587	80	722203.3058318	722203.3062992	40	722206.6161729	722206.6166608	100	imm	722208.5219764	722209.0352625	722209.0357821	120.0	2.0	722210.0418244
311.8974609375	0.0	80	638766	21	57	1470	0	1	722230.3149738	722230.3154983	80	722233.5353943	722233.5359264	40	722236.7050666	722236.7055364	100	imm	722237.9302656	nan	nan	nan	nan	nan
315.11767578125	0.0	40	645361	21	57	1470	0	1	722230.3149738	722230.3154983	80	722233.5353943	722233.5359264	40	722236.7050666	722236.7055364	100	imm	722237.9302656	nan	nan	nan	nan	nan
318.287109375	0.0	100	651852	21	57	1470	0	1	722230.3149738	722230.3154983	80	722233.5353943	722233.5359264	40	722236.7050666	722236.7055364	100	imm	722237.9302656	nan	nan	nan	nan	nan
322.11181640625	0.0	80	659685	22	100	906	1	1	722240.5298896	722240.5302882	80	722243.6271107	722243.6275688	40	722246.8523889	722246.8528891	100	del	722248.1460493	722248.6585681	722248.6589627	120.0	2.0	722250.4816647
325.208984375	0.0	40	666028	22	100	906	1	1	722240.5298896	722240.5302882	80	722243.6271107	722243.6275688	40	722246.8523889	722246.8528891	100	del	722248.1460493	722248.6585681	722248.6589627	120.0	2.0	722250.4816647
328.4345703125	0.0	100	672634	22	100	906	1	1	722240.5298896	722240.5302882	80	722243.6271107	722243.6275688	40	722246.8523889	722246.8528891	100	del	722248.1460493	722248.6585681	722248.6589627	120.0	2.0	722250.4816647
330.24072265625	0.0	120	676333	22	100	906	1	1	722240.5298896	722240.5302882	80	722243.6271107	722243.6275688	40	722246.8523889	722246.8528891	100	del	722248.1460493	722248.6585681	722248.6589627	120.0	2.0	722250.4816647
334.12646484375	0.0	80	684291	23	87	560	0	1	722252.5445105	722252.5449605	80	722255.8516775	722255.8521749	40	722259.1007604	722259.1012816	100	imm	722262.6028253	nan	nan	nan	nan	nan
337.43359375	0.0	40	691064	23	87	560	0	1	722252.5445105	722252.5449605	80	722255.8516775	722255.8521749	40	722259.1007604	722259.1012816	100	imm	722262.6028253	nan	nan	nan	nan	nan
340.6826171875	0.0	100	697718	23	87	560	0	1	722252.5445105	722252.5449605	80	722255.8516775	722255.8521749	40	722259.1007604	722259.1012816	100	imm	722262.6028253	nan	nan	nan	nan	nan
347.05126953125	0.0	80	710761	24	63	120	0	1	722265.4695363	722265.4700557	80	722268.8271448	722268.8275696	40	722272.1599759	722272.1604826	100	imm	722273.2174213	nan	nan	nan	nan	nan
350.40869140625	0.0	40	717637	24	63	120	0	1	722265.4695363	722265.4700557	80	722268.8271448	722268.8275696	40	722272.1599759	722272.1604826	100	imm	722273.2174213	nan	nan	nan	nan	nan
353.7412109375	0.0	100	724462	24	63	120	0	1	722265.4695363	722265.4700557	80	722268.8271448	722268.8275696	40	722272.1599759	722272.1604826	100	imm	722273.2174213	nan	nan	nan	nan	nan
357.333984375	0.0	80	731820	25	77	906	1	0	722275.7526782	722275.7531788	80	722278.7936246	722278.7939821	40	722281.9673544	722281.967875	100	imm	722283.7302499	722284.239092	722284.2393548	120.0	2.0	722287.9935113
360.375	0.0	40	738048	25	77	906	1	0	722275.7526782	722275.7531788	80	722278.7936246	722278.7939821	40	722281.9673544	722281.967875	100	imm	722283.7302499	722284.239092	722284.2393548	120.0	2.0	722287.9935113
363.54833984375	0.0	100	744547	25	77	906	1	0	722275.7526782	722275.7531788	80	722278.7936246	722278.7939821	40	722281.9673544	722281.967875	100	imm	722283.7302499	722284.239092	722284.2393548	120.0	2.0	722287.9935113
365.8203125	0.0	120	749200	25	77	906	1	0	722275.7526782	722275.7531788	80	722278.7936246	722278.7939821	40	722281.9673544	722281.967875	100	imm	722283.7302499	722284.239092	722284.2393548	120.0	2.0	722287.9935113
371.85546875	0.0	80	761560	26	80	340	1	1	722290.2745594	722290.2750884	80	722293.6095839	722293.6100702	40	722296.8269776	722296.8275851	100	imm	722299.6739762	722300.1870156	722300.1875054	120.0	3.0	722301.7218872
375.1904296875	0.0	40	768390	26	80	340	1	1	722290.2745594	722290.2750884	80	722293.6095839	722293.6100702	40	722296.8269776	722296.8275851	100	imm	722299.6739762	722300.1870156	722300.1875054	120.0	3.0	722301.7218872
378.40771484375	0.0	100	774979	26	80	340	1	1	722290.2745594	722290.2750884	80	722293.6095839	722293.6100702	40	722296.8269776	722296.8275851	100	imm	722299.6739762	722300.1870156	722300.1875054	120.0	3.0	722301.7218872
381.767578125	0.0	120	781860	26	80	340	1	1	722290.2745594	722290.2750884	80	722293.6095839	722293.6100702	40	722296.8269776	722296.8275851	100	imm	722299.6739762	722300.1870156	722300.1875054	120.0	3.0	722301.7218872
385.72607421875	0.0	80	789967	27	63	30	0	0	722304.1453489	722304.1458307	80	722307.5123626	722307.512821	40	722311.009787	722311.0103705	100	imm	722313.3698003	nan	nan	nan	nan	nan
389.0927734375	0.0	40	796862	27	63	30	0	0	722304.1453489	722304.1458307	80	722307.5123626	722307.512821	40	722311.009787	722311.0103705	100	imm	722313.3698003	nan	nan	nan	nan	nan
392.59033203125	0.0	100	804025	27	63	30	0	0	722304.1453489	722304.1458307	80	722307.5123626	722307.512821	40	722311.009787	722311.0103705	100	imm	722313.3698003	nan	nan	nan	nan	nan
397.732421875	0.0	80	814556	28	73	120	0	0	722316.1521906	722316.152649	80	722319.3223132	722319.3228204	40	722322.3885817	722322.3890555	100	imm	722323.0092476	nan	nan	nan	nan	nan
400.90234375	0.0	40	821048	28	73	120	0	0	722316.1521906	722316.152649	80	722319.3223132	722319.3228204	40	722322.3885817	722322.3890555	100	imm	722323.0092476	nan	nan	nan	nan	nan
403.96875	0.0	100	827328	28	73	120	0	0	722316.1521906	722316.152649	80	722319.3223132	722319.3228204	40	722322.3885817	722322.3890555	100	imm	722323.0092476	nan	nan	nan	nan	nan
407.4091796875	0.0	80	834374	29	60	30	0	0	722325.8289968	722325.829267	80	722329.2257622	722329.2262537	40	722332.4469089	722332.447236	100	imm	722332.9775188	nan	nan	nan	nan	nan
410.8056640625	0.0	40	841330	29	60	30	0	0	722325.8289968	722325.829267	80	722329.2257622	722329.2262537	40	722332.4469089	722332.447236	100	imm	722332.9775188	nan	nan	nan	nan	nan
414.02685546875	0.0	100	847927	29	60	30	0	0	722325.8289968	722325.829267	80	722329.2257622	722329.2262537	40	722332.4469089	722332.447236	100	imm	722332.9775188	nan	nan	nan	nan	nan
417.12109375	0.0	80	854264	30	60	120	0	1	722335.541445	722335.5419913	80	722338.6819862	722338.6824446	40	722341.772304	722341.772981	100	imm	722342.4510797	nan	nan	nan	nan	nan
420.26171875	0.0	40	860696	30	60	120	0	1	722335.541445	722335.5419913	80	722338.6819862	722338.6824446	40	722341.772304	722341.772981	100	imm	722342.4510797	nan	nan	nan	nan	nan
423.35205078125	0.0	100	867025	30	60	120	0	1	722335.541445	722335.5419913	80	722338.6819862	722338.6824446	40	722341.772304	722341.772981	100	imm	722342.4510797	nan	nan	nan	nan	nan
426.6904296875	0.0	80	873862	31	60	560	0	1	722345.1111013	722345.11158	80	722348.3392713	722348.3398515	40	722351.6135858	722351.6140145	100	imm	722352.7860431	nan	nan	nan	nan	nan
429.9189453125	0.0	40	880474	31	60	560	0	1	722345.1111013	722345.11158	80	722348.3392713	722348.3398515	40	722351.6135858	722351.6140145	100	imm	722352.7860431	nan	nan	nan	nan	nan
433.19287109375	0.0	100	887179	31	60	560	0	1	722345.1111013	722345.11158	80	722348.3392713	722348.3398515	40	722351.6135858	722351.6140145	100	imm	722352.7860431	nan	nan	nan	nan	nan
437.1123046875	0.0	80	895206	32	53	68	1	1	722355.5330533	722355.533558	80	722358.9783101	722358.9787943	40	722362.2507418	722362.2512141	100	imm	722366.6896571	722367.2015995	722367.2020589	120.0	3.0	722368.0891548
440.5576171875	0.0	40	902262	32	53	68	1	1	722355.5330533	722355.533558	80	722358.9783101	722358.9787943	40	722362.2507418	722362.2512141	100	imm	722366.6896571	722367.2015995	722367.2020589	120.0	3.0	722368.0891548
443.830078125	0.0	100	908964	32	53	68	1	1	722355.5330533	722355.533558	80	722358.9783101	722358.9787943	40	722362.2507418	722362.2512141	100	imm	722366.6896571	722367.2015995	722367.2020589	120.0	3.0	722368.0891548
448.78076171875	0.0	120	919103	32	53	68	1	1	722355.5330533	722355.533558	80	722358.9783101	722358.9787943	40	722362.2507418	722362.2512141	100	imm	722366.6896571	722367.2015995	722367.2020589	120.0	3.0	722368.0891548
452.15576171875	0.0	80	926015	33	93	68	1	0	722370.5769261	722370.5773877	80	722373.9037894	722373.9043209	40	722377.3952786	722377.3957684	100	del	722378.8581391	722379.3683921	722379.368989	120.0	4.0	722380.9861866
455.482421875	0.0	40	932828	33	93	68	1	0	722370.5769261	722370.5773877	80	722373.9037894	722373.9043209	40	722377.3952786	722377.3957684	100	del	722378.8581391	722379.3683921	722379.368989	120.0	4.0	722380.9861866
458.97412109375	0.0	100	939979	33	93	68	1	0	722370.5769261	722370.5773877	80	722373.9037894	722373.9043209	40	722377.3952786	722377.3957684	100	del	722378.8581391	722379.3683921	722379.368989	120.0	4.0	722380.9861866
460.947265625	0.0	120	944020	33	93	68	1	0	722370.5769261	722370.5773877	80	722373.9037894	722373.9043209	40	722377.3952786	722377.3957684	100	del	722378.8581391	722379.3683921	722379.368989	120.0	4.0	722380.9861866
464.69873046875	0.0	80	951703	34	63	68	1	0	722383.1200197	722383.1203516	80	722386.4655607	722386.466017	40	722389.6243244	722389.6247709	100	imm	722392.1853339	722392.6965455	722392.6970095	120.0	2.0	722395.0976334
468.0439453125	0.0	40	958554	34	63	68	1	0	722383.1200197	722383.1203516	80	722386.4655607	722386.466017	40	722389.6243244	722389.6247709	100	imm	722392.1853339	722392.6965455	722392.6970095	120.0	2.0	722395.0976334
471.20263671875	0.0	100	965023	34	63	68	1	0	722383.1200197	722383.1203516	80	722386.4655607	722386.466017	40	722389.6243244	722389.6247709	100	imm	722392.1853339	722392.6965455	722392.6970095	120.0	2.0	722395.0976334
474.27490234375	0.0	120	971315	34	63	68	1	0	722383.1200197	722383.1203516	80	722386.4655607	722386.466017	40	722389.6243244	722389.6247709	100	imm	722392.1853339	722392.6965455	722392.6970095	120.0	2.0	722395.0976334
479.0244140625	0.0	80	981042	35	67	68	1	0	722397.4458657	722397.4460746	80	722400.8013376	722400.8018074	40	722403.848244	722403.8488748	100	imm	722405.4589278	722405.9687039	722405.9690377	120.0	2.0	722406.8338087
482.37939453125	0.0	40	987913	35	67	68	1	0	722397.4458657	722397.4460746	80	722400.8013376	722400.8018074	40	722403.848244	722403.8488748	100	imm	722405.4589278	722405.9687039	722405.9690377	120.0	2.0	722406.8338087
485.42626953125	0.0	100	994153	35	67	68	1	0	722397.4458657	722397.4460746	80	722400.8013376	722400.8018074	40	722403.848244	722403.8488748	100	imm	722405.4589278	722405.9687039	722405.9690377	120.0	2.0	722406.8338087
487.546875	0.0	120	998496	35	67	68	1	0	722397.4458657	722397.4460746	80	722400.8013376	722400.8018074	40	722403.848244	722403.8488748	100	imm	722405.4589278	722405.9687039	722405.9690377	120.0	2.0	722406.8338087
490.55322265625	0.0	80	1004653	36	57	120	0	1	722408.9751773	722408.9755848	80	722412.0948436	722412.0953686	40	722415.4379801	722415.4383248	100	imm	722416.7230493	nan	nan	nan	nan	nan
493.6728515625	0.0	40	1011042	36	57	120	0	1	722408.9751773	722408.9755848	80	722412.0948436	722412.0953686	40	722415.4379801	722415.4383248	100	imm	722416.7230493	nan	nan	nan	nan	nan
497.015625	0.0	100	1017888	36	57	120	0	1	722408.9751773	722408.9755848	80	722412.0948436	722412.0953686	40	722415.4379801	722415.4383248	100	imm	722416.7230493	nan	nan	nan	nan	nan
501.24072265625	0.0	80	1026541	37	70	250	0	0	722419.6627651	722419.6633275	80	722422.8428231	722422.8433073	40	722426.2468731	722426.247396	100	imm	722426.7700563	nan	nan	nan	nan	nan
504.42041015625	0.0	40	1033053	37	70	250	0	0	722419.6627651	722419.6633275	80	722422.8428231	722422.8433073	40	722426.2468731	722426.247396	100	imm	722426.7700563	nan	nan	nan	nan	nan
507.82421875	0.0	100	1040024	37	70	250	0	0	722419.6627651	722419.6633275	80	722422.8428231	722422.8433073	40	722426.2468731	722426.247396	100	imm	722426.7700563	nan	nan	nan	nan	nan
511.20263671875	0.0	80	1046943	38	63	180	1	1	722429.6249565	722429.6253725	80	722432.6358033	722432.6363118	40	722435.9511655	722435.9516879	100	imm	722438.3054232	722438.8164736	722438.8168137	120.0	3.0	722440.2254385
514.21337890625	0.0	40	1053109	38	63	180	1	1	722429.6249565	722429.6253725	80	722432.6358033	722432.6363118	40	722435.9511655	722435.9516879	100	imm	722438.3054232	722438.8164736	722438.8168137	120.0	3.0	722440.2254385
517.5283203125	0.0	100	1059898	38	63	180	1	1	722429.6249565	722429.6253725	80	722432.6358033	722432.6363118	40	722435.9511655	722435.9516879	100	imm	722438.3054232	722438.8164736	722438.8168137	120.0	3.0	722440.2254385
520.3935546875	0.0	120	1065766	38	63	180	1	1	722429.6249565	722429.6253725	80	722432.6358033	722432.6363118	40	722435.9511655	722435.9516879	100	imm	722438.3054232	722438.8164736	722438.8168137	120.0	3.0	722440.2254385
524.01171875	0.0	80	1073176	39	80	560	0	0	722442.4345867	722442.4350653	80	722445.8976968	722445.8978654	40	722448.9108634	722448.9114781	100	imm	722449.7617174	nan	nan	nan	nan	nan
527.47509765625	0.0	40	1080269	39	80	560	0	0	722442.4345867	722442.4350653	80	722445.8976968	722445.8978654	40	722448.9108634	722448.9114781	100	imm	722449.7617174	nan	nan	nan	nan	nan
530.48828125	0.0	100	1086440	39	80	560	0	0	722442.4345867	722442.4350653	80	722445.8976968	722445.8978654	40	722448.9108634	722448.9114781	100	imm	722449.7617174	nan	nan	nan	nan	nan
534.08349609375	0.0	80	1093803	40	83	68	1	1	722452.5064921	722452.5068593	80	722455.7257621	722455.7262225	40	722458.9691349	722458.9696008	100	del	722460.3453741	722460.8560212	722460.8563931	120.0	3.0	722461.9216084
537.302734375	0.0	40	1100396	40	83	68	1	1	722452.5064921	722452.5068593	80	722455.7257621	722455.7262225	40	722458.9691349	722458.9696008	100	del	722460.3453741	722460.8560212	722460.8563931	120.0	3.0	722461.9216084
540.5458984375	0.0	100	1107038	40	83	68	1	1	722452.5064921	722452.5068593	80	722455.7257621	722455.7262225	40	722458.9691349	722458.9696008	100	del	722460.3453741	722460.8560212	722460.8563931	120.0	3.0	722461.9216084
542.4326171875	0.0	120	1110902	40	83	68	1	1	722452.5064921	722452.5068593	80	722455.7257621	722455.7262225	40	722458.9691349	722458.9696008	100	del	722460.3453741	722460.8560212	722460.8563931	120.0	3.0	722461.9216084
582.6015625	0.0	80	1193168	41	90	250	0	0	722501.025789	722501.0262243	80	722504.1946232	722504.1951031	40	722507.6005929	722507.6011262	100	imm	722509.937265	nan	nan	nan	nan	nan
585.77001953125	0.0	40	1199657	41	90	250	0	0	722501.025789	722501.0262243	80	722504.1946232	722504.1951031	40	722507.6005929	722507.6011262	100	imm	722509.937265	nan	nan	nan	nan	nan
589.17626953125	0.0	100	1206633	41	90	250	0	0	722501.025789	722501.0262243	80	722504.1946232	722504.1951031	40	722507.6005929	722507.6011262	100	imm	722509.937265	nan	nan	nan	nan	nan
594.265625	0.0	80	1217056	42	87	120	0	1	722512.6904432	722512.6909416	80	722515.7159136	722515.7164278	40	722518.8165413	722518.81708	100	del	722519.5691544	nan	nan	nan	nan	nan
597.291015625	0.0	40	1223252	42	87	120	0	1	722512.6904432	722512.6909416	80	722515.7159136	722515.7164278	40	722518.8165413	722518.81708	100	del	722519.5691544	nan	nan	nan	nan	nan
600.3916015625	0.0	100	1229602	42	87	120	0	1	722512.6904432	722512.6909416	80	722515.7159136	722515.7164278	40	722518.8165413	722518.81708	100	del	722519.5691544	nan	nan	nan	nan	nan
604.02294921875	0.0	80	1237039	43	50	250	0	0	722522.4478411	722522.448307	80	722525.6921304	722525.6925933	40	722528.781356	722528.781876	100	imm	722529.4734097	nan	nan	nan	nan	nan
607.26708984375	0.0	40	1243683	43	50	250	0	0	722522.4478411	722522.448307	80	722525.6921304	722525.6925933	40	722528.781356	722528.781876	100	imm	722529.4734097	nan	nan	nan	nan	nan
610.3564453125	0.0	100	1250010	43	50	250	0	0	722522.4478411	722522.448307	80	722525.6921304	722525.6925933	40	722528.781356	722528.781876	100	imm	722529.4734097	nan	nan	nan	nan	nan
613.734375	0.0	80	1256928	44	93	906	1	1	722532.1592655	722532.1596994	80	722535.4711896	722535.4716524	40	722538.5804593	722538.5809918	100	imm	722539.4810732	722539.9933613	722539.9938544	120.0	1.0	722542.1465841
617.0458984375	0.0	40	1263710	44	93	906	1	1	722532.1592655	722532.1596994	80	722535.4711896	722535.4716524	40	722538.5804593	722538.5809918	100	imm	722539.4810732	722539.9933613	722539.9938544	120.0	1.0	722542.1465841
620.1552734375	0.0	100	1270078	44	93	906	1	1	722532.1592655	722532.1596994	80	722535.4711896	722535.4716524	40	722538.5804593	722538.5809918	100	imm	722539.4810732	722539.9933613	722539.9938544	120.0	1.0	722542.1465841
621.56787109375	0.0	120	1272971	44	93	906	1	1	722532.1592655	722532.1596994	80	722535.4711896	722535.4716524	40	722538.5804593	722538.5809918	100	imm	722539.4810732	722539.9933613	722539.9938544	120.0	1.0	722542.1465841
626.107421875	0.0	80	1282268	45	57	30	0	1	722544.5325103	722544.5330207	80	722547.6616728	722547.6621204	40	722551.1339893	722551.1345069	100	imm	722551.6175972	nan	nan	nan	nan	nan
629.236328125	0.0	40	1288676	45	57	30	0	1	722544.5325103	722544.5330207	80	722547.6616728	722547.6621204	40	722551.1339893	722551.1345069	100	imm	722551.6175972	nan	nan	nan	nan	nan
632.70849609375	0.0	100	1295787	45	57	30	0	1	722544.5325103	722544.5330207	80	722547.6616728	722547.6621204	40	722551.1339893	722551.1345069	100	imm	722551.6175972	nan	nan	nan	nan	nan
635.84423828125	0.0	80	1302209	46	97	68	1	1	722554.2699325	722554.2704086	80	722557.6588767	722557.6592015	40	722560.7666169	722560.7670916	100	del	722561.7226228	722562.236639	722562.2371541	120.0	4.0	722563.1612042
639.23291015625	0.0	40	1309149	46	97	68	1	1	722554.2699325	722554.2704086	80	722557.6588767	722557.6592015	40	722560.7666169	722560.7670916	100	del	722561.7226228	722562.236639	722562.2371541	120.0	4.0	722563.1612042
642.3408203125	0.0	100	1315514	46	97	68	1	1	722554.2699325	722554.2704086	80	722557.6588767	722557.6592015	40	722560.7666169	722560.7670916	100	del	722561.7226228	722562.236639	722562.2371541	120.0	4.0	722563.1612042
643.81103515625	0.0	120	1318525	46	97	68	1	1	722554.2699325	722554.2704086	80	722557.6588767	722557.6592015	40	722560.7666169	722560.7670916	100	del	722561.7226228	722562.236639	722562.2371541	120.0	4.0	722563.1612042
646.89599609375	0.0	80	1324843	47	53	120	0	0	722565.32181	722565.322258	80	722568.3749254	722568.3754199	40	722571.6760435	722571.6765612	100	imm	722572.5695413	nan	nan	nan	nan	nan
649.94873046875	0.0	40	1331095	47	53	120	0	0	722565.32181	722565.322258	80	722568.3749254	722568.3754199	40	722571.6760435	722571.6765612	100	imm	722572.5695413	nan	nan	nan	nan	nan
653.25	0.0	100	1337856	47	53	120	0	0	722565.32181	722565.322258	80	722568.3749254	722568.3754199	40	722571.6760435	722571.6765612	100	imm	722572.5695413	nan	nan	nan	nan	nan
657.0009765625	0.0	80	1345538	48	80	30	0	0	722575.4270497	722575.4275185	80	722578.7071789	722578.7075698	40	722581.9366552	722581.9371139	100	del	722582.9537424	nan	nan	nan	nan	nan
660.28076171875	0.0	40	1352255	48	80	30	0	0	722575.4270497	722575.4275185	80	722578.7071789	722578.7075698	40	722581.9366552	722581.9371139	100	del	722582.9537424	nan	nan	nan	nan	nan
663.51025390625	0.0	100	1358869	48	80	30	0	0	722575.4270497	722575.4275185	80	722578.7071789	722578.7075698	40	722581.9366552	722581.9371139	100	del	722582.9537424	nan	nan	nan	nan	nan
667.36669921875	0.0	80	1366767	49	70	68	1	0	722585.7930029	722585.7934185	80	722589.1248332	722589.1253228	40	722592.4783545	722592.4788834	100	imm	722594.2015565	722594.7130636	722594.7134962	120.0	1.0	722598.3931146
670.6982421875	0.0	40	1373590	49	70	68	1	0	722585.7930029	722585.7934185	80	722589.1248332	722589.1253228	40	722592.4783545	722592.4788834	100	imm	722594.2015565	722594.7130636	722594.7134962	120.0	1.0	722598.3931146
674.0517578125	0.0	100	1380458	49	70	68	1	0	722585.7930029	722585.7934185	80	722589.1248332	722589.1253228	40	722592.4783545	722592.4788834	100	imm	722594.2015565	722594.7130636	722594.7134962	120.0	1.0	722598.3931146
676.28662109375	0.0	120	1385035	49	70	68	1	0	722585.7930029	722585.7934185	80	722589.1248332	722589.1253228	40	722592.4783545	722592.4788834	100	imm	722594.2015565	722594.7130636	722594.7134962	120.0	1.0	722598.3931146
682.2998046875	0.0	80	1397350	50	97	120	0	1	722600.7262731	722600.7268544	80	722604.2065702	722604.2071923	40	722607.3266176	722607.3270773	100	imm	722609.6330331	nan	nan	nan	nan	nan
685.77978515625	0.0	40	1404477	50	97	120	0	1	722600.7262731	722600.7268544	80	722604.2065702	722604.2071923	40	722607.3266176	722607.3270773	100	imm	722609.6330331	nan	nan	nan	nan	nan
688.89990234375	0.0	100	1410867	50	97	120	0	1	722600.7262731	722600.7268544	80	722604.2065702	722604.2071923	40	722607.3266176	722607.3270773	100	imm	722609.6330331	nan	nan	nan	nan	nan
694.07763671875	0.0	80	1421471	51	57	560	0	0	722612.5047346	722612.5052012	80	722615.6304788	722615.630976	40	722618.7037996	722618.7042868	100	imm	722619.5622594	nan	nan	nan	nan	nan
697.203125	0.0	40	1427872	51	57	560	0	0	722612.5047346	722612.5052012	80	722615.6304788	722615.630976	40	722618.7037996	722618.7042868	100	imm	722619.5622594	nan	nan	nan	nan	nan
700.2763671875	0.0	100	1434166	51	57	560	0	0	722612.5047346	722612.5052012	80	722615.6304788	722615.630976	40	722618.7037996	722618.7042868	100	imm	722619.5622594	nan	nan	nan	nan	nan
703.95703125	0.0	80	1441704	52	93	180	1	1	722622.3842305	722622.3847343	80	722625.6170179	722625.6175154	40	722628.8599402	722628.8603966	100	imm	722630.2186097	722630.732104	722630.7326126	120.0	2.0	722631.5292408
707.189453125	0.0	40	1448324	52	93	180	1	1	722622.3842305	722622.3847343	80	722625.6170179	722625.6175154	40	722628.8599402	722628.8603966	100	imm	722630.2186097	722630.732104	722630.7326126	120.0	2.0	722631.5292408
710.4326171875	0.0	100	1454966	52	93	180	1	1	722622.3842305	722622.3847343	80	722625.6170179	722625.6175154	40	722628.8599402	722628.8603966	100	imm	722630.2186097	722630.732104	722630.7326126	120.0	2.0	722631.5292408
712.3046875	0.0	120	1458800	52	93	180	1	1	722622.3842305	722622.3847343	80	722625.6170179	722625.6175154	40	722628.8599402	722628.8603966	100	imm	722630.2186097	722630.732104	722630.7326126	120.0	2.0	722631.5292408
715.44921875	0.0	80	1465240	53	97	7	1	1	722633.8768429	722633.8773173	80	722637.2715222	722637.2720201	40	722640.4596839	722640.46018	100	del	722641.6331177	722642.1459897	722642.1464079	120.0	3.0	722643.0816414
718.84375	0.0	40	1472192	53	97	7	1	1	722633.8768429	722633.8773173	80	722637.2715222	722637.2720201	40	722640.4596839	722640.46018	100	del	722641.6331177	722642.1459897	722642.1464079	120.0	3.0	722643.0816414
722.03173828125	0.0	100	1478721	53	97	7	1	1	722633.8768429	722633.8773173	80	722637.2715222	722637.2720201	40	722640.4596839	722640.46018	100	del	722641.6331177	722642.1459897	722642.1464079	120.0	3.0	722643.0816414
723.71826171875	0.0	120	1482175	53	97	7	1	1	722633.8768429	722633.8773173	80	722637.2715222	722637.2720201	40	722640.4596839	722640.46018	100	del	722641.6331177	722642.1459897	722642.1464079	120.0	3.0	722643.0816414
727.0009765625	0.0	80	1488898	54	80	180	1	1	722645.4287828	722645.4292254	80	722648.6444766	722648.6449517	40	722652.0792373	722652.0797205	100	imm	722654.9206627	722655.4327586	722655.4331825	120.0	2.0	722657.1775068
730.21630859375	0.0	40	1495483	54	80	180	1	1	722645.4287828	722645.4292254	80	722648.6444766	722648.6449517	40	722652.0792373	722652.0797205	100	imm	722654.9206627	722655.4327586	722655.4331825	120.0	2.0	722657.1775068
733.6513671875	0.0	100	1502518	54	80	180	1	1	722645.4287828	722645.4292254	80	722648.6444766	722648.6449517	40	722652.0792373	722652.0797205	100	imm	722654.9206627	722655.4327586	722655.4331825	120.0	2.0	722657.1775068
737.00439453125	0.0	120	1509385	54	80	180	1	1	722645.4287828	722645.4292254	80	722648.6444766	722648.6449517	40	722652.0792373	722652.0797205	100	imm	722654.9206627	722655.4327586	722655.4331825	120.0	2.0	722657.1775068
741.18115234375	0.0	80	1517939	55	67	7	1	0	722659.6093007	722659.6097781	80	722662.7451484	722662.7456039	40	722666.064957	722666.0654494	100	del	722666.9851822	722667.498173	722667.4987021	120.0	3.0	722669.0250103
744.31689453125	0.0	40	1524361	55	67	7	1	0	722659.6093007	722659.6097781	80	722662.7451484	722662.7456039	40	722666.064957	722666.0654494	100	del	722666.9851822	722667.498173	722667.4987021	120.0	3.0	722669.0250103
747.63671875	0.0	100	1531160	55	67	7	1	0	722659.6093007	722659.6097781	80	722662.7451484	722662.7456039	40	722666.064957	722666.0654494	100	del	722666.9851822	722667.498173	722667.4987021	120.0	3.0	722669.0250103
749.06982421875	0.0	120	1534095	55	67	7	1	0	722659.6093007	722659.6097781	80	722662.7451484	722662.7456039	40	722666.064957	722666.0654494	100	del	722666.9851822	722667.498173	722667.4987021	120.0	3.0	722669.0250103
752.89990234375	0.0	80	1541939	56	90	30	0	1	722671.3285823	722671.328943	80	722674.6064694	722674.6068732	40	722678.0545917	722678.0550692	100	del	722678.9772668	nan	nan	nan	nan	nan
756.177734375	0.0	40	1548652	56	90	30	0	1	722671.3285823	722671.328943	80	722674.6064694	722674.6068732	40	722678.0545917	722678.0550692	100	del	722678.9772668	nan	nan	nan	nan	nan
759.6259765625	0.0	100	1555714	56	90	30	0	1	722671.3285823	722671.328943	80	722674.6064694	722674.6068732	40	722678.0545917	722678.0550692	100	del	722678.9772668	nan	nan	nan	nan	nan
763.19677734375	0.0	80	1563027	57	77	1470	0	1	722681.6253946	722681.6258269	80	722684.7920439	722684.792582	40	722687.8649922	722687.8655957	100	imm	722688.898459	nan	nan	nan	nan	nan
766.36328125	0.0	40	1569512	57	77	1470	0	1	722681.6253946	722681.6258269	80	722684.7920439	722684.792582	40	722687.8649922	722687.8655957	100	imm	722688.898459	nan	nan	nan	nan	nan
769.43603515625	0.0	100	1575805	57	77	1470	0	1	722681.6253946	722681.6258269	80	722684.7920439	722684.792582	40	722687.8649922	722687.8655957	100	imm	722688.898459	nan	nan	nan	nan	nan
773.45556640625	0.0	80	1584037	58	77	250	0	1	722691.8845191	722691.884933	80	722695.2149782	722695.2155966	40	722698.4640432	722698.4644974	100	imm	722699.0491169	nan	nan	nan	nan	nan
776.7861328125	0.0	40	1590858	58	77	250	0	1	722691.8845191	722691.884933	80	722695.2149782	722695.2155966	40	722698.4640432	722698.4644974	100	imm	722699.0491169	nan	nan	nan	nan	nan
780.03466796875	0.0	100	1597511	58	77	250	0	1	722691.8845191	722691.884933	80	722695.2149782	722695.2155966	40	722698.4640432	722698.4644974	100	imm	722699.0491169	nan	nan	nan	nan	nan
783.4580078125	0.0	80	1604522	59	83	1470	0	1	722701.8872955	722701.887761	80	722705.1676829	722705.1681402	40	722708.5044976	722708.5049242	100	imm	722709.2890394	nan	nan	nan	nan	nan
786.73828125	0.0	40	1611240	59	83	1470	0	1	722701.8872955	722701.887761	80	722705.1676829	722705.1681402	40	722708.5044976	722708.5049242	100	imm	722709.2890394	nan	nan	nan	nan	nan
790.0751953125	0.0	100	1618074	59	83	1470	0	1	722701.8872955	722701.887761	80	722705.1676829	722705.1681402	40	722708.5044976	722708.5049242	100	imm	722709.2890394	nan	nan	nan	nan	nan
793.6494140625	0.0	80	1625394	60	83	120	0	1	722712.0788346	722712.0793985	80	722715.4472498	722715.4478446	40	722718.7198852	722718.7202456	100	del	722720.6410206	nan	nan	nan	nan	nan
797.017578125	0.0	40	1632292	60	83	120	0	1	722712.0788346	722712.0793985	80	722715.4472498	722715.4478446	40	722718.7198852	722718.7202456	100	del	722720.6410206	nan	nan	nan	nan	nan
800.2900390625	0.0	100	1638994	60	83	120	0	1	722712.0788346	722712.0793985	80	722715.4472498	722715.4478446	40	722718.7198852	722718.7202456	100	del	722720.6410206	nan	nan	nan	nan	nan
835.6484375	0.0	80	1711408	61	87	1470	0	0	722754.0788954	722754.0792064	80	722757.1963054	722757.1967826	40	722760.2633758	722760.2638279	100	imm	722763.344952	nan	nan	nan	nan	nan
838.765625	0.0	40	1717792	61	87	1470	0	0	722754.0788954	722754.0792064	80	722757.1963054	722757.1967826	40	722760.2633758	722760.2638279	100	imm	722763.344952	nan	nan	nan	nan	nan
841.83251953125	0.0	100	1724073	61	87	1470	0	0	722754.0788954	722754.0792064	80	722757.1963054	722757.1967826	40	722760.2633758	722760.2638279	100	imm	722763.344952	nan	nan	nan	nan	nan
847.48486328125	0.0	80	1735649	62	100	68	1	0	722765.9158376	722765.9163568	80	722768.9556106	722768.9560672	40	722772.1710097	722772.171547	100	del	722777.1372214	722777.6490912	722777.6495273	120.0	2.0	722780.3527185
850.5244140625	0.0	40	1741874	62	100	68	1	0	722765.9158376	722765.9163568	80	722768.9556106	722768.9560672	40	722772.1710097	722772.171547	100	del	722777.1372214	722777.6490912	722777.6495273	120.0	2.0	722780.3527185
853.740234375	0.0	100	1748460	62	100	68	1	0	722765.9158376	722765.9163568	80	722768.9556106	722768.9560672	40	722772.1710097	722772.171547	100	del	722777.1372214	722777.6490912	722777.6495273	120.0	2.0	722780.3527185
859.2177734375	0.0	120	1759678	62	100	68	1	0	722765.9158376	722765.9163568	80	722768.9556106	722768.9560672	40	722772.1710097	722772.171547	100	del	722777.1372214	722777.6490912	722777.6495273	120.0	2.0	722780.3527185
864.1591796875	0.0	80	1769798	63	73	68	1	0	722782.5905134	722782.5908116	80	722785.780789	722785.7812088	40	722789.1759067	722789.176411	100	del	722800.1060163	722800.6149745	722800.6152415	120.0	1.0	722802.2643171
867.349609375	0.0	40	1776332	63	73	68	1	0	722782.5905134	722782.5908116	80	722785.780789	722785.7812088	40	722789.1759067	722789.176411	100	del	722800.1060163	722800.6149745	722800.6152415	120.0	1.0	722802.2643171
870.74462890625	0.0	100	1783285	63	73	68	1	0	722782.5905134	722782.5908116	80	722785.780789	722785.7812088	40	722789.1759067	722789.176411	100	del	722800.1060163	722800.6149745	722800.6152415	120.0	1.0	722802.2643171
882.18310546875	0.0	120	1806711	63	73	68	1	0	722782.5905134	722782.5908116	80	722785.780789	722785.7812088	40	722789.1759067	722789.176411	100	del	722800.1060163	722800.6149745	722800.6152415	120.0	1.0	722802.2643171
886.1630859375	0.0	80	1814862	64	93	1470	0	1	722804.5949439	722804.5953965	80	722807.9888469	722807.9893209	40	722811.4686359	722811.4690868	100	imm	722812.8252542	nan	nan	nan	nan	nan
889.55712890625	0.0	40	1821813	64	93	1470	0	1	722804.5949439	722804.5953965	80	722807.9888469	722807.9893209	40	722811.4686359	722811.4690868	100	imm	722812.8252542	nan	nan	nan	nan	nan
893.03662109375	0.0	100	1828939	64	93	1470	0	1	722804.5949439	722804.5953965	80	722807.9888469	722807.9893209	40	722811.4686359	722811.4690868	100	imm	722812.8252542	nan	nan	nan	nan	nan
897.3974609375	0.0	80	1837870	65	70	906	1	1	722815.8294839	722815.8299527	80	722818.9333661	722818.9338585	40	722822.0127574	722822.0130798	100	imm	722823.185078	722823.6943808	722823.6947087	120.0	1.0	722825.2246042
900.5009765625	0.0	40	1844226	65	70	906	1	1	722815.8294839	722815.8299527	80	722818.9333661	722818.9338585	40	722822.0127574	722822.0130798	100	imm	722823.185078	722823.6943808	722823.6947087	120.0	1.0	722825.2246042
903.58056640625	0.0	100	1850533	65	70	906	1	1	722815.8294839	722815.8299527	80	722818.9333661	722818.9338585	40	722822.0127574	722822.0130798	100	imm	722823.185078	722823.6943808	722823.6947087	120.0	1.0	722825.2246042
905.26220703125	0.0	120	1853977	65	70	906	1	1	722815.8294839	722815.8299527	80	722818.9333661	722818.9338585	40	722822.0127574	722822.0130798	100	imm	722823.185078	722823.6943808	722823.6947087	120.0	1.0	722825.2246042
909.15673828125	0.0	80	1861953	66	67	120	0	1	722827.5889565	722827.5894539	80	722830.6434756	722830.6439657	40	722833.9197314	722833.9202844	100	imm	722836.0325757	nan	nan	nan	nan	nan
912.2109375	0.0	40	1868208	66	67	120	0	1	722827.5889565	722827.5894539	80	722830.6434756	722830.6439657	40	722833.9197314	722833.9202844	100	imm	722836.0325757	nan	nan	nan	nan	nan
915.4873046875	0.0	100	1874918	66	67	120	0	1	722827.5889565	722827.5894539	80	722830.6434756	722830.6439657	40	722833.9197314	722833.9202844	100	imm	722836.0325757	nan	nan	nan	nan	nan
920.38720703125	0.0	80	1884953	67	77	30	0	1	722838.8199338	722838.8204086	80	722842.2570582	722842.2574059	40	722845.5123501	722845.5128791	100	del	722846.8262229	nan	nan	nan	nan	nan
923.82421875	0.0	40	1891992	67	77	30	0	1	722838.8199338	722838.8204086	80	722842.2570582	722842.2574059	40	722845.5123501	722845.5128791	100	del	722846.8262229	nan	nan	nan	nan	nan
927.07958984375	0.0	100	1898659	67	77	30	0	1	722838.8199338	722838.8204086	80	722842.2570582	722842.2574059	40	722845.5123501	722845.5128791	100	del	722846.8262229	nan	nan	nan	nan	nan
931.109375	0.0	80	1906912	68	80	68	1	0	722849.542168	722849.542624	80	722852.8855428	722852.8860205	40	722856.2704013	722856.2709112	100	del	722858.0963793	722858.6086562	722858.6091447	120.0	2.0	722861.6247408
934.45263671875	0.0	40	1913759	68	80	68	1	0	722849.542168	722849.542624	80	722852.8855428	722852.8860205	40	722856.2704013	722856.2709112	100	del	722858.0963793	722858.6086562	722858.6091447	120.0	2.0	722861.6247408
937.83740234375	0.0	100	1920691	68	80	68	1	0	722849.542168	722849.542624	80	722852.8855428	722852.8860205	40	722856.2704013	722856.2709112	100	del	722858.0963793	722858.6086562	722858.6091447	120.0	2.0	722861.6247408
940.17529296875	0.0	120	1925479	68	80	68	1	0	722849.542168	722849.542624	80	722852.8855428	722852.8860205	40	722856.2704013	722856.2709112	100	del	722858.0963793	722858.6086562	722858.6091447	120.0	2.0	722861.6247408
945.4658203125	0.0	80	1936314	69	80	7	1	1	722863.8990853	722863.899546	80	722867.0807773	722867.0812608	40	722870.169585	722870.1700873	100	del	722871.2883411	722871.8025642	722871.803104	120.0	3.0	722876.3442993
948.6474609375	0.0	40	1942830	69	80	7	1	1	722863.8990853	722863.899546	80	722867.0807773	722867.0812608	40	722870.169585	722870.1700873	100	del	722871.2883411	722871.8025642	722871.803104	120.0	3.0	722876.3442993
951.736328125	0.0	100	1949156	69	80	7	1	1	722863.8990853	722863.899546	80	722867.0807773	722867.0812608	40	722870.169585	722870.1700873	100	del	722871.2883411	722871.8025642	722871.803104	120.0	3.0	722876.3442993
953.369140625	0.0	120	1952500	69	80	7	1	1	722863.8990853	722863.899546	80	722867.0807773	722867.0812608	40	722870.169585	722870.1700873	100	del	722871.2883411	722871.8025642	722871.803104	120.0	3.0	722876.3442993
960.22021484375	0.0	80	1966531	70	53	30	0	0	722878.6537191	722878.6541819	80	722881.7924403	722881.7930398	40	722884.8283442	722884.8288624	100	na	722892.9371074	nan	nan	nan	nan	nan
963.35888671875	0.0	40	1972959	70	53	30	0	0	722878.6537191	722878.6541819	80	722881.7924403	722881.7930398	40	722884.8283442	722884.8288624	100	na	722892.9371074	nan	nan	nan	nan	nan
966.39453125	0.0	100	1979176	70	53	30	0	0	722878.6537191	722878.6541819	80	722881.7924403	722881.7930398	40	722884.8283442	722884.8288624	100	na	722892.9371074	nan	nan	nan	nan	nan
977.3955078125	0.0	80	2001706	71	67	1470	0	1	722895.8296804	722895.8299904	80	722898.9570665	722898.957482	40	722902.1918357	722902.1923464	100	imm	722905.8407538	nan	nan	nan	nan	nan
980.52294921875	0.0	40	2008111	71	67	1470	0	1	722895.8296804	722895.8299904	80	722898.9570665	722898.957482	40	722902.1918357	722902.1923464	100	imm	722905.8407538	nan	nan	nan	nan	nan
983.75732421875	0.0	100	2014735	71	67	1470	0	1	722895.8296804	722895.8299904	80	722898.9570665	722898.957482	40	722902.1918357	722902.1923464	100	imm	722905.8407538	nan	nan	nan	nan	nan
990.26513671875	0.0	80	2028063	72	63	250	0	0	722908.6995865	722908.7000299	80	722911.8859279	722911.8862792	40	722915.2658624	722915.2663005	100	imm	722917.3046038	nan	nan	nan	nan	nan
993.451171875	0.0	40	2034588	72	63	250	0	0	722908.6995865	722908.7000299	80	722911.8859279	722911.8862792	40	722915.2658624	722915.2663005	100	imm	722917.3046038	nan	nan	nan	nan	nan
996.8310546875	0.0	100	2041510	72	63	250	0	0	722908.6995865	722908.7000299	80	722911.8859279	722911.8862792	40	722915.2658624	722915.2663005	100	imm	722917.3046038	nan	nan	nan	nan	nan
1001.5849609375	0.0	80	2051246	73	57	68	1	0	722920.0197328	722920.0201778	80	722923.369676	722923.3700998	40	722926.7344822	722926.7349918	100	imm	722928.4646334	722928.974781	722928.975055	120.0	1.0	722931.5681617
1004.93505859375	0.0	40	2058107	73	57	68	1	0	722920.0197328	722920.0201778	80	722923.369676	722923.3700998	40	722926.7344822	722926.7349918	100	imm	722928.4646334	722928.974781	722928.975055	120.0	1.0	722931.5681617
1008.2998046875	0.0	100	2064998	73	57	68	1	0	722920.0197328	722920.0201778	80	722923.369676	722923.3700998	40	722926.7344822	722926.7349918	100	imm	722928.4646334	722928.974781	722928.975055	120.0	1.0	722931.5681617
1010.53955078125	0.0	120	2069585	73	57	68	1	0	722920.0197328	722920.0201778	80	722923.369676	722923.3700998	40	722926.7344822	722926.7349918	100	imm	722928.4646334	722928.974781	722928.975055	120.0	1.0	722931.5681617
1015.375	0.0	80	2079488	74	93	560	0	1	722933.8101344	722933.8105986	80	722936.8280539	722936.8285596	40	722940.0078427	722940.0083771	100	imm	722941.5379489	nan	nan	nan	nan	nan
1018.39306640625	0.0	40	2085669	74	93	560	0	1	722933.8101344	722933.8105986	80	722936.8280539	722936.8285596	40	722940.0078427	722940.0083771	100	imm	722941.5379489	nan	nan	nan	nan	nan
1021.57275390625	0.0	100	2092181	74	93	560	0	1	722933.8101344	722933.8105986	80	722936.8280539	722936.8285596	40	722940.0078427	722940.0083771	100	imm	722941.5379489	nan	nan	nan	nan	nan
1025.8330078125	0.0	80	2100906	75	67	560	0	0	722944.2679816	722944.2686095	80	722947.4110087	722947.4114741	40	722950.5229638	722950.5234865	100	imm	722953.9769369	nan	nan	nan	nan	nan
1028.9755859375	0.0	40	2107342	75	67	560	0	0	722944.2679816	722944.2686095	80	722947.4110087	722947.4114741	40	722950.5229638	722950.5234865	100	imm	722953.9769369	nan	nan	nan	nan	nan
1032.08740234375	0.0	100	2113715	75	67	560	0	0	722944.2679816	722944.2686095	80	722947.4110087	722947.4114741	40	722950.5229638	722950.5234865	100	imm	722953.9769369	nan	nan	nan	nan	nan
1038.4697265625	0.0	80	2126786	76	77	7	1	1	722956.905428	722956.9059005	80	722960.1279571	722960.128431	40	722963.5856493	722963.5861651	100	del	722967.1444651	722967.6544022	722967.6547213	120.0	2.0	722968.929764
1041.6923828125	0.0	40	2133386	76	77	7	1	1	722956.905428	722956.9059005	80	722960.1279571	722960.128431	40	722963.5856493	722963.5861651	100	del	722967.1444651	722967.6544022	722967.6547213	120.0	2.0	722968.929764
1045.14990234375	0.0	100	2140467	76	77	7	1	1	722956.905428	722956.9059005	80	722960.1279571	722960.128431	40	722963.5856493	722963.5861651	100	del	722967.1444651	722967.6544022	722967.6547213	120.0	2.0	722968.929764
1049.21826171875	0.0	120	2148799	76	77	7	1	1	722956.905428	722956.9059005	80	722960.1279571	722960.128431	40	722963.5856493	722963.5861651	100	del	722967.1444651	722967.6544022	722967.6547213	120.0	2.0	722968.929764
1052.70654296875	0.0	80	2155943	77	60	180	1	0	722971.1424909	722971.142916	80	722974.5354443	722974.5359382	40	722977.7466429	722977.7471164	100	imm	722980.4882555	722981.0009025	722981.0013546	120.0	1.0	722983.1847622
1056.09912109375	0.0	40	2162891	77	60	180	1	0	722971.1424909	722971.142916	80	722974.5354443	722974.5359382	40	722977.7466429	722977.7471164	100	imm	722980.4882555	722981.0009025	722981.0013546	120.0	1.0	722983.1847622
1059.310546875	0.0	100	2169468	77	60	180	1	0	722971.1424909	722971.142916	80	722974.5354443	722974.5359382	40	722977.7466429	722977.7471164	100	imm	722980.4882555	722981.0009025	722981.0013546	120.0	1.0	722983.1847622
1062.564453125	0.0	120	2176132	77	60	180	1	0	722971.1424909	722971.142916	80	722974.5354443	722974.5359382	40	722977.7466429	722977.7471164	100	imm	722980.4882555	722981.0009025	722981.0013546	120.0	1.0	722983.1847622
1067.1650390625	0.0	80	2185554	78	73	180	1	0	722985.6016262	722985.6019644	80	722988.9865568	722988.9869469	40	722992.1884716	722992.1889863	100	imm	722993.4484537	722993.9600024	722993.9604603	120.0	2.0	722994.6081463
1070.55029296875	0.0	40	2192487	78	73	180	1	0	722985.6016262	722985.6019644	80	722988.9865568	722988.9869469	40	722992.1884716	722992.1889863	100	imm	722993.4484537	722993.9600024	722993.9604603	120.0	2.0	722994.6081463
1073.751953125	0.0	100	2199044	78	73	180	1	0	722985.6016262	722985.6019644	80	722988.9865568	722988.9869469	40	722992.1884716	722992.1889863	100	imm	722993.4484537	722993.9600024	722993.9604603	120.0	2.0	722994.6081463
1075.5234375	0.0	120	2202672	78	73	180	1	0	722985.6016262	722985.6019644	80	722988.9865568	722988.9869469	40	722992.1884716	722992.1889863	100	imm	722993.4484537	722993.9600024	722993.9604603	120.0	2.0	722994.6081463
1078.29296875	0.0	80	2208344	79	87	340	1	1	722996.7294748	722996.729998	80	723000.1326969	723000.1331452	40	723003.6203746	723003.6208414	100	imm	723006.3687518	723006.878202	723006.8785136	120.0	3.0	723007.4248604
1081.69580078125	0.0	40	2215313	79	87	340	1	1	722996.7294748	722996.729998	80	723000.1326969	723000.1331452	40	723003.6203746	723003.6208414	100	imm	723006.3687518	723006.878202	723006.8785136	120.0	3.0	723007.4248604
1085.18359375	0.0	100	2222456	79	87	340	1	1	722996.7294748	722996.729998	80	723000.1326969	723000.1331452	40	723003.6203746	723003.6208414	100	imm	723006.3687518	723006.878202	723006.8785136	120.0	3.0	723007.4248604
1088.44140625	0.0	120	2229128	79	87	340	1	1	722996.7294748	722996.729998	80	723000.1326969	723000.1331452	40	723003.6203746	723003.6208414	100	imm	723006.3687518	723006.878202	723006.8785136	120.0	3.0	723007.4248604
1091.1669921875	0.0	80	2234710	80	50	340	1	1	723009.6041001	723009.6045406	80	723012.94772	723012.9482376	40	723016.1805494	723016.1810111	100	imm	723017.4881088	723018.0014259	723018.00196	120.0	2.0	723018.4079764
1094.5107421875	0.0	40	2241558	80	50	340	1	1	723009.6041001	723009.6045406	80	723012.94772	723012.9482376	40	723016.1805494	723016.1810111	100	imm	723017.4881088	723018.0014259	723018.00196	120.0	2.0	723018.4079764
1097.74365234375	0.0	100	2248179	80	50	340	1	1	723009.6041001	723009.6045406	80	723012.94772	723012.9482376	40	723016.1805494	723016.1810111	100	imm	723017.4881088	723018.0014259	723018.00196	120.0	2.0	723018.4079764
1099.564453125	0.0	120	2251908	80	50	340	1	1	723009.6041001	723009.6045406	80	723012.94772	723012.9482376	40	723016.1805494	723016.1810111	100	imm	723017.4881088	723018.0014259	723018.00196	120.0	2.0	723018.4079764
1129.96923828125	0.0	80	2314177	81	67	340	1	1	723048.4072243	723048.4077015	80	723051.7979193	723051.7982598	40	723054.895111	723054.8955939	100	imm	723055.9042113	723056.4143583	723056.4147074	120.0	2.0	723057.2654005
1133.35986328125	0.0	40	2321121	81	67	340	1	1	723048.4072243	723048.4077015	80	723051.7979193	723051.7982598	40	723054.895111	723054.8955939	100	imm	723055.9042113	723056.4143583	723056.4147074	120.0	2.0	723057.2654005
1136.45703125	0.0	100	2327464	81	67	340	1	1	723048.4072243	723048.4077015	80	723051.7979193	723051.7982598	40	723054.895111	723054.8955939	100	imm	723055.9042113	723056.4143583	723056.4147074	120.0	2.0	723057.2654005
1137.97607421875	0.0	120	2330575	81	67	340	1	1	723048.4072243	723048.4077015	80	723051.7979193	723051.7982598	40	723054.895111	723054.8955939	100	imm	723055.9042113	723056.4143583	723056.4147074	120.0	2.0	723057.2654005
1141.2744140625	0.0	80	2337330	82	93	340	1	0	723059.7124382	723059.7129298	80	723063.2150492	723063.215549	40	723066.485312	723066.4858212	100	imm	723067.8652554	723068.3769592	723068.3773585	120.0	2.0	723069.2882956
1144.77685546875	0.0	40	2344503	82	93	340	1	0	723059.7124382	723059.7129298	80	723063.2150492	723063.215549	40	723066.485312	723066.4858212	100	imm	723067.8652554	723068.3769592	723068.3773585	120.0	2.0	723069.2882956
1148.046875	0.0	100	2351200	82	93	340	1	0	723059.7124382	723059.7129298	80	723063.2150492	723063.215549	40	723066.485312	723066.4858212	100	imm	723067.8652554	723068.3769592	723068.3773585	120.0	2.0	723069.2882956
1149.9384765625	0.0	120	2355074	82	93	340	1	0	723059.7124382	723059.7129298	80	723063.2150492	723063.215549	40	723066.485312	723066.4858212	100	imm	723067.8652554	723068.3769592	723068.3773585	120.0	2.0	723069.2882956
1153.3076171875	0.0	80	2361974	83	100	120	0	1	723071.746107	723071.7465312	80	723075.0479372	723075.0484397	40	723078.1388611	723078.1393729	100	imm	723079.3598229	nan	nan	nan	nan	nan
1156.609375	0.0	40	2368736	83	100	120	0	1	723071.746107	723071.7465312	80	723075.0479372	723075.0484397	40	723078.1388611	723078.1393729	100	imm	723079.3598229	nan	nan	nan	nan	nan
1159.7001953125	0.0	100	2375066	83	100	120	0	1	723071.746107	723071.7465312	80	723075.0479372	723075.0484397	40	723078.1388611	723078.1393729	100	imm	723079.3598229	nan	nan	nan	nan	nan
1163.53955078125	0.0	80	2382929	84	83	7	1	0	723081.9783383	723081.9788212	80	723085.1900007	723085.1905021	40	723088.5779478	723088.5784513	100	del	723091.1205044	723091.6324507	723091.6329055	120.0	1.0	723092.5213568
1166.7509765625	0.0	40	2389506	84	83	7	1	0	723081.9783383	723081.9788212	80	723085.1900007	723085.1905021	40	723088.5779478	723088.5784513	100	del	723091.1205044	723091.6324507	723091.6329055	120.0	1.0	723092.5213568
1170.13916015625	0.0	100	2396445	84	83	7	1	0	723081.9783383	723081.9788212	80	723085.1900007	723085.1905021	40	723088.5779478	723088.5784513	100	del	723091.1205044	723091.6324507	723091.6329055	120.0	1.0	723092.5213568
1173.193359375	0.0	120	2402700	84	83	7	1	0	723081.9783383	723081.9788212	80	723085.1900007	723085.1905021	40	723088.5779478	723088.5784513	100	del	723091.1205044	723091.6324507	723091.6329055	120.0	1.0	723092.5213568
1176.50830078125	0.0	80	2409489	85	83	30	0	1	723094.9475331	723094.9480259	80	723098.3506316	723098.3511852	40	723101.5239999	723101.5244745	100	imm	723104.7118345	nan	nan	nan	nan	nan
1179.91162109375	0.0	40	2416459	85	83	30	0	1	723094.9475331	723094.9480259	80	723098.3506316	723098.3511852	40	723101.5239999	723101.5244745	100	imm	723104.7118345	nan	nan	nan	nan	nan
1183.0849609375	0.0	100	2422958	85	83	30	0	1	723094.9475331	723094.9480259	80	723098.3506316	723098.3511852	40	723101.5239999	723101.5244745	100	imm	723104.7118345	nan	nan	nan	nan	nan
1189.05712890625	0.0	80	2435189	86	60	1470	0	1	723107.4966653	723107.4971547	80	723110.5499018	723110.5504355	40	723113.6192019	723113.6197412	100	imm	723117.5852809	nan	nan	nan	nan	nan
1192.1103515625	0.0	40	2441442	86	60	1470	0	1	723107.4966653	723107.4971547	80	723110.5499018	723110.5504355	40	723113.6192019	723113.6197412	100	imm	723117.5852809	nan	nan	nan	nan	nan
1195.1796875	0.0	100	2447728	86	60	1470	0	1	723107.4966653	723107.4971547	80	723110.5499018	723110.5504355	40	723113.6192019	723113.6197412	100	imm	723117.5852809	nan	nan	nan	nan	nan
1201.73193359375	0.0	80	2461147	87	70	180	1	0	723120.1715335	723120.1719924	80	723123.5189796	723123.5194252	40	723126.7823966	723126.782936	100	imm	723129.6169472	723130.1286618	723130.1291283	120.0	1.0	723130.9765263
1205.0791015625	0.0	40	2468002	87	70	180	1	0	723120.1715335	723120.1719924	80	723123.5189796	723123.5194252	40	723126.7823966	723126.782936	100	imm	723129.6169472	723130.1286618	723130.1291283	120.0	1.0	723130.9765263
1208.3427734375	0.0	100	2474686	87	70	180	1	0	723120.1715335	723120.1719924	80	723123.5189796	723123.5194252	40	723126.7823966	723126.782936	100	imm	723129.6169472	723130.1286618	723130.1291283	120.0	1.0	723130.9765263
1211.6884765625	0.0	120	2481538	87	70	180	1	0	723120.1715335	723120.1719924	80	723123.5189796	723123.5194252	40	723126.7823966	723126.782936	100	imm	723129.6169472	723130.1286618	723130.1291283	120.0	1.0	723130.9765263
1214.646484375	0.0	80	2487596	88	50	906	1	1	723133.086542	723133.0870119	80	723136.3417765	723136.342211	40	723139.4287598	723139.4293111	100	imm	723140.9360562	723141.4472556	723141.447623	120.0	1.0	723142.2803654
1217.90185546875	0.0	40	2494263	88	50	906	1	1	723133.086542	723133.0870119	80	723136.3417765	723136.342211	40	723139.4287598	723139.4293111	100	imm	723140.9360562	723141.4472556	723141.447623	120.0	1.0	723142.2803654
1220.98876953125	0.0	100	2500585	88	50	906	1	1	723133.086542	723133.0870119	80	723136.3417765	723136.342211	40	723139.4287598	723139.4293111	100	imm	723140.9360562	723141.4472556	723141.447623	120.0	1.0	723142.2803654
1223.0068359375	0.0	120	2504718	88	50	906	1	1	723133.086542	723133.0870119	80	723136.3417765	723136.342211	40	723139.4287598	723139.4293111	100	imm	723140.9360562	723141.4472556	723141.447623	120.0	1.0	723142.2803654
1225.8837890625	0.0	80	2510610	89	87	906	1	0	723144.3242054	723144.3247104	80	723147.7572177	723147.7576714	40	723151.0537088	723151.0541689	100	imm	723153.0322542	723153.5436181	723153.5439966	120.0	1.0	723154.4956942
1229.31689453125	0.0	40	2517641	89	87	906	1	0	723144.3242054	723144.3247104	80	723147.7572177	723147.7576714	40	723151.0537088	723151.0541689	100	imm	723153.0322542	723153.5436181	723153.5439966	120.0	1.0	723154.4956942
1232.61328125	0.0	100	2524392	89	87	906	1	0	723144.3242054	723144.3247104	80	723147.7572177	723147.7576714	40	723151.0537088	723151.0541689	100	imm	723153.0322542	723153.5436181	723153.5439966	120.0	1.0	723154.4956942
1235.10302734375	0.0	120	2529491	89	87	906	1	0	723144.3242054	723144.3247104	80	723147.7572177	723147.7576714	40	723151.0537088	723151.0541689	100	imm	723153.0322542	723153.5436181	723153.5439966	120.0	1.0	723154.4956942
1238.53466796875	0.0	80	2536519	90	93	30	0	0	723156.9754441	723156.9759124	80	723160.3319275	723160.3323429	40	723163.6379231	723163.6384745	100	del	723165.3038008	nan	nan	nan	nan	nan
1241.89111328125	0.0	40	2543393	90	93	30	0	0	723156.9754441	723156.9759124	80	723160.3319275	723160.3323429	40	723163.6379231	723163.6384745	100	del	723165.3038008	nan	nan	nan	nan	nan
1245.197265625	0.0	100	2550164	90	93	30	0	0	723156.9754441	723156.9759124	80	723160.3319275	723160.3323429	40	723163.6379231	723163.6384745	100	del	723165.3038008	nan	nan	nan	nan	nan
1249.78857421875	0.0	80	2559567	91	67	250	0	1	723168.2296383	723168.2301259	80	723171.6767849	723171.6772493	40	723175.18755	723175.1890532	100	imm	723175.6959842	nan	nan	nan	nan	nan
1253.23583984375	0.0	40	2566627	91	67	250	0	1	723168.2296383	723168.2301259	80	723171.6767849	723171.6772493	40	723175.18755	723175.1890532	100	imm	723175.6959842	nan	nan	nan	nan	nan
1256.74658203125	0.0	100	2573817	91	67	250	0	1	723168.2296383	723168.2301259	80	723171.6767849	723171.6772493	40	723175.18755	723175.1890532	100	imm	723175.6959842	nan	nan	nan	nan	nan
1259.77099609375	0.0	80	2580011	92	57	7	1	0	723178.212135	723178.2124968	80	723181.6506515	723181.6509463	40	723184.9703702	723184.9708364	100	imm	723186.4404603	723186.9505417	723186.9509048	120.0	1.0	723191.1442637
1263.20947265625	0.0	40	2587053	92	57	7	1	0	723178.212135	723178.2124968	80	723181.6506515	723181.6509463	40	723184.9703702	723184.9708364	100	imm	723186.4404603	723186.9505417	723186.9509048	120.0	1.0	723191.1442637
1266.52880859375	0.0	100	2593851	92	57	7	1	0	723178.212135	723178.2124968	80	723181.6506515	723181.6509463	40	723184.9703702	723184.9708364	100	imm	723186.4404603	723186.9505417	723186.9509048	120.0	1.0	723191.1442637
1268.50927734375	0.0	120	2597907	92	57	7	1	0	723178.212135	723178.2124968	80	723181.6506515	723181.6509463	40	723184.9703702	723184.9708364	100	imm	723186.4404603	723186.9505417	723186.9509048	120.0	1.0	723191.1442637
1275.21240234375	0.0	80	2611635	93	100	30	0	0	723193.6537301	723193.6542474	80	723196.9258821	723196.9263811	40	723200.178775	723200.1792286	100	del	723202.1356566	nan	nan	nan	nan	nan
1278.484375	0.0	40	2618336	93	100	30	0	0	723193.6537301	723193.6542474	80	723196.9258821	723196.9263811	40	723200.178775	723200.1792286	100	del	723202.1356566	nan	nan	nan	nan	nan
1281.7373046875	0.0	100	2624998	93	100	30	0	0	723193.6537301	723193.6542474	80	723196.9258821	723196.9263811	40	723200.178775	723200.1792286	100	del	723202.1356566	nan	nan	nan	nan	nan
1286.60986328125	0.0	80	2634977	94	77	560	0	0	723205.0516421	723205.0521372	80	723208.1738563	723208.1742475	40	723211.4317122	723211.432014	100	imm	723212.3205308	nan	nan	nan	nan	nan
1289.73193359375	0.0	40	2641371	94	77	560	0	0	723205.0516421	723205.0521372	80	723208.1738563	723208.1742475	40	723211.4317122	723211.432014	100	imm	723212.3205308	nan	nan	nan	nan	nan
1292.98974609375	0.0	100	2648043	94	77	560	0	0	723205.0516421	723205.0521372	80	723208.1738563	723208.1742475	40	723211.4317122	723211.432014	100	imm	723212.3205308	nan	nan	nan	nan	nan
1296.84619140625	0.0	80	2655941	95	60	250	0	0	723215.2883543	723215.2888003	80	723218.5830954	723218.58353	40	723222.0190361	723222.0195768	100	imm	723224.3769671	nan	nan	nan	nan	nan
1300.14111328125	0.0	40	2662689	95	60	250	0	0	723215.2883543	723215.2888003	80	723218.5830954	723218.58353	40	723222.0190361	723222.0195768	100	imm	723224.3769671	nan	nan	nan	nan	nan
1303.57666015625	0.0	100	2669725	95	60	250	0	0	723215.2883543	723215.2888003	80	723218.5830954	723218.58353	40	723222.0190361	723222.0195768	100	imm	723224.3769671	nan	nan	nan	nan	nan
1308.82177734375	0.0	80	2680467	96	50	120	0	0	723227.2643349	723227.2648399	80	723230.5650896	723230.5656156	40	723233.7023229	723233.7028194	100	imm	723235.2734107	nan	nan	nan	nan	nan
1312.12255859375	0.0	40	2687227	96	50	120	0	0	723227.2643349	723227.2648399	80	723230.5650896	723230.5656156	40	723233.7023229	723233.7028194	100	imm	723235.2734107	nan	nan	nan	nan	nan
1315.259765625	0.0	100	2693652	96	50	120	0	0	723227.2643349	723227.2648399	80	723230.5650896	723230.5656156	40	723233.7023229	723233.7028194	100	imm	723235.2734107	nan	nan	nan	nan	nan
1319.68017578125	0.0	80	2702705	97	87	68	1	0	723238.1227927	723238.1231427	80	723241.1720776	723241.1725799	40	723244.4978815	723244.4984062	100	imm	723245.3039823	723245.8147157	723245.8151548	120.0	1.0	723246.8796024
1322.7294921875	0.0	40	2708950	97	87	68	1	0	723238.1227927	723238.1231427	80	723241.1720776	723241.1725799	40	723244.4978815	723244.4984062	100	imm	723245.3039823	723245.8147157	723245.8151548	120.0	1.0	723246.8796024
1326.05517578125	0.0	100	2715761	97	87	68	1	0	723238.1227927	723238.1231427	80	723241.1720776	723241.1725799	40	723244.4978815	723244.4984062	100	imm	723245.3039823	723245.8147157	723245.8151548	120.0	1.0	723246.8796024
1327.3720703125	0.0	120	2718458	97	87	68	1	0	723238.1227927	723238.1231427	80	723241.1720776	723241.1725799	40	723244.4978815	723244.4984062	100	imm	723245.3039823	723245.8147157	723245.8151548	120.0	1.0	723246.8796024
1330.78369140625	0.0	80	2725445	98	90	68	1	0	723249.2264829	723249.2269922	80	723252.5990068	723252.5994507	40	723256.0578684	723256.0583714	100	del	723257.5595719	723258.0697346	723258.0700083	120.0	4.0	723259.2956525
1334.15625	0.0	40	2732352	98	90	68	1	0	723249.2264829	723249.2269922	80	723252.5990068	723252.5994507	40	723256.0578684	723256.0583714	100	del	723257.5595719	723258.0697346	723258.0700083	120.0	4.0	723259.2956525
1337.61474609375	0.0	100	2739435	98	90	68	1	0	723249.2264829	723249.2269922	80	723252.5990068	723252.5994507	40	723256.0578684	723256.0583714	100	del	723257.5595719	723258.0697346	723258.0700083	120.0	4.0	723259.2956525
1339.62646484375	0.0	120	2743555	98	90	68	1	0	723249.2264829	723249.2269922	80	723252.5990068	723252.5994507	40	723256.0578684	723256.0583714	100	del	723257.5595719	723258.0697346	723258.0700083	120.0	4.0	723259.2956525
1343.3603515625	0.0	80	2751202	99	70	560	0	0	723261.8035668	723261.8040391	80	723265.1958287	723265.1963019	40	723268.4972019	723268.4977004	100	imm	723270.1356055	nan	nan	nan	nan	nan
1346.75244140625	0.0	40	2758149	99	70	560	0	0	723261.8035668	723261.8040391	80	723265.1958287	723265.1963019	40	723268.4972019	723268.4977004	100	imm	723270.1356055	nan	nan	nan	nan	nan
1350.0537109375	0.0	100	2764910	99	70	560	0	0	723261.8035668	723261.8040391	80	723265.1958287	723265.1963019	40	723268.4972019	723268.4977004	100	imm	723270.1356055	nan	nan	nan	nan	nan
1354.67333984375	0.0	80	2774371	100	73	340	1	1	723273.1169537	723273.1173865	80	723276.4146082	723276.4150808	40	723279.4371518	723279.4376429	100	imm	723280.4875951	723280.997242	723280.9975795	120.0	2.0	723282.0476737
1357.97119140625	0.0	40	2781125	100	73	340	1	1	723273.1169537	723273.1173865	80	723276.4146082	723276.4150808	40	723279.4371518	723279.4376429	100	imm	723280.4875951	723280.997242	723280.9975795	120.0	2.0	723282.0476737
1360.99365234375	0.0	100	2787315	100	73	340	1	1	723273.1169537	723273.1173865	80	723276.4146082	723276.4150808	40	723279.4371518	723279.4376429	100	imm	723280.4875951	723280.997242	723280.9975795	120.0	2.0	723282.0476737
1362.55322265625	0.0	120	2790509	100	73	340	1	1	723273.1169537	723273.1173865	80	723276.4146082	723276.4150808	40	723279.4371518	723279.4376429	100	imm	723280.4875951	723280.997242	723280.9975795	120.0	2.0	723282.0476737
1386.98046875	0.0	80	2840536	101	50	68	1	0	723305.4248412	723305.4253365	80	723308.8640587	723308.8645715	40	723312.1192716	723312.1197694	100	imm	723313.6877496	723314.1991807	723314.1995983	120.0	1.0	723315.9836092
1390.41943359375	0.0	40	2847579	101	50	68	1	0	723305.4248412	723305.4253365	80	723308.8640587	723308.8645715	40	723312.1192716	723312.1197694	100	imm	723313.6877496	723314.1991807	723314.1995983	120.0	1.0	723315.9836092
1393.6748046875	0.0	100	2854246	101	50	68	1	0	723305.4248412	723305.4253365	80	723308.8640587	723308.8645715	40	723312.1192716	723312.1197694	100	imm	723313.6877496	723314.1991807	723314.1995983	120.0	1.0	723315.9836092
1395.75439453125	0.0	120	2858505	101	50	68	1	0	723305.4248412	723305.4253365	80	723308.8640587	723308.8645715	40	723312.1192716	723312.1197694	100	imm	723313.6877496	723314.1991807	723314.1995983	120.0	1.0	723315.9836092
1399.97705078125	0.0	80	2867153	102	73	250	0	1	723318.4218011	723318.4223139	80	723321.5347761	723321.5354068	40	723324.8245762	723324.8251369	100	imm	723326.2234336	nan	nan	nan	nan	nan
1403.09033203125	0.0	40	2873529	102	73	250	0	1	723318.4218011	723318.4223139	80	723321.5347761	723321.5354068	40	723324.8245762	723324.8251369	100	imm	723326.2234336	nan	nan	nan	nan	nan
1406.3798828125	0.0	100	2880266	102	73	250	0	1	723318.4218011	723318.4223139	80	723321.5347761	723321.5354068	40	723324.8245762	723324.8251369	100	imm	723326.2234336	nan	nan	nan	nan	nan
1410.6103515625	0.0	80	2888930	103	67	30	0	1	723329.0552871	723329.0557555	80	723332.0793	723332.079747	40	723335.39966	723335.4001643	100	del	723335.8162402	nan	nan	nan	nan	nan
1413.63427734375	0.0	40	2895123	103	67	30	0	1	723329.0552871	723329.0557555	80	723332.0793	723332.079747	40	723335.39966	723335.4001643	100	del	723335.8162402	nan	nan	nan	nan	nan
1416.95458984375	0.0	100	2901923	103	67	30	0	1	723329.0552871	723329.0557555	80	723332.0793	723332.079747	40	723335.39966	723335.4001643	100	del	723335.8162402	nan	nan	nan	nan	nan
1420.06982421875	0.0	80	2908303	104	90	1470	0	1	723338.5150201	723338.5154681	80	723341.547644	723341.5481282	40	723344.8055005	723344.8061387	100	imm	723346.0168525	nan	nan	nan	nan	nan
1423.1025390625	0.0	40	2914514	104	90	1470	0	1	723338.5150201	723338.5154681	80	723341.547644	723341.5481282	40	723344.8055005	723344.8061387	100	imm	723346.0168525	nan	nan	nan	nan	nan
1426.3603515625	0.0	100	2921186	104	90	1470	0	1	723338.5150201	723338.5154681	80	723341.547644	723341.5481282	40	723344.8055005	723344.8061387	100	imm	723346.0168525	nan	nan	nan	nan	nan
1430.1845703125	0.0	80	2929018	105	90	7	1	1	723348.6298057	723348.6301449	80	723351.6989337	723351.6993933	40	723354.8149124	723354.8154358	100	del	723356.2951936	723356.8082153	723356.8086333	120.0	4.0	723357.1358648
1433.25341796875	0.0	40	2935303	105	90	7	1	1	723348.6298057	723348.6301449	80	723351.6989337	723351.6993933	40	723354.8149124	723354.8154358	100	del	723356.2951936	723356.8082153	723356.8086333	120.0	4.0	723357.1358648
1436.36962890625	0.0	100	2941685	105	90	7	1	1	723348.6298057	723348.6301449	80	723351.6989337	723351.6993933	40	723354.8149124	723354.8154358	100	del	723356.2951936	723356.8082153	723356.8086333	120.0	4.0	723357.1358648
1438.36279296875	0.0	120	2945767	105	90	7	1	1	723348.6298057	723348.6301449	80	723351.6989337	723351.6993933	40	723354.8149124	723354.8154358	100	del	723356.2951936	723356.8082153	723356.8086333	120.0	4.0	723357.1358648
1440.775390625	0.0	80	2950708	106	53	7	1	0	723359.2212948	723359.2216048	80	723362.3235931	723362.3241329	40	723365.3592502	723365.3597543	100	imm	723367.8472907	723368.3567878	723368.357097	120.0	2.0	723368.9440147
1443.8779296875	0.0	40	2957062	106	53	7	1	0	723359.2212948	723359.2216048	80	723362.3235931	723362.3241329	40	723365.3592502	723365.3597543	100	imm	723367.8472907	723368.3567878	723368.357097	120.0	2.0	723368.9440147
1446.91357421875	0.0	100	2963279	106	53	7	1	0	723359.2212948	723359.2216048	80	723362.3235931	723362.3241329	40	723365.3592502	723365.3597543	100	imm	723367.8472907	723368.3567878	723368.357097	120.0	2.0	723368.9440147
1449.91064453125	0.0	120	2969417	106	53	7	1	0	723359.2212948	723359.2216048	80	723362.3235931	723362.3241329	40	723365.3592502	723365.3597543	100	imm	723367.8472907	723368.3567878	723368.357097	120.0	2.0	723368.9440147
1452.8310546875	0.0	80	2975398	107	63	1470	0	0	723371.2770207	723371.2773655	80	723374.4253549	723374.4258003	40	723377.7085431	723377.7089616	100	imm	723378.7199848	nan	nan	nan	nan	nan
1455.9794921875	0.0	40	2981846	107	63	1470	0	0	723371.2770207	723371.2773655	80	723374.4253549	723374.4258003	40	723377.7085431	723377.7089616	100	imm	723378.7199848	nan	nan	nan	nan	nan
1459.26220703125	0.0	100	2988569	107	63	1470	0	0	723371.2770207	723371.2773655	80	723374.4253549	723374.4258003	40	723377.7085431	723377.7089616	100	imm	723378.7199848	nan	nan	nan	nan	nan
1463.140625	0.0	80	2996512	108	50	7	1	1	723381.5866274	723381.5871495	80	723384.8437606	723384.8442302	40	723388.1249405	723388.1254083	100	imm	723388.9439241	723389.4577263	723389.4582192	120.0	2.0	723391.1996475
1466.3974609375	0.0	40	3003182	108	50	7	1	1	723381.5866274	723381.5871495	80	723384.8437606	723384.8442302	40	723388.1249405	723388.1254083	100	imm	723388.9439241	723389.4577263	723389.4582192	120.0	2.0	723391.1996475
1469.6787109375	0.0	100	3009902	108	50	7	1	1	723381.5866274	723381.5871495	80	723384.8437606	723384.8442302	40	723388.1249405	723388.1254083	100	imm	723388.9439241	723389.4577263	723389.4582192	120.0	2.0	723391.1996475
1471.01123046875	0.0	120	3012631	108	50	7	1	1	723381.5866274	723381.5871495	80	723384.8437606	723384.8442302	40	723388.1249405	723388.1254083	100	imm	723388.9439241	723389.4577263	723389.4582192	120.0	2.0	723391.1996475
1474.98974609375	0.0	80	3020779	109	100	250	0	1	723393.4361296	723393.4364989	80	723396.5056025	723396.5061115	40	723399.7639257	723399.764389	100	imm	723401.6637772	nan	nan	nan	nan	nan
1478.05908203125	0.0	40	3027065	109	100	250	0	1	723393.4361296	723393.4364989	80	723396.5056025	723396.5061115	40	723399.7639257	723399.764389	100	imm	723401.6637772	nan	nan	nan	nan	nan
1481.3173828125	0.0	100	3033738	109	100	250	0	1	723393.4361296	723393.4364989	80	723396.5056025	723396.5061115	40	723399.7639257	723399.764389	100	imm	723401.6637772	nan	nan	nan	nan	nan
1486.16015625	0.0	80	3043656	110	90	906	1	0	723404.6069208	723404.6073183	80	723408.0518871	723408.0523838	40	723411.2001181	723411.2006434	100	imm	723411.98315	723412.494235	723412.494671	120.0	1.0	723414.2878223
1489.60498046875	0.0	40	3050711	110	90	906	1	0	723404.6069208	723404.6073183	80	723408.0518871	723408.0523838	40	723411.2001181	723411.2006434	100	imm	723411.98315	723412.494235	723412.494671	120.0	1.0	723414.2878223
1492.7529296875	0.0	100	3057158	110	90	906	1	0	723404.6069208	723404.6073183	80	723408.0518871	723408.0523838	40	723411.2001181	723411.2006434	100	imm	723411.98315	723412.494235	723412.494671	120.0	1.0	723414.2878223
1494.04736328125	0.0	120	3059809	110	90	906	1	0	723404.6069208	723404.6073183	80	723408.0518871	723408.0523838	40	723411.2001181	723411.2006434	100	imm	723411.98315	723412.494235	723412.494671	120.0	1.0	723414.2878223
1497.962890625	0.0	80	3067828	111	60	906	1	1	723416.4100155	723416.4105365	80	723419.7007707	723419.7012653	40	723423.0344769	723423.0349278	100	imm	723424.8232743	723425.3341617	723425.3345669	120.0	1.0	723426.423381
1501.25341796875	0.0	40	3074567	111	60	906	1	1	723416.4100155	723416.4105365	80	723419.7007707	723419.7012653	40	723423.0344769	723423.0349278	100	imm	723424.8232743	723425.3341617	723425.3345669	120.0	1.0	723426.423381
1504.58740234375	0.0	100	3081395	111	60	906	1	1	723416.4100155	723416.4105365	80	723419.7007707	723419.7012653	40	723423.0344769	723423.0349278	100	imm	723424.8232743	723425.3341617	723425.3345669	120.0	1.0	723426.423381
1506.88671875	0.0	120	3086104	111	60	906	1	1	723416.4100155	723416.4105365	80	723419.7007707	723419.7012653	40	723423.0344769	723423.0349278	100	imm	723424.8232743	723425.3341617	723425.3345669	120.0	1.0	723426.423381
1510.2001953125	0.0	80	3092890	112	77	180	1	0	723428.6476263	723428.6481461	80	723431.7581647	723431.7586457	40	723435.2455527	723435.2461179	100	imm	723439.8477953	723440.3577583	723440.3581172	120.0	2.0	723441.9511622
1513.310546875	0.0	40	3099260	112	77	180	1	0	723428.6476263	723428.6481461	80	723431.7581647	723431.7586457	40	723435.2455527	723435.2461179	100	imm	723439.8477953	723440.3577583	723440.3581172	120.0	2.0	723441.9511622
1516.7978515625	0.0	100	3106402	112	77	180	1	0	723428.6476263	723428.6481461	80	723431.7581647	723431.7586457	40	723435.2455527	723435.2461179	100	imm	723439.8477953	723440.3577583	723440.3581172	120.0	2.0	723441.9511622
1521.91015625	0.0	120	3116872	112	77	180	1	0	723428.6476263	723428.6481461	80	723431.7581647	723431.7586457	40	723435.2455527	723435.2461179	100	imm	723439.8477953	723440.3577583	723440.3581172	120.0	2.0	723441.9511622
1525.5595703125	0.0	80	3124346	113	93	250	0	0	723444.0072697	723444.0077247	80	723447.0679613	723447.0684415	40	723450.1528789	723450.1533476	100	imm	723451.1596049	nan	nan	nan	nan	nan
1528.6201171875	0.0	40	3130614	113	93	250	0	0	723444.0072697	723444.0077247	80	723447.0679613	723447.0684415	40	723450.1528789	723450.1533476	100	imm	723451.1596049	nan	nan	nan	nan	nan
1531.705078125	0.0	100	3136932	113	93	250	0	0	723444.0072697	723444.0077247	80	723447.0679613	723447.0684415	40	723450.1528789	723450.1533476	100	imm	723451.1596049	nan	nan	nan	nan	nan
1535.31103515625	0.0	80	3144317	114	97	560	0	0	723453.7590523	723453.7595178	80	723457.0775109	723457.0780116	40	723460.3779123	723460.3784311	100	imm	723460.824704	nan	nan	nan	nan	nan
1538.62939453125	0.0	40	3151113	114	97	560	0	0	723453.7590523	723453.7595178	80	723457.0775109	723457.0780116	40	723460.3779123	723460.3784311	100	imm	723460.824704	nan	nan	nan	nan	nan
1541.9296875	0.0	100	3157872	114	97	560	0	0	723453.7590523	723453.7595178	80	723457.0775109	723457.0780116	40	723460.3779123	723460.3784311	100	imm	723460.824704	nan	nan	nan	nan	nan
1544.921875	0.0	80	3164000	115	63	7	1	0	723463.3699451	723463.3703638	80	723466.8433676	723466.8438374	40	723470.2206411	723470.2211693	100	del	723471.7115366	723472.2237738	723472.2243804	120.0	4.0	723474.6632615
1548.39501953125	0.0	40	3171113	115	63	7	1	0	723463.3699451	723463.3703638	80	723466.8433676	723466.8438374	40	723470.2206411	723470.2211693	100	del	723471.7115366	723472.2237738	723472.2243804	120.0	4.0	723474.6632615
1551.7724609375	0.0	100	3178030	115	63	7	1	0	723463.3699451	723463.3703638	80	723466.8433676	723466.8438374	40	723470.2206411	723470.2211693	100	del	723471.7115366	723472.2237738	723472.2243804	120.0	4.0	723474.6632615
1553.775390625	0.0	120	3182132	115	63	7	1	0	723463.3699451	723463.3703638	80	723466.8433676	723466.8438374	40	723470.2206411	723470.2211693	100	del	723471.7115366	723472.2237738	723472.2243804	120.0	4.0	723474.6632615
1558.60107421875	0.0	80	3192015	116	60	340	1	1	723477.0495351	723477.0499114	80	723480.0887934	723480.0892656	40	723483.5328654	723483.5333857	100	imm	723484.6152729	723485.1289097	723485.1294167	120.0	3.0	723485.6316382
1561.64013671875	0.0	40	3198239	116	60	340	1	1	723477.0495351	723477.0499114	80	723480.0887934	723480.0892656	40	723483.5328654	723483.5333857	100	imm	723484.6152729	723485.1289097	723485.1294167	120.0	3.0	723485.6316382
1565.083984375	0.0	100	3205292	116	60	340	1	1	723477.0495351	723477.0499114	80	723480.0887934	723480.0892656	40	723483.5328654	723483.5333857	100	imm	723484.6152729	723485.1289097	723485.1294167	120.0	3.0	723485.6316382
1566.68017578125	0.0	120	3208561	116	60	340	1	1	723477.0495351	723477.0499114	80	723480.0887934	723480.0892656	40	723483.5328654	723483.5333857	100	imm	723484.6152729	723485.1289097	723485.1294167	120.0	3.0	723485.6316382
1569.66552734375	0.0	80	3214675	117	90	120	0	1	723488.114362	723488.1148447	80	723491.6141304	723491.6146243	40	723495.0570948	723495.0576057	100	imm	723495.5510513	nan	nan	nan	nan	nan
1573.1650390625	0.0	40	3221842	117	90	120	0	1	723488.114362	723488.1148447	80	723491.6141304	723491.6146243	40	723495.0570948	723495.0576057	100	imm	723495.5510513	nan	nan	nan	nan	nan
1576.60791015625	0.0	100	3228893	117	90	120	0	1	723488.114362	723488.1148447	80	723491.6141304	723491.6146243	40	723495.0570948	723495.0576057	100	imm	723495.5510513	nan	nan	nan	nan	nan
1580.01318359375	0.0	80	3235867	118	90	560	0	0	723498.4622221	723498.4626209	80	723501.726901	723501.7274129	40	723504.8289602	723504.8294688	100	imm	723507.511454	nan	nan	nan	nan	nan
1583.27783203125	0.0	40	3242553	118	90	560	0	0	723498.4622221	723498.4626209	80	723501.726901	723501.7274129	40	723504.8289602	723504.8294688	100	imm	723507.511454	nan	nan	nan	nan	nan
1586.3798828125	0.0	100	3248906	118	90	560	0	0	723498.4622221	723498.4626209	80	723501.726901	723501.7274129	40	723504.8289602	723504.8294688	100	imm	723507.511454	nan	nan	nan	nan	nan
1591.77978515625	0.0	80	3259965	119	53	340	1	1	723510.2291456	723510.2296063	80	723513.3042425	723513.3047355	40	723516.3329853	723516.3334649	100	imm	723516.7364049	723517.2464659	723517.24683	120.0	2.0	723517.5915673
1594.85498046875	0.0	40	3266263	119	53	340	1	1	723510.2291456	723510.2296063	80	723513.3042425	723513.3047355	40	723516.3329853	723516.3334649	100	imm	723516.7364049	723517.2464659	723517.24683	120.0	2.0	723517.5915673
1597.88330078125	0.0	100	3272465	119	53	340	1	1	723510.2291456	723510.2296063	80	723513.3042425	723513.3047355	40	723516.3329853	723516.3334649	100	imm	723516.7364049	723517.2464659	723517.24683	120.0	2.0	723517.5915673
1598.796875	0.0	120	3274336	119	53	340	1	1	723510.2291456	723510.2296063	80	723513.3042425	723513.3047355	40	723516.3329853	723516.3334649	100	imm	723516.7364049	723517.2464659	723517.24683	120.0	2.0	723517.5915673
1601.6279296875	0.0	80	3280134	120	97	250	0	0	723520.077684	723520.07819	80	723523.2364558	723523.2369607	40	723526.3974345	723526.3979381	100	imm	723526.9287874	nan	nan	nan	nan	nan
1604.78662109375	0.0	40	3286603	120	97	250	0	0	723520.077684	723520.07819	80	723523.2364558	723523.2369607	40	723526.3974345	723526.3979381	100	imm	723526.9287874	nan	nan	nan	nan	nan
1607.94775390625	0.0	100	3293077	120	97	250	0	0	723520.077684	723520.07819	80	723523.2364558	723523.2369607	40	723526.3974345	723526.3979381	100	imm	723526.9287874	nan	nan	nan	nan	nan
1628.84423828125	0.0	80	3335873	121	57	906	1	1	723547.2947399	723547.2953116	80	723550.5360095	723550.5365256	40	723553.8738002	723553.8742586	100	imm	723554.8557321	723555.3692291	723555.3697268	120.0	3.0	723555.79907
1632.08544921875	0.0	40	3342511	121	57	906	1	1	723547.2947399	723547.2953116	80	723550.5360095	723550.5365256	40	723553.8738002	723553.8742586	100	imm	723554.8557321	723555.3692291	723555.3697268	120.0	3.0	723555.79907
1635.42333984375	0.0	100	3349347	121	57	906	1	1	723547.2947399	723547.2953116	80	723550.5360095	723550.5365256	40	723553.8738002	723553.8742586	100	imm	723554.8557321	723555.3692291	723555.3697268	120.0	3.0	723555.79907
1636.91845703125	0.0	120	3352409	121	57	906	1	1	723547.2947399	723547.2953116	80	723550.5360095	723550.5365256	40	723553.8738002	723553.8742586	100	imm	723554.8557321	723555.3692291	723555.3697268	120.0	3.0	723555.79907
1639.37255859375	0.0	80	3357435	122	57	250	0	1	723557.8233579	723557.8236994	80	723561.2518965	723561.2523875	40	723564.544348	723564.544779	100	imm	723565.0233332	nan	nan	nan	nan	nan
1642.80126953125	0.0	40	3364457	122	57	250	0	1	723557.8233579	723557.8236994	80	723561.2518965	723561.2523875	40	723564.544348	723564.544779	100	imm	723565.0233332	nan	nan	nan	nan	nan
1646.09375	0.0	100	3371200	122	57	250	0	1	723557.8233579	723557.8236994	80	723561.2518965	723561.2523875	40	723564.544348	723564.544779	100	imm	723565.0233332	nan	nan	nan	nan	nan
1649.517578125	0.0	80	3378212	123	50	30	0	0	723567.9682992	723567.9688125	80	723571.1501025	723571.1505316	40	723574.3863917	723574.3868655	100	imm	723575.1352031	nan	nan	nan	nan	nan
1652.69921875	0.0	40	3384728	123	50	30	0	0	723567.9682992	723567.9688125	80	723571.1501025	723571.1505316	40	723574.3863917	723574.3868655	100	imm	723575.1352031	nan	nan	nan	nan	nan
1655.935546875	0.0	100	3391356	123	50	30	0	0	723567.9682992	723567.9688125	80	723571.1501025	723571.1505316	40	723574.3863917	723574.3868655	100	imm	723575.1352031	nan	nan	nan	nan	nan
1659.22900390625	0.0	80	3398101	124	63	560	0	0	723577.6800807	723577.6805442	80	723580.7761999	723580.776622	40	723584.1212074	723584.1216995	100	imm	723585.2628531	nan	nan	nan	nan	nan
1662.3251953125	0.0	40	3404442	124	63	560	0	0	723577.6800807	723577.6805442	80	723580.7761999	723580.776622	40	723584.1212074	723584.1216995	100	imm	723585.2628531	nan	nan	nan	nan	nan
1665.669921875	0.0	100	3411292	124	63	560	0	0	723577.6800807	723577.6805442	80	723580.7761999	723580.776622	40	723584.1212074	723584.1216995	100	imm	723585.2628531	nan	nan	nan	nan	nan
1669.4951171875	0.0	80	3419126	125	60	7	1	0	723587.9465359	723587.9469584	80	723591.4032575	723591.4036763	40	723594.4752851	723594.4758414	100	del	723595.6068247	723596.1188497	723596.1193761	120.0	2.0	723598.0952328
1672.95166015625	0.0	40	3426205	125	60	7	1	0	723587.9465359	723587.9469584	80	723591.4032575	723591.4036763	40	723594.4752851	723594.4758414	100	del	723595.6068247	723596.1188497	723596.1193761	120.0	2.0	723598.0952328
1676.02392578125	0.0	100	3432497	125	60	7	1	0	723587.9465359	723587.9469584	80	723591.4032575	723591.4036763	40	723594.4752851	723594.4758414	100	del	723595.6068247	723596.1188497	723596.1193761	120.0	2.0	723598.0952328
1677.66748046875	0.0	120	3435863	125	60	7	1	0	723587.9465359	723587.9469584	80	723591.4032575	723591.4036763	40	723594.4752851	723594.4758414	100	del	723595.6068247	723596.1188497	723596.1193761	120.0	2.0	723598.0952328
1682.1513671875	0.0	80	3445046	126	73	30	0	1	723600.6030737	723600.6034925	80	723603.8794298	723603.8797029	40	723607.2462185	723607.2466641	100	del	723608.5993764	nan	nan	nan	nan	nan
1685.427734375	0.0	40	3451756	126	73	30	0	1	723600.6030737	723600.6034925	80	723603.8794298	723603.8797029	40	723607.2462185	723607.2466641	100	del	723608.5993764	nan	nan	nan	nan	nan
1688.79443359375	0.0	100	3458651	126	73	30	0	1	723600.6030737	723600.6034925	80	723603.8794298	723603.8797029	40	723607.2462185	723607.2466641	100	del	723608.5993764	nan	nan	nan	nan	nan
1693.16259765625	0.0	80	3467597	127	50	560	0	0	723611.6143779	723611.6147489	80	723614.7657348	723614.766199	40	723617.981863	723617.9821852	100	imm	723619.9588591	nan	nan	nan	nan	nan
1696.3134765625	0.0	40	3474050	127	50	560	0	0	723611.6143779	723611.6147489	80	723614.7657348	723614.766199	40	723617.981863	723617.9821852	100	imm	723619.9588591	nan	nan	nan	nan	nan
1699.52978515625	0.0	100	3480637	127	50	560	0	0	723611.6143779	723611.6147489	80	723614.7657348	723614.766199	40	723617.981863	723617.9821852	100	imm	723619.9588591	nan	nan	nan	nan	nan
1704.2568359375	0.0	80	3490318	128	70	7	1	0	723622.7092065	723622.7097044	80	723626.0997377	723626.1001974	40	723629.5225688	723629.5230572	100	del	723630.8626665	723631.3763515	723631.376785	120.0	4.0	723632.2083383
1707.6474609375	0.0	40	3497262	128	70	7	1	0	723622.7092065	723622.7097044	80	723626.0997377	723626.1001974	40	723629.5225688	723629.5230572	100	del	723630.8626665	723631.3763515	723631.376785	120.0	4.0	723632.2083383
1711.0703125	0.0	100	3504272	128	70	7	1	0	723622.7092065	723622.7097044	80	723626.0997377	723626.1001974	40	723629.5225688	723629.5230572	100	del	723630.8626665	723631.3763515	723631.376785	120.0	4.0	723632.2083383
1712.923828125	0.0	120	3508068	128	70	7	1	0	723622.7092065	723622.7097044	80	723626.0997377	723626.1001974	40	723629.5225688	723629.5230572	100	del	723630.8626665	723631.3763515	723631.376785	120.0	4.0	723632.2083383
1715.81787109375	0.0	80	3513995	129	87	30	0	1	723634.2705981	723634.2709772	80	723637.3672607	723637.3677665	40	723640.5579126	723640.5583021	100	del	723641.6628282	nan	nan	nan	nan	nan
1718.91455078125	0.0	40	3520337	129	87	30	0	1	723634.2705981	723634.2709772	80	723637.3672607	723637.3677665	40	723640.5579126	723640.5583021	100	del	723641.6628282	nan	nan	nan	nan	nan
1722.10498046875	0.0	100	3526871	129	87	30	0	1	723634.2705981	723634.2709772	80	723637.3672607	723637.3677665	40	723640.5579126	723640.5583021	100	del	723641.6628282	nan	nan	nan	nan	nan
1725.7587890625	0.0	80	3534354	130	87	250	0	0	723644.2118085	723644.212183	80	723647.4798746	723647.4803664	40	723650.6614459	723650.6619796	100	imm	723651.6788165	nan	nan	nan	nan	nan
1729.02685546875	0.0	40	3541047	130	87	250	0	0	723644.2118085	723644.212183	80	723647.4798746	723647.4803664	40	723650.6614459	723650.6619796	100	imm	723651.6788165	nan	nan	nan	nan	nan
1732.20849609375	0.0	100	3547563	130	87	250	0	0	723644.2118085	723644.212183	80	723647.4798746	723647.4803664	40	723650.6614459	723650.6619796	100	imm	723651.6788165	nan	nan	nan	nan	nan
1735.83056640625	0.0	80	3554981	131	67	906	1	1	723654.2837192	723654.2842309	80	723657.3939541	723657.3941211	40	723660.8586687	723660.8591553	100	imm	723661.3271575	723661.8394749	723661.8399155	120.0	4.0	723662.0951509
1738.94140625	0.0	40	3561352	131	67	906	1	1	723654.2837192	723654.2842309	80	723657.3939541	723657.3941211	40	723660.8586687	723660.8591553	100	imm	723661.3271575	723661.8394749	723661.8399155	120.0	4.0	723662.0951509
1742.4052734375	0.0	100	3568446	131	67	906	1	1	723654.2837192	723654.2842309	80	723657.3939541	723657.3941211	40	723660.8586687	723660.8591553	100	imm	723661.3271575	723661.8394749	723661.8399155	120.0	4.0	723662.0951509
1743.38623046875	0.0	120	3570455	131	67	906	1	1	723654.2837192	723654.2842309	80	723657.3939541	723657.3941211	40	723660.8586687	723660.8591553	100	imm	723661.3271575	723661.8394749	723661.8399155	120.0	4.0	723662.0951509
1745.9951171875	0.0	80	3575798	132	53	180	1	0	723664.448419	723664.4489093	80	723667.6904497	723667.6910279	40	723671.160167	723671.160631	100	imm	723672.6392823	723673.1515808	723673.152024	120.0	3.0	723673.9115255
1749.2373046875	0.0	40	3582438	132	53	180	1	0	723664.448419	723664.4489093	80	723667.6904497	723667.6910279	40	723671.160167	723671.160631	100	imm	723672.6392823	723673.1515808	723673.152024	120.0	3.0	723673.9115255
1752.70654296875	0.0	100	3589543	132	53	180	1	0	723664.448419	723664.4489093	80	723667.6904497	723667.6910279	40	723671.160167	723671.160631	100	imm	723672.6392823	723673.1515808	723673.152024	120.0	3.0	723673.9115255
1754.6982421875	0.0	120	3593622	132	53	180	1	0	723664.448419	723664.4489093	80	723667.6904497	723667.6910279	40	723671.160167	723671.160631	100	imm	723672.6392823	723673.1515808	723673.152024	120.0	3.0	723673.9115255
1757.525390625	0.0	80	3599412	133	80	1470	0	1	723675.9791096	723675.9795424	80	723679.3594655	723679.3599295	40	723682.7407851	723682.7413116	100	imm	723683.3430651	nan	nan	nan	nan	nan
1760.90576171875	0.0	40	3606335	133	80	1470	0	1	723675.9791096	723675.9795424	80	723679.3594655	723679.3599295	40	723682.7407851	723682.7413116	100	imm	723683.3430651	nan	nan	nan	nan	nan
1764.287109375	0.0	100	3613260	133	80	1470	0	1	723675.9791096	723675.9795424	80	723679.3594655	723679.3599295	40	723682.7407851	723682.7413116	100	imm	723683.3430651	nan	nan	nan	nan	nan
1767.6884765625	0.0	80	3620226	134	77	340	1	1	723686.1423917	723686.1428916	80	723689.2421645	723689.2425864	40	723692.5542348	723692.554709	100	imm	723697.0793067	723697.5920045	723697.5924838	120.0	1.0	723699.6949944
1770.7880859375	0.0	40	3626574	134	77	340	1	1	723686.1423917	723686.1428916	80	723689.2421645	723689.2425864	40	723692.5542348	723692.554709	100	imm	723697.0793067	723697.5920045	723697.5924838	120.0	1.0	723699.6949944
1774.10009765625	0.0	100	3633357	134	77	340	1	1	723686.1423917	723686.1428916	80	723689.2421645	723689.2425864	40	723692.5542348	723692.554709	100	imm	723697.0793067	723697.5920045	723697.5924838	120.0	1.0	723699.6949944
1779.1376953125	0.0	120	3643674	134	77	340	1	1	723686.1423917	723686.1428916	80	723689.2421645	723689.2425864	40	723692.5542348	723692.554709	100	imm	723697.0793067	723697.5920045	723697.5924838	120.0	1.0	723699.6949944
1783.40625	0.0	80	3652416	135	93	7	1	0	723701.8605726	723701.8610893	80	723704.9355426	723704.9360046	40	723708.0551871	723708.0557005	100	del	723711.6948627	723712.2040329	723712.2043447	120.0	4.0	723713.1587975
1786.4814453125	0.0	40	3658714	135	93	7	1	0	723701.8605726	723701.8610893	80	723704.9355426	723704.9360046	40	723708.0551871	723708.0557005	100	del	723711.6948627	723712.2040329	723712.2043447	120.0	4.0	723713.1587975
1789.60107421875	0.0	100	3665103	135	93	7	1	0	723701.8605726	723701.8610893	80	723704.9355426	723704.9360046	40	723708.0551871	723708.0557005	100	del	723711.6948627	723712.2040329	723712.2043447	120.0	4.0	723713.1587975
1793.74951171875	0.0	120	3673599	135	93	7	1	0	723701.8605726	723701.8610893	80	723704.9355426	723704.9360046	40	723708.0551871	723708.0557005	100	del	723711.6948627	723712.2040329	723712.2043447	120.0	4.0	723713.1587975
1797.1650390625	0.0	80	3680594	136	53	1470	0	1	723715.6198617	723715.6202812	80	723718.6626939	723718.6631549	40	723721.7972541	723721.7977257	100	imm	723723.8073298	nan	nan	nan	nan	nan
1800.2080078125	0.0	40	3686826	136	53	1470	0	1	723715.6198617	723715.6202812	80	723718.6626939	723718.6631549	40	723721.7972541	723721.7977257	100	imm	723723.8073298	nan	nan	nan	nan	nan
1803.3427734375	0.0	100	3693246	136	53	1470	0	1	723715.6198617	723715.6202812	80	723718.6626939	723718.6631549	40	723721.7972541	723721.7977257	100	imm	723723.8073298	nan	nan	nan	nan	nan
1807.89794921875	0.0	80	3702575	137	87	7	1	0	723726.352617	723726.3530953	80	723729.5814904	723729.5819611	40	723732.6014232	723732.6019137	100	del	723733.1121009	723733.6238158	723733.6242813	120.0	3.0	723734.4712494
1811.12646484375	0.0	40	3709187	137	87	7	1	0	723726.352617	723726.3530953	80	723729.5814904	723729.5819611	40	723732.6014232	723732.6019137	100	del	723733.1121009	723733.6238158	723733.6242813	120.0	3.0	723734.4712494
1814.146484375	0.0	100	3715372	137	87	7	1	0	723726.352617	723726.3530953	80	723729.5814904	723729.5819611	40	723732.6014232	723732.6019137	100	del	723733.1121009	723733.6238158	723733.6242813	120.0	3.0	723734.4712494
1815.1689453125	0.0	120	3717466	137	87	7	1	0	723726.352617	723726.3530953	80	723729.5814904	723729.5819611	40	723732.6014232	723732.6019137	100	del	723733.1121009	723733.6238158	723733.6242813	120.0	3.0	723734.4712494
1818.48193359375	0.0	80	3724251	138	53	906	1	1	723736.9371138	723736.9375981	80	723740.0436005	723740.0440796	40	723743.1033117	723743.1037739	100	imm	723743.838658	723744.3520431	723744.3525999	120.0	1.0	723745.5509202
1821.58837890625	0.0	40	3730613	138	53	906	1	1	723736.9371138	723736.9375981	80	723740.0436005	723740.0440796	40	723743.1033117	723743.1037739	100	imm	723743.838658	723744.3520431	723744.3525999	120.0	1.0	723745.5509202
1824.64794921875	0.0	100	3736879	138	53	906	1	1	723736.9371138	723736.9375981	80	723740.0436005	723740.0440796	40	723743.1033117	723743.1037739	100	imm	723743.838658	723744.3520431	723744.3525999	120.0	1.0	723745.5509202
1825.89697265625	0.0	120	3739437	138	53	906	1	1	723736.9371138	723736.9375981	80	723740.0436005	723740.0440796	40	723743.1033117	723743.1037739	100	imm	723743.838658	723744.3520431	723744.3525999	120.0	1.0	723745.5509202
1829.2646484375	0.0	80	3746334	139	70	1470	0	0	723747.7200024	723747.7204596	80	723750.9556842	723750.956179	40	723754.019821	723754.0202654	100	del	723756.206445	nan	nan	nan	nan	nan
1832.50048828125	0.0	40	3752961	139	70	1470	0	0	723747.7200024	723747.7204596	80	723750.9556842	723750.956179	40	723754.019821	723754.0202654	100	del	723756.206445	nan	nan	nan	nan	nan
1835.564453125	0.0	100	3759236	139	70	1470	0	0	723747.7200024	723747.7204596	80	723750.9556842	723750.956179	40	723754.019821	723754.0202654	100	del	723756.206445	nan	nan	nan	nan	nan
1840.76611328125	0.0	80	3769889	140	80	906	1	1	723759.2217655	723759.2222049	80	723762.395339	723762.3958325	40	723765.5586927	723765.559197	100	imm	723766.6226209	723767.1358081	723767.136271	120.0	1.0	723767.9984225
1843.939453125	0.0	40	3776388	140	80	906	1	1	723759.2217655	723759.2222049	80	723762.395339	723762.3958325	40	723765.5586927	723765.559197	100	imm	723766.6226209	723767.1358081	723767.136271	120.0	1.0	723767.9984225
1847.10302734375	0.0	100	3782867	140	80	906	1	1	723759.2217655	723759.2222049	80	723762.395339	723762.3958325	40	723765.5586927	723765.559197	100	imm	723766.6226209	723767.1358081	723767.136271	120.0	1.0	723767.9984225
1848.68017578125	0.0	120	3786097	140	80	906	1	1	723759.2217655	723759.2222049	80	723762.395339	723762.3958325	40	723765.5586927	723765.559197	100	imm	723766.6226209	723767.1358081	723767.136271	120.0	1.0	723767.9984225
1871.7021484375	0.0	80	3833246	141	60	68	1	1	723790.1584058	723790.1588582	80	723793.3151504	723793.3156129	40	723796.3512973	723796.3519313	100	imm	723797.5584641	723798.0680695	723798.0684628	120.0	3.0	723798.8708099
1874.85888671875	0.0	40	3839711	141	60	68	1	1	723790.1584058	723790.1588582	80	723793.3151504	723793.3156129	40	723796.3512973	723796.3519313	100	imm	723797.5584641	723798.0680695	723798.0684628	120.0	3.0	723798.8708099
