onset	duration	value	sample	trial_idx	val	del	is_cued	rev_opts	del_pres_displaytime	del_pres_triggertime	del_pres_triggercode	val_pres_displaytime	val_pres_triggertime	val_pres_triggercode	choice_displaytime	choice_triggertime	choice_triggercode	choice	choice_time	viv_displaytime	viv_triggertime	viv_triggercode	viv	viv_time
37.3837890625	0.0	80	76562	1	97	700	1	0	2294326.8082506	2294326.8096373	80	2294330.0027323	2294330.0030663	40	2294333.1312944	2294333.1321864	100	imm	2294335.9872932	2294336.5087405	2294336.5095609	120.0	3.0	2294339.8354906
40.578125	0.0	40	83104	1	97	700	1	0	2294326.8082506	2294326.8096373	80	2294330.0027323	2294330.0030663	40	2294333.1312944	2294333.1321864	100	imm	2294335.9872932	2294336.5087405	2294336.5095609	120.0	3.0	2294339.8354906
43.70654296875	0.0	100	89511	1	97	700	1	0	2294326.8082506	2294326.8096373	80	2294330.0027323	2294330.0030663	40	2294333.1312944	2294333.1321864	100	imm	2294335.9872932	2294336.5087405	2294336.5095609	120.0	3.0	2294339.8354906
47.083984375	0.0	120	96428	1	97	700	1	0	2294326.8082506	2294326.8096373	80	2294330.0027323	2294330.0030663	40	2294333.1312944	2294333.1321864	100	imm	2294335.9872932	2294336.5087405	2294336.5095609	120.0	3.0	2294339.8354906
52.673828125	0.0	80	107876	2	83	510	0	1	2294342.0983459	2294342.0990775	80	2294345.2768849	2294345.2776644	40	2294348.7668135	2294348.7676948	100	imm	2294351.8831861	nan	nan	nan	nan	nan
55.8515625	0.0	40	114384	2	83	510	0	1	2294342.0983459	2294342.0990775	80	2294345.2768849	2294345.2776644	40	2294348.7668135	2294348.7676948	100	imm	2294351.8831861	nan	nan	nan	nan	nan
59.341796875	0.0	100	121532	2	83	510	0	1	2294342.0983459	2294342.0990775	80	2294345.2768849	2294345.2776644	40	2294348.7668135	2294348.7676948	100	imm	2294351.8831861	nan	nan	nan	nan	nan
65.4423828125	0.0	80	134026	3	53	260	0	0	2294354.8673597	2294354.8682386	80	2294357.9030314	2294357.9036961	40	2294361.2863699	2294361.2871072	100	imm	2294363.9871689	nan	nan	nan	nan	nan
68.47802734375	0.0	40	140243	3	53	260	0	0	2294354.8673597	2294354.8682386	80	2294357.9030314	2294357.9036961	40	2294361.2863699	2294361.2871072	100	imm	2294363.9871689	nan	nan	nan	nan	nan
71.86083984375	0.0	100	147171	3	53	260	0	0	2294354.8673597	2294354.8682386	80	2294357.9030314	2294357.9036961	40	2294361.2863699	2294361.2871072	100	imm	2294363.9871689	nan	nan	nan	nan	nan
77.21826171875	0.0	80	158143	4	63	365	1	1	2294366.643645	2294366.6443621	80	2294369.863803	2294369.8645337	40	2294373.1533016	2294373.1540265	100	imm	2294375.4346087	2294375.9484563	2294375.9492881	120.0	2.0	2294380.3152985
80.4384765625	0.0	40	164738	4	63	365	1	1	2294366.643645	2294366.6443621	80	2294369.863803	2294369.8645337	40	2294373.1533016	2294373.1540265	100	imm	2294375.4346087	2294375.9484563	2294375.9492881	120.0	2.0	2294380.3152985
83.72802734375	0.0	100	171475	4	63	365	1	1	2294366.643645	2294366.6443621	80	2294369.863803	2294369.8645337	40	2294373.1533016	2294373.1540265	100	imm	2294375.4346087	2294375.9484563	2294375.9492881	120.0	2.0	2294380.3152985
86.5224609375	0.0	120	177198	4	63	365	1	1	2294366.643645	2294366.6443621	80	2294369.863803	2294369.8645337	40	2294373.1533016	2294373.1540265	100	imm	2294375.4346087	2294375.9484563	2294375.9492881	120.0	2.0	2294380.3152985
93.38525390625	0.0	80	191253	5	83	175	1	1	2294382.8110196	2294382.8134693	80	2294386.0343284	2294386.0367441	40	2294389.5464518	2294389.5493254	100	del	2294391.1627684	2294391.6786995	2294391.6794984	120.0	4.0	2294395.8029099
96.6083984375	0.0	40	197854	5	83	175	1	1	2294382.8110196	2294382.8134693	80	2294386.0343284	2294386.0367441	40	2294389.5464518	2294389.5493254	100	del	2294391.1627684	2294391.6786995	2294391.6794984	120.0	4.0	2294395.8029099
100.12060546875	0.0	100	205047	5	83	175	1	1	2294382.8110196	2294382.8134693	80	2294386.0343284	2294386.0367441	40	2294389.5464518	2294389.5493254	100	del	2294391.1627684	2294391.6786995	2294391.6794984	120.0	4.0	2294395.8029099
102.25244140625	0.0	120	209413	5	83	175	1	1	2294382.8110196	2294382.8134693	80	2294386.0343284	2294386.0367441	40	2294389.5464518	2294389.5493254	100	del	2294391.1627684	2294391.6786995	2294391.6794984	120.0	4.0	2294395.8029099
108.5537109375	0.0	80	222318	6	100	365	1	1	2294397.9801287	2294397.9810383	80	2294401.3387941	2294401.3394999	40	2294404.6863412	2294404.6868527	100	imm	2294407.9630347	2294408.4764722	2294408.4772559	120.0	1.0	2294410.5153287
111.91259765625	0.0	40	229197	6	100	365	1	1	2294397.9801287	2294397.9810383	80	2294401.3387941	2294401.3394999	40	2294404.6863412	2294404.6868527	100	imm	2294407.9630347	2294408.4764722	2294408.4772559	120.0	1.0	2294410.5153287
115.259765625	0.0	100	236052	6	100	365	1	1	2294397.9801287	2294397.9810383	80	2294401.3387941	2294401.3394999	40	2294404.6863412	2294404.6868527	100	imm	2294407.9630347	2294408.4764722	2294408.4772559	120.0	1.0	2294410.5153287
119.0498046875	0.0	120	243814	6	100	365	1	1	2294397.9801287	2294397.9810383	80	2294401.3387941	2294401.3394999	40	2294404.6863412	2294404.6868527	100	imm	2294407.9630347	2294408.4764722	2294408.4772559	120.0	1.0	2294410.5153287
123.37548828125	0.0	80	252673	7	97	365	1	0	2294412.8021483	2294412.8026247	80	2294416.1586989	2294416.1592232	40	2294419.5095942	2294419.5100815	100	del	2294422.8347745	2294423.3505732	2294423.353043	120.0	3.0	2294425.6361482
126.73193359375	0.0	40	259547	7	97	365	1	0	2294412.8021483	2294412.8026247	80	2294416.1586989	2294416.1592232	40	2294419.5095942	2294419.5100815	100	del	2294422.8347745	2294423.3505732	2294423.353043	120.0	3.0	2294425.6361482
130.0830078125	0.0	100	266410	7	97	365	1	0	2294412.8021483	2294412.8026247	80	2294416.1586989	2294416.1592232	40	2294419.5095942	2294419.5100815	100	del	2294422.8347745	2294423.3505732	2294423.353043	120.0	3.0	2294425.6361482
133.923828125	0.0	120	274276	7	97	365	1	0	2294412.8021483	2294412.8026247	80	2294416.1586989	2294416.1592232	40	2294419.5095942	2294419.5100815	100	del	2294422.8347745	2294423.3505732	2294423.353043	120.0	3.0	2294425.6361482
138.314453125	0.0	80	283268	8	83	700	1	1	2294427.7412458	2294427.7417779	80	2294430.8136723	2294430.814139	40	2294434.3286737	2294434.32919	100	del	2294437.1390826	2294437.6532621	2294437.6537402	120.0	3.0	2294439.9143108
141.38671875	0.0	40	289560	8	83	700	1	1	2294427.7412458	2294427.7417779	80	2294430.8136723	2294430.814139	40	2294434.3286737	2294434.32919	100	del	2294437.1390826	2294437.6532621	2294437.6537402	120.0	3.0	2294439.9143108
144.9013671875	0.0	100	296758	8	83	700	1	1	2294427.7412458	2294427.7417779	80	2294430.8136723	2294430.814139	40	2294434.3286737	2294434.32919	100	del	2294437.1390826	2294437.6532621	2294437.6537402	120.0	3.0	2294439.9143108
148.22607421875	0.0	120	303567	8	83	700	1	1	2294427.7412458	2294427.7417779	80	2294430.8136723	2294430.814139	40	2294434.3286737	2294434.32919	100	del	2294437.1390826	2294437.6532621	2294437.6537402	120.0	3.0	2294439.9143108
152.58984375	0.0	80	312504	9	100	510	0	0	2294442.0169359	2294442.0174373	80	2294445.041855	2294445.0423185	40	2294448.3352522	2294448.3357736	100	imm	2294451.6032613	nan	nan	nan	nan	nan
155.61474609375	0.0	40	318699	9	100	510	0	0	2294442.0169359	2294442.0174373	80	2294445.041855	2294445.0423185	40	2294448.3352522	2294448.3357736	100	imm	2294451.6032613	nan	nan	nan	nan	nan
158.90771484375	0.0	100	325443	9	100	510	0	0	2294442.0169359	2294442.0174373	80	2294445.041855	2294445.0423185	40	2294448.3352522	2294448.3357736	100	imm	2294451.6032613	nan	nan	nan	nan	nan
165.1357421875	0.0	80	338198	10	70	30	0	1	2294454.5633277	2294454.5637216	80	2294457.9055263	2294457.9059869	40	2294461.0143931	2294461.0148992	100	imm	2294463.0265768	nan	nan	nan	nan	nan
168.47802734375	0.0	40	345043	10	70	30	0	1	2294454.5633277	2294454.5637216	80	2294457.9055263	2294457.9059869	40	2294461.0143931	2294461.0148992	100	imm	2294463.0265768	nan	nan	nan	nan	nan
171.58642578125	0.0	100	351409	10	70	30	0	1	2294454.5633277	2294454.5637216	80	2294457.9055263	2294457.9059869	40	2294461.0143931	2294461.0148992	100	imm	2294463.0265768	nan	nan	nan	nan	nan
176.30126953125	0.0	80	361065	11	73	700	1	1	2294465.7288925	2294465.7293776	80	2294468.9667732	2294468.9672979	40	2294472.47093	2294472.4719674	100	del	2294474.3623693	2294474.8763876	2294474.8768412	120.0	3.0	2294477.8600345
179.5390625	0.0	40	367696	11	73	700	1	1	2294465.7288925	2294465.7293776	80	2294468.9667732	2294468.9672979	40	2294472.47093	2294472.4719674	100	del	2294474.3623693	2294474.8763876	2294474.8768412	120.0	3.0	2294477.8600345
183.04296875	0.0	100	374872	11	73	700	1	1	2294465.7288925	2294465.7293776	80	2294468.9667732	2294468.9672979	40	2294472.47093	2294472.4719674	100	del	2294474.3623693	2294474.8763876	2294474.8768412	120.0	3.0	2294477.8600345
185.4482421875	0.0	120	379798	11	73	700	1	1	2294465.7288925	2294465.7293776	80	2294468.9667732	2294468.9672979	40	2294472.47093	2294472.4719674	100	del	2294474.3623693	2294474.8763876	2294474.8768412	120.0	3.0	2294477.8600345
190.5224609375	0.0	80	390190	12	50	175	1	1	2294479.9508078	2294479.9512429	80	2294483.387595	2294483.3881552	40	2294486.7236579	2294486.7241214	100	del	2294489.5470257	2294490.0609156	2294490.0613485	120.0	3.0	2294492.698976
193.95947265625	0.0	40	397229	12	50	175	1	1	2294479.9508078	2294479.9512429	80	2294483.387595	2294483.3881552	40	2294486.7236579	2294486.7241214	100	del	2294489.5470257	2294490.0609156	2294490.0613485	120.0	3.0	2294492.698976
197.29541015625	0.0	100	404061	12	50	175	1	1	2294479.9508078	2294479.9512429	80	2294483.387595	2294483.3881552	40	2294486.7236579	2294486.7241214	100	del	2294489.5470257	2294490.0609156	2294490.0613485	120.0	3.0	2294492.698976
200.63232421875	0.0	120	410895	12	50	175	1	1	2294479.9508078	2294479.9512429	80	2294483.387595	2294483.3881552	40	2294486.7236579	2294486.7241214	100	del	2294489.5470257	2294490.0609156	2294490.0613485	120.0	3.0	2294492.698976
205.47509765625	0.0	80	420813	13	50	970	0	1	2294494.9037843	2294494.9043	80	2294498.0069475	2294498.0073738	40	2294501.234452	2294501.2350922	100	imm	2294503.3705238	nan	nan	nan	nan	nan
208.578125	0.0	40	427168	13	50	970	0	1	2294494.9037843	2294494.9043	80	2294498.0069475	2294498.0073738	40	2294501.234452	2294501.2350922	100	imm	2294503.3705238	nan	nan	nan	nan	nan
211.8056640625	0.0	100	433778	13	50	970	0	1	2294494.9037843	2294494.9043	80	2294498.0069475	2294498.0073738	40	2294501.234452	2294501.2350922	100	imm	2294503.3705238	nan	nan	nan	nan	nan
216.70068359375	0.0	80	443803	14	90	175	1	1	2294506.1294806	2294506.1299464	80	2294509.1975966	2294509.1980726	40	2294512.506603	2294512.5070848	100	del	2294514.6505436	2294515.1635911	2294515.1640424	120.0	2.0	2294517.9320544
219.7685546875	0.0	40	450086	14	90	175	1	1	2294506.1294806	2294506.1299464	80	2294509.1975966	2294509.1980726	40	2294512.506603	2294512.5070848	100	del	2294514.6505436	2294515.1635911	2294515.1640424	120.0	2.0	2294517.9320544
223.07763671875	0.0	100	456863	14	90	175	1	1	2294506.1294806	2294506.1299464	80	2294509.1975966	2294509.1980726	40	2294512.506603	2294512.5070848	100	del	2294514.6505436	2294515.1635911	2294515.1640424	120.0	2.0	2294517.9320544
225.734375	0.0	120	462304	14	90	175	1	1	2294506.1294806	2294506.1299464	80	2294509.1975966	2294509.1980726	40	2294512.506603	2294512.5070848	100	del	2294514.6505436	2294515.1635911	2294515.1640424	120.0	2.0	2294517.9320544
230.6318359375	0.0	80	472334	15	100	970	0	1	2294520.0608876	2294520.0613089	80	2294523.2606991	2294523.2611306	40	2294526.5661531	2294526.5667111	100	na	2294529.5943632	nan	nan	nan	nan	nan
233.83154296875	0.0	40	478887	15	100	970	0	1	2294520.0608876	2294520.0613089	80	2294523.2606991	2294523.2611306	40	2294526.5661531	2294526.5667111	100	na	2294529.5943632	nan	nan	nan	nan	nan
237.13671875	0.0	100	485656	15	100	970	0	1	2294520.0608876	2294520.0613089	80	2294523.2606991	2294523.2611306	40	2294526.5661531	2294526.5667111	100	na	2294529.5943632	nan	nan	nan	nan	nan
242.810546875	0.0	80	497276	16	100	175	1	1	2294532.2402784	2294532.2407092	80	2294535.3929899	2294535.3934987	40	2294538.7152898	2294538.7157601	100	imm	2294542.8345142	2294543.3479839	2294543.348462	120.0	2.0	2294548.571079
245.96337890625	0.0	40	503733	16	100	175	1	1	2294532.2402784	2294532.2407092	80	2294535.3929899	2294535.3934987	40	2294538.7152898	2294538.7157601	100	imm	2294542.8345142	2294543.3479839	2294543.348462	120.0	2.0	2294548.571079
249.28564453125	0.0	100	510537	16	100	175	1	1	2294532.2402784	2294532.2407092	80	2294535.3929899	2294535.3934987	40	2294538.7152898	2294538.7157601	100	imm	2294542.8345142	2294543.3479839	2294543.348462	120.0	2.0	2294548.571079
253.91796875	0.0	120	520024	16	100	175	1	1	2294532.2402784	2294532.2407092	80	2294535.3929899	2294535.3934987	40	2294538.7152898	2294538.7157601	100	imm	2294542.8345142	2294543.3479839	2294543.348462	120.0	2.0	2294548.571079
261.291015625	0.0	80	535124	17	80	90	0	1	2294550.7211044	2294550.7216029	80	2294554.1409555	2294554.1414174	40	2294557.6465293	2294557.6470173	100	del	2294559.5542848	nan	nan	nan	nan	nan
264.7109375	0.0	40	542128	17	80	90	0	1	2294550.7211044	2294550.7216029	80	2294554.1409555	2294554.1414174	40	2294557.6465293	2294557.6470173	100	del	2294559.5542848	nan	nan	nan	nan	nan
268.21630859375	0.0	100	549307	17	80	90	0	1	2294550.7211044	2294550.7216029	80	2294554.1409555	2294554.1414174	40	2294557.6465293	2294557.6470173	100	del	2294559.5542848	nan	nan	nan	nan	nan
273.0078125	0.0	80	559120	18	93	90	0	1	2294562.4382856	2294562.4387783	80	2294565.6180336	2294565.6184929	40	2294568.9230992	2294568.9235952	100	del	2294570.8680117	nan	nan	nan	nan	nan
276.1875	0.0	40	565632	18	93	90	0	1	2294562.4382856	2294562.4387783	80	2294565.6180336	2294565.6184929	40	2294568.9230992	2294568.9235952	100	del	2294570.8680117	nan	nan	nan	nan	nan
279.49267578125	0.0	100	572401	18	93	90	0	1	2294562.4382856	2294562.4387783	80	2294565.6180336	2294565.6184929	40	2294568.9230992	2294568.9235952	100	del	2294570.8680117	nan	nan	nan	nan	nan
284.0087890625	0.0	80	581650	19	73	970	0	1	2294573.4395243	2294573.4400199	80	2294576.9005052	2294576.90106	40	2294580.353532	2294580.3540678	100	imm	2294583.4420234	nan	nan	nan	nan	nan
287.4697265625	0.0	40	588738	19	73	970	0	1	2294573.4395243	2294573.4400199	80	2294576.9005052	2294576.90106	40	2294580.353532	2294580.3540678	100	imm	2294583.4420234	nan	nan	nan	nan	nan
290.9228515625	0.0	100	595810	19	73	970	0	1	2294573.4395243	2294573.4400199	80	2294576.9005052	2294576.90106	40	2294580.353532	2294580.3540678	100	imm	2294583.4420234	nan	nan	nan	nan	nan
296.939453125	0.0	80	608132	20	97	175	1	0	2294586.370311	2294586.370794	80	2294589.5089582	2294589.5094611	40	2294592.8190159	2294592.8195613	100	del	2294594.7860854	2294595.3003001	2294595.300781	120.0	2.0	2294598.4501245
300.078125	0.0	40	614560	20	97	175	1	0	2294586.370311	2294586.370794	80	2294589.5089582	2294589.5094611	40	2294592.8190159	2294592.8195613	100	del	2294594.7860854	2294595.3003001	2294595.300781	120.0	2.0	2294598.4501245
303.38818359375	0.0	100	621339	20	97	175	1	0	2294586.370311	2294586.370794	80	2294589.5089582	2294589.5094611	40	2294592.8190159	2294592.8195613	100	del	2294594.7860854	2294595.3003001	2294595.300781	120.0	2.0	2294598.4501245
305.869140625	0.0	120	626420	20	97	175	1	0	2294586.370311	2294586.370794	80	2294589.5089582	2294589.5094611	40	2294592.8190159	2294592.8195613	100	del	2294594.7860854	2294595.3003001	2294595.300781	120.0	2.0	2294598.4501245
333.10009765625	0.0	80	682189	21	57	970	0	1	2294622.5319178	2294622.5323945	80	2294625.7548944	2294625.7553577	40	2294628.9252217	2294628.925637	100	imm	2294630.2437997	nan	nan	nan	nan	nan
336.3232421875	0.0	40	688790	21	57	970	0	1	2294622.5319178	2294622.5323945	80	2294625.7548944	2294625.7553577	40	2294628.9252217	2294628.925637	100	imm	2294630.2437997	nan	nan	nan	nan	nan
339.4931640625	0.0	100	695282	21	57	970	0	1	2294622.5319178	2294622.5323945	80	2294625.7548944	2294625.7553577	40	2294628.9252217	2294628.925637	100	imm	2294630.2437997	nan	nan	nan	nan	nan
343.41064453125	0.0	80	703305	22	100	700	1	1	2294632.8427651	2294632.8432209	80	2294635.9399777	2294635.940417	40	2294639.1644929	2294639.1649872	100	del	2294640.3307639	2294640.8448825	2294640.8453752	120.0	2.0	2294644.1141544
346.5078125	0.0	40	709648	22	100	700	1	1	2294632.8427651	2294632.8432209	80	2294635.9399777	2294635.940417	40	2294639.1644929	2294639.1649872	100	del	2294640.3307639	2294640.8448825	2294640.8453752	120.0	2.0	2294644.1141544
349.732421875	0.0	100	716252	22	100	700	1	1	2294632.8427651	2294632.8432209	80	2294635.9399777	2294635.940417	40	2294639.1644929	2294639.1649872	100	del	2294640.3307639	2294640.8448825	2294640.8453752	120.0	2.0	2294644.1141544
351.41259765625	0.0	120	719693	22	100	700	1	1	2294632.8427651	2294632.8432209	80	2294635.9399777	2294635.940417	40	2294639.1644929	2294639.1649872	100	del	2294640.3307639	2294640.8448825	2294640.8453752	120.0	2.0	2294644.1141544
356.74560546875	0.0	80	730615	23	87	510	0	1	2294646.177934	2294646.178346	80	2294649.4856187	2294649.486052	40	2294652.7348359	2294652.7353901	100	imm	2294657.1224227	nan	nan	nan	nan	nan
360.05322265625	0.0	40	737389	23	87	510	0	1	2294646.177934	2294646.178346	80	2294649.4856187	2294649.486052	40	2294652.7348359	2294652.7353901	100	imm	2294657.1224227	nan	nan	nan	nan	nan
363.30224609375	0.0	100	744043	23	87	510	0	1	2294646.177934	2294646.178346	80	2294649.4856187	2294649.486052	40	2294652.7348359	2294652.7353901	100	imm	2294657.1224227	nan	nan	nan	nan	nan
370.556640625	0.0	80	758900	24	63	90	0	1	2294659.9892825	2294659.9897401	80	2294663.3468609	2294663.3473856	40	2294666.6807444	2294666.6812496	100	imm	2294668.6578363	nan	nan	nan	nan	nan
373.9140625	0.0	40	765776	24	63	90	0	1	2294659.9892825	2294659.9897401	80	2294663.3468609	2294663.3473856	40	2294666.6807444	2294666.6812496	100	imm	2294668.6578363	nan	nan	nan	nan	nan
377.248046875	0.0	100	772604	24	63	90	0	1	2294659.9892825	2294659.9897401	80	2294663.3468609	2294663.3473856	40	2294666.6807444	2294666.6812496	100	imm	2294668.6578363	nan	nan	nan	nan	nan
381.76171875	0.0	80	781848	25	77	700	1	0	2294671.1946985	2294671.1951938	80	2294674.2343995	2294674.2345497	40	2294677.4000756	2294677.4002738	100	del	2294679.6907815	2294680.2043219	2294680.2049208	120.0	2.0	2294682.2341841
384.8017578125	0.0	40	788074	25	77	700	1	0	2294671.1946985	2294671.1951938	80	2294674.2343995	2294674.2345497	40	2294677.4000756	2294677.4002738	100	del	2294679.6907815	2294680.2043219	2294680.2049208	120.0	2.0	2294682.2341841
387.96728515625	0.0	100	794557	25	77	700	1	0	2294671.1946985	2294671.1951938	80	2294674.2343995	2294674.2345497	40	2294677.4000756	2294677.4002738	100	del	2294679.6907815	2294680.2043219	2294680.2049208	120.0	2.0	2294682.2341841
390.77099609375	0.0	120	800299	25	77	700	1	0	2294671.1946985	2294671.1951938	80	2294674.2343995	2294674.2345497	40	2294677.4000756	2294677.4002738	100	del	2294679.6907815	2294680.2043219	2294680.2049208	120.0	2.0	2294682.2341841
395.08203125	0.0	80	809128	26	80	365	1	1	2294684.5154954	2294684.5159952	80	2294687.8505468	2294687.8510453	40	2294691.0677602	2294691.068246	100	del	2294692.122652	2294692.6364901	2294692.6370117	120.0	3.0	2294694.994467
398.4169921875	0.0	40	815958	26	80	365	1	1	2294684.5154954	2294684.5159952	80	2294687.8505468	2294687.8510453	40	2294691.0677602	2294691.068246	100	del	2294692.122652	2294692.6364901	2294692.6370117	120.0	3.0	2294694.994467
401.63427734375	0.0	100	822547	26	80	365	1	1	2294684.5154954	2294684.5159952	80	2294687.8505468	2294687.8510453	40	2294691.0677602	2294691.068246	100	del	2294692.122652	2294692.6364901	2294692.6370117	120.0	3.0	2294694.994467
403.203125	0.0	120	825760	26	80	365	1	1	2294684.5154954	2294684.5159952	80	2294687.8505468	2294687.8510453	40	2294691.0677602	2294691.068246	100	del	2294692.122652	2294692.6364901	2294692.6370117	120.0	3.0	2294694.994467
407.98828125	0.0	80	835560	27	63	30	0	0	2294697.42195	2294697.4224398	80	2294700.7887414	2294700.789179	40	2294704.2869847	2294704.2875022	100	del	2294706.667763	nan	nan	nan	nan	nan
411.35498046875	0.0	40	842455	27	63	30	0	0	2294697.42195	2294697.4224398	80	2294700.7887414	2294700.789179	40	2294704.2869847	2294704.2875022	100	del	2294706.667763	nan	nan	nan	nan	nan
414.85302734375	0.0	100	849619	27	63	30	0	0	2294697.42195	2294697.4224398	80	2294700.7887414	2294700.789179	40	2294704.2869847	2294704.2875022	100	del	2294706.667763	nan	nan	nan	nan	nan
420.02001953125	0.0	80	860201	28	73	90	0	0	2294709.4540248	2294709.4544982	80	2294712.6241045	2294712.6245929	40	2294715.6908787	2294715.6914454	100	del	2294718.1298394	nan	nan	nan	nan	nan
423.18994140625	0.0	40	866693	28	73	90	0	0	2294709.4540248	2294709.4544982	80	2294712.6241045	2294712.6245929	40	2294715.6908787	2294715.6914454	100	del	2294718.1298394	nan	nan	nan	nan	nan
426.2568359375	0.0	100	872974	28	73	90	0	0	2294709.4540248	2294709.4544982	80	2294712.6241045	2294712.6245929	40	2294715.6908787	2294715.6914454	100	del	2294718.1298394	nan	nan	nan	nan	nan
431.51953125	0.0	80	883752	29	60	30	0	0	2294720.9539003	2294720.9543737	80	2294724.3510405	2294724.3514804	40	2294727.5766224	2294727.5771484	100	del	2294728.7299108	nan	nan	nan	nan	nan
434.9169921875	0.0	40	890710	29	60	30	0	0	2294720.9539003	2294720.9543737	80	2294724.3510405	2294724.3514804	40	2294727.5766224	2294727.5771484	100	del	2294728.7299108	nan	nan	nan	nan	nan
438.14208984375	0.0	100	897315	29	60	30	0	0	2294720.9539003	2294720.9543737	80	2294724.3510405	2294724.3514804	40	2294727.5766224	2294727.5771484	100	del	2294728.7299108	nan	nan	nan	nan	nan
441.857421875	0.0	80	904924	30	60	90	0	1	2294731.2915614	2294731.2917451	80	2294734.4320853	2294734.4325451	40	2294737.5219268	2294737.5227472	100	imm	2294738.0578885	nan	nan	nan	nan	nan
444.99755859375	0.0	40	911355	30	60	90	0	1	2294731.2915614	2294731.2917451	80	2294734.4320853	2294734.4325451	40	2294737.5219268	2294737.5227472	100	imm	2294738.0578885	nan	nan	nan	nan	nan
448.0869140625	0.0	100	917682	30	60	90	0	1	2294731.2915614	2294731.2917451	80	2294734.4320853	2294734.4325451	40	2294737.5219268	2294737.5227472	100	imm	2294738.0578885	nan	nan	nan	nan	nan
451.28173828125	0.0	80	924225	31	60	510	0	1	2294740.7166261	2294740.7170382	80	2294743.9442651	2294743.9447422	40	2294747.2211351	2294747.2217605	100	imm	2294748.2584106	nan	nan	nan	nan	nan
454.50927734375	0.0	40	930835	31	60	510	0	1	2294740.7166261	2294740.7170382	80	2294743.9442651	2294743.9447422	40	2294747.2211351	2294747.2217605	100	imm	2294748.2584106	nan	nan	nan	nan	nan
457.78662109375	0.0	100	937547	31	60	510	0	1	2294740.7166261	2294740.7170382	80	2294743.9442651	2294743.9447422	40	2294747.2211351	2294747.2217605	100	imm	2294748.2584106	nan	nan	nan	nan	nan
461.5703125	0.0	80	945296	32	53	40	1	1	2294751.0052534	2294751.0059069	80	2294754.4506316	2294754.4511322	40	2294757.7231763	2294757.723665	100	del	2294761.0104221	2294761.5248808	2294761.5253452	120.0	3.0	2294764.650559
465.015625	0.0	40	952352	32	53	40	1	1	2294751.0052534	2294751.0059069	80	2294754.4506316	2294754.4511322	40	2294757.7231763	2294757.723665	100	del	2294761.0104221	2294761.5248808	2294761.5253452	120.0	3.0	2294764.650559
468.2880859375	0.0	100	959054	32	53	40	1	1	2294751.0052534	2294751.0059069	80	2294754.4506316	2294754.4511322	40	2294757.7231763	2294757.723665	100	del	2294761.0104221	2294761.5248808	2294761.5253452	120.0	3.0	2294764.650559
472.08984375	0.0	120	966840	32	53	40	1	1	2294751.0052534	2294751.0059069	80	2294754.4506316	2294754.4511322	40	2294757.7231763	2294757.723665	100	del	2294761.0104221	2294761.5248808	2294761.5253452	120.0	3.0	2294764.650559
477.70361328125	0.0	80	978337	33	93	40	1	0	2294767.1388442	2294767.1393276	80	2294770.4653694	2294770.4658157	40	2294773.9582201	2294773.9586982	100	del	2294775.0984614	2294775.6119274	2294775.6124917	120.0	3.0	2294777.2986144
481.02978515625	0.0	40	985149	33	93	40	1	0	2294767.1388442	2294767.1393276	80	2294770.4653694	2294770.4658157	40	2294773.9582201	2294773.9586982	100	del	2294775.0984614	2294775.6119274	2294775.6124917	120.0	3.0	2294777.2986144
484.52294921875	0.0	100	992303	33	93	40	1	0	2294767.1388442	2294767.1393276	80	2294770.4653694	2294770.4658157	40	2294773.9582201	2294773.9586982	100	del	2294775.0984614	2294775.6119274	2294775.6124917	120.0	3.0	2294777.2986144
486.17626953125	0.0	120	995689	33	93	40	1	0	2294767.1388442	2294767.1393276	80	2294770.4653694	2294770.4658157	40	2294773.9582201	2294773.9586982	100	del	2294775.0984614	2294775.6119274	2294775.6124917	120.0	3.0	2294777.2986144
489.99560546875	0.0	80	1003511	34	63	40	1	0	2294779.4308444	2294779.4310775	80	2294782.7761752	2294782.7766642	40	2294785.9343696	2294785.9349254	100	imm	2294789.0575456	2294789.572036	2294789.5725086	120.0	2.0	2294791.258012
493.34033203125	0.0	40	1010361	34	63	40	1	0	2294779.4308444	2294779.4310775	80	2294782.7761752	2294782.7766642	40	2294785.9343696	2294785.9349254	100	imm	2294789.0575456	2294789.572036	2294789.5725086	120.0	2.0	2294791.258012
496.49853515625	0.0	100	1016829	34	63	40	1	0	2294779.4308444	2294779.4310775	80	2294782.7761752	2294782.7766642	40	2294785.9343696	2294785.9349254	100	imm	2294789.0575456	2294789.572036	2294789.5725086	120.0	2.0	2294791.258012
500.13623046875	0.0	120	1024279	34	63	40	1	0	2294779.4308444	2294779.4310775	80	2294782.7761752	2294782.7766642	40	2294785.9343696	2294785.9349254	100	imm	2294789.0575456	2294789.572036	2294789.5725086	120.0	2.0	2294791.258012
504.1748046875	0.0	80	1032550	35	67	40	1	0	2294793.6108176	2294793.6113153	80	2294796.9660792	2294796.9665884	40	2294800.0132342	2294800.0136886	100	na	2294803.0341112	2294803.5442438	2294803.5446551	120.0	1.0	2294805.9061215
507.5302734375	0.0	40	1039422	35	67	40	1	0	2294793.6108176	2294793.6113153	80	2294796.9660792	2294796.9665884	40	2294800.0132342	2294800.0136886	100	na	2294803.0341112	2294803.5442438	2294803.5446551	120.0	1.0	2294805.9061215
510.5771484375	0.0	100	1045662	35	67	40	1	0	2294793.6108176	2294793.6113153	80	2294796.9660792	2294796.9665884	40	2294800.0132342	2294800.0136886	100	na	2294803.0341112	2294803.5442438	2294803.5446551	120.0	1.0	2294805.9061215
514.10791015625	0.0	120	1052893	35	67	40	1	0	2294793.6108176	2294793.6113153	80	2294796.9660792	2294796.9665884	40	2294800.0132342	2294800.0136886	100	na	2294803.0341112	2294803.5442438	2294803.5446551	120.0	1.0	2294805.9061215
518.6142578125	0.0	80	1062122	36	57	90	0	1	2294808.0505491	2294808.0510271	80	2294811.1683237	2294811.1685948	40	2294814.5162359	2294814.516755	100	imm	2294817.7377708	nan	nan	nan	nan	nan
521.73193359375	0.0	40	1068507	36	57	90	0	1	2294808.0505491	2294808.0510271	80	2294811.1683237	2294811.1685948	40	2294814.5162359	2294814.516755	100	imm	2294817.7377708	nan	nan	nan	nan	nan
525.07958984375	0.0	100	1075363	36	57	90	0	1	2294808.0505491	2294808.0510271	80	2294811.1683237	2294811.1685948	40	2294814.5162359	2294814.516755	100	imm	2294817.7377708	nan	nan	nan	nan	nan
531.24169921875	0.0	80	1087983	37	70	260	0	0	2294820.6783611	2294820.6788613	80	2294823.8589644	2294823.8594035	40	2294827.2622717	2294827.2627662	100	imm	2294829.6590658	nan	nan	nan	nan	nan
534.42236328125	0.0	40	1094497	37	70	260	0	0	2294820.6783611	2294820.6788613	80	2294823.8589644	2294823.8594035	40	2294827.2622717	2294827.2627662	100	imm	2294829.6590658	nan	nan	nan	nan	nan
537.82568359375	0.0	100	1101467	37	70	260	0	0	2294820.6783611	2294820.6788613	80	2294823.8589644	2294823.8594035	40	2294827.2622717	2294827.2627662	100	imm	2294829.6590658	nan	nan	nan	nan	nan
543.078125	0.0	80	1112224	38	63	175	1	1	2294832.5151899	2294832.5156953	80	2294835.5262057	2294835.5266409	40	2294838.8430302	2294838.8435191	100	imm	2294840.9380295	2294841.451425	2294841.4519266	120.0	2.0	2294843.3872083
546.08935546875	0.0	40	1118391	38	63	175	1	1	2294832.5151899	2294832.5156953	80	2294835.5262057	2294835.5266409	40	2294838.8430302	2294838.8435191	100	imm	2294840.9380295	2294841.451425	2294841.4519266	120.0	2.0	2294843.3872083
549.40576171875	0.0	100	1125183	38	63	175	1	1	2294832.5151899	2294832.5156953	80	2294835.5262057	2294835.5266409	40	2294838.8430302	2294838.8435191	100	imm	2294840.9380295	2294841.451425	2294841.4519266	120.0	2.0	2294843.3872083
552.01416015625	0.0	120	1130525	38	63	175	1	1	2294832.5151899	2294832.5156953	80	2294835.5262057	2294835.5266409	40	2294838.8430302	2294838.8435191	100	imm	2294840.9380295	2294841.451425	2294841.4519266	120.0	2.0	2294843.3872083
556.1591796875	0.0	80	1139014	39	80	510	0	0	2294845.5961496	2294845.5967107	80	2294849.0621823	2294849.0626164	40	2294852.0759092	2294852.0764781	100	imm	2294853.0178432	nan	nan	nan	nan	nan
559.625	0.0	40	1146112	39	80	510	0	0	2294845.5961496	2294845.5967107	80	2294849.0621823	2294849.0626164	40	2294852.0759092	2294852.0764781	100	imm	2294853.0178432	nan	nan	nan	nan	nan
562.638671875	0.0	100	1152284	39	80	510	0	0	2294845.5961496	2294845.5967107	80	2294849.0621823	2294849.0626164	40	2294852.0759092	2294852.0764781	100	imm	2294853.0178432	nan	nan	nan	nan	nan
566.330078125	0.0	80	1159844	40	83	40	1	1	2294855.7673674	2294855.7678779	80	2294858.9875035	2294858.9879614	40	2294862.231543	2294862.2320184	100	del	2294863.1554621	2294863.6694444	2294863.6700793	120.0	1.0	2294866.3376808
569.5498046875	0.0	40	1166438	40	83	40	1	1	2294855.7673674	2294855.7678779	80	2294858.9875035	2294858.9879614	40	2294862.231543	2294862.2320184	100	del	2294863.1554621	2294863.6694444	2294863.6700793	120.0	1.0	2294866.3376808
572.7939453125	0.0	100	1173082	40	83	40	1	1	2294855.7673674	2294855.7678779	80	2294858.9875035	2294858.9879614	40	2294862.231543	2294862.2320184	100	del	2294863.1554621	2294863.6694444	2294863.6700793	120.0	1.0	2294866.3376808
574.23193359375	0.0	120	1176027	40	83	40	1	1	2294855.7673674	2294855.7678779	80	2294858.9875035	2294858.9879614	40	2294862.231543	2294862.2320184	100	del	2294863.1554621	2294863.6694444	2294863.6700793	120.0	1.0	2294866.3376808
600.74365234375	0.0	80	1230323	41	90	260	0	0	2294890.1822527	2294890.1827547	80	2294893.3510437	2294893.3515255	40	2294896.7567384	2294896.7571898	100	imm	2294899.7956565	nan	nan	nan	nan	nan
603.91259765625	0.0	40	1236813	41	90	260	0	0	2294890.1822527	2294890.1827547	80	2294893.3510437	2294893.3515255	40	2294896.7567384	2294896.7571898	100	imm	2294899.7956565	nan	nan	nan	nan	nan
607.318359375	0.0	100	1243788	41	90	260	0	0	2294890.1822527	2294890.1827547	80	2294893.3510437	2294893.3515255	40	2294896.7567384	2294896.7571898	100	imm	2294899.7956565	nan	nan	nan	nan	nan
613.111328125	0.0	80	1255652	42	87	90	0	1	2294902.549953	2294902.5504103	80	2294905.5755636	2294905.5760252	40	2294908.6769558	2294908.6774848	100	del	2294910.0018152	nan	nan	nan	nan	nan
616.13671875	0.0	40	1261848	42	87	90	0	1	2294902.549953	2294902.5504103	80	2294905.5755636	2294905.5760252	40	2294908.6769558	2294908.6774848	100	del	2294910.0018152	nan	nan	nan	nan	nan
619.23828125	0.0	100	1268200	42	87	90	0	1	2294902.549953	2294902.5504103	80	2294905.5755636	2294905.5760252	40	2294908.6769558	2294908.6774848	100	del	2294910.0018152	nan	nan	nan	nan	nan
623.44189453125	0.0	80	1276809	43	50	260	0	0	2294912.8806188	2294912.8811004	80	2294916.1249359	2294916.1253872	40	2294919.2144465	2294919.2149405	100	imm	2294919.9457195	nan	nan	nan	nan	nan
626.68603515625	0.0	40	1283453	43	50	260	0	0	2294912.8806188	2294912.8811004	80	2294916.1249359	2294916.1253872	40	2294919.2144465	2294919.2149405	100	imm	2294919.9457195	nan	nan	nan	nan	nan
629.775390625	0.0	100	1289780	43	50	260	0	0	2294912.8806188	2294912.8811004	80	2294916.1249359	2294916.1253872	40	2294919.2144465	2294919.2149405	100	imm	2294919.9457195	nan	nan	nan	nan	nan
633.1953125	0.0	80	1296784	44	93	700	1	1	2294922.6341222	2294922.6348159	80	2294925.9457213	2294925.9462139	40	2294929.0550996	2294929.0555842	100	del	2294930.4573478	2294930.9713793	2294930.9718453	120.0	2.0	2294932.962595
636.50634765625	0.0	40	1303565	44	93	700	1	1	2294922.6341222	2294922.6348159	80	2294925.9457213	2294925.9462139	40	2294929.0550996	2294929.0555842	100	del	2294930.4573478	2294930.9713793	2294930.9718453	120.0	2.0	2294932.962595
639.61572265625	0.0	100	1309933	44	93	700	1	1	2294922.6341222	2294922.6348159	80	2294925.9457213	2294925.9462139	40	2294929.0550996	2294929.0555842	100	del	2294930.4573478	2294930.9713793	2294930.9718453	120.0	2.0	2294932.962595
641.5322265625	0.0	120	1313858	44	93	700	1	1	2294922.6341222	2294922.6348159	80	2294925.9457213	2294925.9462139	40	2294929.0550996	2294929.0555842	100	del	2294930.4573478	2294930.9713793	2294930.9718453	120.0	2.0	2294932.962595
645.908203125	0.0	80	1322820	45	57	30	0	1	2294935.3473506	2294935.34788	80	2294938.4773545	2294938.4778562	40	2294941.9488831	2294941.9493738	100	imm	2294946.8333711	nan	nan	nan	nan	nan
649.03759765625	0.0	40	1329229	45	57	30	0	1	2294935.3473506	2294935.34788	80	2294938.4773545	2294938.4778562	40	2294941.9488831	2294941.9493738	100	imm	2294946.8333711	nan	nan	nan	nan	nan
652.50927734375	0.0	100	1336339	45	57	30	0	1	2294935.3473506	2294935.34788	80	2294938.4773545	2294938.4778562	40	2294941.9488831	2294941.9493738	100	imm	2294946.8333711	nan	nan	nan	nan	nan
660.046875	0.0	80	1351776	46	97	40	1	1	2294949.4866537	2294949.487139	80	2294952.8769577	2294952.8773676	40	2294955.9848512	2294955.9853375	100	del	2294957.6740145	2294958.1839833	2294958.1842969	120.0	2.0	2294960.0812798
663.43701171875	0.0	40	1358719	46	97	40	1	1	2294949.4866537	2294949.487139	80	2294952.8769577	2294952.8773676	40	2294955.9848512	2294955.9853375	100	del	2294957.6740145	2294958.1839833	2294958.1842969	120.0	2.0	2294960.0812798
666.544921875	0.0	100	1365084	46	97	40	1	1	2294949.4866537	2294949.487139	80	2294952.8769577	2294952.8773676	40	2294955.9848512	2294955.9853375	100	del	2294957.6740145	2294958.1839833	2294958.1842969	120.0	2.0	2294960.0812798
668.74365234375	0.0	120	1369587	46	97	40	1	1	2294949.4866537	2294949.487139	80	2294952.8769577	2294952.8773676	40	2294955.9848512	2294955.9853375	100	del	2294957.6740145	2294958.1839833	2294958.1842969	120.0	2.0	2294960.0812798
672.80224609375	0.0	80	1377899	47	53	90	0	0	2294962.2424536	2294962.2429053	80	2294965.2956284	2294965.2960893	40	2294968.5984336	2294968.5989644	100	na	2294971.7140304	nan	nan	nan	nan	nan
675.85546875	0.0	40	1384152	47	53	90	0	0	2294962.2424536	2294962.2429053	80	2294965.2956284	2294965.2960893	40	2294968.5984336	2294968.5989644	100	na	2294971.7140304	nan	nan	nan	nan	nan
679.158203125	0.0	100	1390916	47	53	90	0	0	2294962.2424536	2294962.2429053	80	2294965.2956284	2294965.2960893	40	2294968.5984336	2294968.5989644	100	na	2294971.7140304	nan	nan	nan	nan	nan
685.1328125	0.0	80	1403152	48	80	30	0	0	2294974.5732189	2294974.5736928	80	2294977.8535323	2294977.8539824	40	2294981.082733	2294981.0832409	100	imm	2294982.0334632	nan	nan	nan	nan	nan
688.4130859375	0.0	40	1409870	48	80	30	0	0	2294974.5732189	2294974.5736928	80	2294977.8535323	2294977.8539824	40	2294981.082733	2294981.0832409	100	imm	2294982.0334632	nan	nan	nan	nan	nan
691.64208984375	0.0	100	1416483	48	80	30	0	0	2294974.5732189	2294974.5736928	80	2294977.8535323	2294977.8539824	40	2294981.082733	2294981.0832409	100	imm	2294982.0334632	nan	nan	nan	nan	nan
695.4326171875	0.0	80	1424246	49	70	40	1	0	2294984.873209	2294984.8736889	80	2294988.204412	2294988.2049136	40	2294991.5566827	2294991.5572082	100	del	2294992.6427246	2294993.1556431	2294993.1561523	120.0	2.0	2294995.5949452
698.763671875	0.0	40	1431068	49	70	40	1	0	2294984.873209	2294984.8736889	80	2294988.204412	2294988.2049136	40	2294991.5566827	2294991.5572082	100	del	2294992.6427246	2294993.1556431	2294993.1561523	120.0	2.0	2294995.5949452
702.11572265625	0.0	100	1437933	49	70	40	1	0	2294984.873209	2294984.8736889	80	2294988.204412	2294988.2049136	40	2294991.5566827	2294991.5572082	100	del	2294992.6427246	2294993.1556431	2294993.1561523	120.0	2.0	2294995.5949452
703.71484375	0.0	120	1441208	49	70	40	1	0	2294984.873209	2294984.8736889	80	2294988.204412	2294988.2049136	40	2294991.5566827	2294991.5572082	100	del	2294992.6427246	2294993.1556431	2294993.1561523	120.0	2.0	2294995.5949452
708.48779296875	0.0	80	1450983	50	97	90	0	1	2294997.9289116	2294997.9294202	80	2295001.4100072	2295001.4105013	40	2295004.5281524	2295004.5287067	100	del	2295007.5934638	nan	nan	nan	nan	nan
711.96875	0.0	40	1458112	50	97	90	0	1	2294997.9289116	2294997.9294202	80	2295001.4100072	2295001.4105013	40	2295004.5281524	2295004.5287067	100	del	2295007.5934638	nan	nan	nan	nan	nan
715.0869140625	0.0	100	1464498	50	97	90	0	1	2294997.9289116	2294997.9294202	80	2295001.4100072	2295001.4105013	40	2295004.5281524	2295004.5287067	100	del	2295007.5934638	nan	nan	nan	nan	nan
721.025390625	0.0	80	1476660	51	57	510	0	0	2295010.4668399	2295010.4673294	80	2295013.5930072	2295013.5934879	40	2295016.6662688	2295016.6667598	100	imm	2295017.5617437	nan	nan	nan	nan	nan
724.1513671875	0.0	40	1483062	51	57	510	0	0	2295010.4668399	2295010.4673294	80	2295013.5930072	2295013.5934879	40	2295016.6662688	2295016.6667598	100	imm	2295017.5617437	nan	nan	nan	nan	nan
727.224609375	0.0	100	1489356	51	57	510	0	0	2295010.4668399	2295010.4673294	80	2295013.5930072	2295013.5934879	40	2295016.6662688	2295016.6667598	100	imm	2295017.5617437	nan	nan	nan	nan	nan
730.9423828125	0.0	80	1496970	52	93	175	1	1	2295020.3840515	2295020.384553	80	2295023.6170457	2295023.6176148	40	2295026.8581403	2295026.8586731	100	del	2295028.8655135	2295029.3793236	2295029.3797909	120.0	3.0	2295031.8976727
734.17529296875	0.0	40	1503591	52	93	175	1	1	2295020.3840515	2295020.384553	80	2295023.6170457	2295023.6176148	40	2295026.8581403	2295026.8586731	100	del	2295028.8655135	2295029.3793236	2295029.3797909	120.0	3.0	2295031.8976727
737.41650390625	0.0	100	1510229	52	93	175	1	1	2295020.3840515	2295020.384553	80	2295023.6170457	2295023.6176148	40	2295026.8581403	2295026.8586731	100	del	2295028.8655135	2295029.3793236	2295029.3797909	120.0	3.0	2295031.8976727
739.9375	0.0	120	1515392	52	93	175	1	1	2295020.3840515	2295020.384553	80	2295023.6170457	2295023.6176148	40	2295026.8581403	2295026.8586731	100	del	2295028.8655135	2295029.3793236	2295029.3797909	120.0	3.0	2295031.8976727
744.80322265625	0.0	80	1525357	53	97	11	1	1	2295034.2447153	2295034.2453884	80	2295037.6377135	2295037.6381772	40	2295040.8208343	2295040.8210774	100	del	2295043.7853491	2295044.2959923	2295044.2963132	120.0	3.0	2295045.9140562
748.19580078125	0.0	40	1532305	53	97	11	1	1	2295034.2447153	2295034.2453884	80	2295037.6377135	2295037.6381772	40	2295040.8208343	2295040.8210774	100	del	2295043.7853491	2295044.2959923	2295044.2963132	120.0	3.0	2295045.9140562
751.37939453125	0.0	100	1538825	53	97	11	1	1	2295034.2447153	2295034.2453884	80	2295037.6377135	2295037.6381772	40	2295040.8208343	2295040.8210774	100	del	2295043.7853491	2295044.2959923	2295044.2963132	120.0	3.0	2295045.9140562
754.853515625	0.0	120	1545940	53	97	11	1	1	2295034.2447153	2295034.2453884	80	2295037.6377135	2295037.6381772	40	2295040.8208343	2295040.8210774	100	del	2295043.7853491	2295044.2959923	2295044.2963132	120.0	3.0	2295045.9140562
758.81884765625	0.0	80	1554061	54	80	175	1	1	2295048.2611725	2295048.2616233	80	2295051.4783379	2295051.4787258	40	2295054.912297	2295054.9128052	100	del	2295056.1134432	2295056.627274	2295056.6278304	120.0	3.0	2295058.8418934
762.0361328125	0.0	40	1560650	54	80	175	1	1	2295048.2611725	2295048.2616233	80	2295051.4783379	2295051.4787258	40	2295054.912297	2295054.9128052	100	del	2295056.1134432	2295056.627274	2295056.6278304	120.0	3.0	2295058.8418934
765.4697265625	0.0	100	1567682	54	80	175	1	1	2295048.2611725	2295048.2616233	80	2295051.4783379	2295051.4787258	40	2295054.912297	2295054.9128052	100	del	2295056.1134432	2295056.627274	2295056.6278304	120.0	3.0	2295058.8418934
767.18505859375	0.0	120	1571195	54	80	175	1	1	2295048.2611725	2295048.2616233	80	2295051.4783379	2295051.4787258	40	2295054.912297	2295054.9128052	100	del	2295056.1134432	2295056.627274	2295056.6278304	120.0	3.0	2295058.8418934
771.83203125	0.0	80	1580712	55	67	11	1	0	2295061.2745361	2295061.2750426	80	2295064.4105163	2295064.4110632	40	2295067.7306424	2295067.7311136	100	imm	2295069.47338	2295069.9872376	2295069.9877615	120.0	2.0	2295071.8177612
774.9677734375	0.0	40	1587134	55	67	11	1	0	2295061.2745361	2295061.2750426	80	2295064.4105163	2295064.4110632	40	2295067.7306424	2295067.7311136	100	imm	2295069.47338	2295069.9872376	2295069.9877615	120.0	2.0	2295071.8177612
778.2880859375	0.0	100	1593934	55	67	11	1	0	2295061.2745361	2295061.2750426	80	2295064.4105163	2295064.4110632	40	2295067.7306424	2295067.7311136	100	imm	2295069.47338	2295069.9872376	2295069.9877615	120.0	2.0	2295071.8177612
780.54443359375	0.0	120	1598555	55	67	11	1	0	2295061.2745361	2295061.2750426	80	2295064.4105163	2295064.4110632	40	2295067.7306424	2295067.7311136	100	imm	2295069.47338	2295069.9872376	2295069.9877615	120.0	2.0	2295071.8177612
784.68212890625	0.0	80	1607029	56	90	30	0	1	2295074.1251841	2295074.1257062	80	2295077.4038105	2295077.4043357	40	2295080.8519222	2295080.8524384	100	del	2295083.7865541	nan	nan	nan	nan	nan
787.9609375	0.0	40	1613744	56	90	30	0	1	2295074.1251841	2295074.1257062	80	2295077.4038105	2295077.4043357	40	2295080.8519222	2295080.8524384	100	del	2295083.7865541	nan	nan	nan	nan	nan
791.40869140625	0.0	100	1620805	56	90	30	0	1	2295074.1251841	2295074.1257062	80	2295077.4038105	2295077.4043357	40	2295080.8519222	2295080.8524384	100	del	2295083.7865541	nan	nan	nan	nan	nan
796.994140625	0.0	80	1632244	57	77	970	0	1	2295086.4373452	2295086.4378106	80	2295089.60396	2295089.6043736	40	2295092.676321	2295092.6767872	100	imm	2295093.6416384	nan	nan	nan	nan	nan
800.16064453125	0.0	40	1638729	57	77	970	0	1	2295086.4373452	2295086.4378106	80	2295089.60396	2295089.6043736	40	2295092.676321	2295092.6767872	100	imm	2295093.6416384	nan	nan	nan	nan	nan
803.23291015625	0.0	100	1645021	57	77	970	0	1	2295086.4373452	2295086.4378106	80	2295089.60396	2295089.6043736	40	2295092.676321	2295092.6767872	100	imm	2295093.6416384	nan	nan	nan	nan	nan
807.1865234375	0.0	80	1653118	58	77	260	0	1	2295096.6298085	2295096.6304333	80	2295099.9605812	2295099.9610864	40	2295103.2076442	2295103.2078984	100	imm	2295104.9222986	nan	nan	nan	nan	nan
810.51708984375	0.0	40	1659939	58	77	260	0	1	2295096.6298085	2295096.6304333	80	2295099.9605812	2295099.9610864	40	2295103.2076442	2295103.2078984	100	imm	2295104.9222986	nan	nan	nan	nan	nan
813.763671875	0.0	100	1666588	58	77	260	0	1	2295096.6298085	2295096.6304333	80	2295099.9605812	2295099.9610864	40	2295103.2076442	2295103.2078984	100	imm	2295104.9222986	nan	nan	nan	nan	nan
818.314453125	0.0	80	1675908	59	83	970	0	1	2295107.7581811	2295107.7586708	80	2295111.03832	2295111.0388076	40	2295114.3750815	2295114.3755237	100	imm	2295115.8264979	nan	nan	nan	nan	nan
821.5947265625	0.0	40	1682626	59	83	970	0	1	2295107.7581811	2295107.7586708	80	2295111.03832	2295111.0388076	40	2295114.3750815	2295114.3755237	100	imm	2295115.8264979	nan	nan	nan	nan	nan
824.93115234375	0.0	100	1689459	59	83	970	0	1	2295107.7581811	2295107.7586708	80	2295111.03832	2295111.0388076	40	2295114.3750815	2295114.3755237	100	imm	2295115.8264979	nan	nan	nan	nan	nan
829.1728515625	0.0	80	1698146	60	83	90	0	1	2295118.6166185	2295118.6171105	80	2295121.9848193	2295121.9853493	40	2295125.259378	2295125.2599049	100	imm	2295126.8573597	nan	nan	nan	nan	nan
832.541015625	0.0	40	1705044	60	83	90	0	1	2295118.6166185	2295118.6171105	80	2295121.9848193	2295121.9853493	40	2295125.259378	2295125.2599049	100	imm	2295126.8573597	nan	nan	nan	nan	nan
835.8154296875	0.0	100	1711750	60	83	90	0	1	2295118.6166185	2295118.6171105	80	2295121.9848193	2295121.9853493	40	2295125.259378	2295125.2599049	100	imm	2295126.8573597	nan	nan	nan	nan	nan
857.65283203125	0.0	80	1756473	61	87	970	0	0	2295147.0976425	2295147.0980937	80	2295150.2153795	2295150.2159498	40	2295153.282279	2295153.2828086	100	imm	2295154.281612	nan	nan	nan	nan	nan
860.7705078125	0.0	40	1762858	61	87	970	0	0	2295147.0976425	2295147.0980937	80	2295150.2153795	2295150.2159498	40	2295153.282279	2295153.2828086	100	imm	2295154.281612	nan	nan	nan	nan	nan
863.83740234375	0.0	100	1769139	61	87	970	0	0	2295147.0976425	2295147.0980937	80	2295150.2153795	2295150.2159498	40	2295153.282279	2295153.2828086	100	imm	2295154.281612	nan	nan	nan	nan	nan
867.40869140625	0.0	80	1776453	62	100	40	1	0	2295156.8536635	2295156.8541632	80	2295159.8936396	2295159.8941399	40	2295163.1098386	2295163.1103225	100	del	2295164.0425836	2295164.555649	2295164.5562317	120.0	2.0	2295166.225017
870.44873046875	0.0	40	1782679	62	100	40	1	0	2295156.8536635	2295156.8541632	80	2295159.8936396	2295159.8941399	40	2295163.1098386	2295163.1103225	100	del	2295164.0425836	2295164.555649	2295164.5562317	120.0	2.0	2295166.225017
873.66455078125	0.0	100	1789265	62	100	40	1	0	2295156.8536635	2295156.8541632	80	2295159.8936396	2295159.8941399	40	2295163.1098386	2295163.1103225	100	del	2295164.0425836	2295164.555649	2295164.5562317	120.0	2.0	2295166.225017
875.11083984375	0.0	120	1792227	62	100	40	1	0	2295156.8536635	2295156.8541632	80	2295159.8936396	2295159.8941399	40	2295163.1098386	2295163.1103225	100	del	2295164.0425836	2295164.555649	2295164.5562317	120.0	2.0	2295166.225017
879.0205078125	0.0	80	1800234	63	73	40	1	0	2295168.4659387	2295168.4664358	80	2295171.6577426	2295171.6582427	40	2295175.0526947	2295175.0531741	100	imm	2295176.9535899	2295177.4669047	2295177.4673668	120.0	3.0	2295179.2489497
882.21240234375	0.0	40	1806771	63	73	40	1	0	2295168.4659387	2295168.4664358	80	2295171.6577426	2295171.6582427	40	2295175.0526947	2295175.0531741	100	imm	2295176.9535899	2295177.4669047	2295177.4673668	120.0	3.0	2295179.2489497
885.607421875	0.0	100	1813724	63	73	40	1	0	2295168.4659387	2295168.4664358	80	2295171.6577426	2295171.6582427	40	2295175.0526947	2295175.0531741	100	imm	2295176.9535899	2295177.4669047	2295177.4673668	120.0	3.0	2295179.2489497
888.021484375	0.0	120	1818668	63	73	40	1	0	2295168.4659387	2295168.4664358	80	2295171.6577426	2295171.6582427	40	2295175.0526947	2295175.0531741	100	imm	2295176.9535899	2295177.4669047	2295177.4673668	120.0	3.0	2295179.2489497
892.13427734375	0.0	80	1827091	64	93	970	0	1	2295181.5800273	2295181.5804419	80	2295184.9740165	2295184.9744246	40	2295188.453302	2295188.4537668	100	imm	2295189.5610472	nan	nan	nan	nan	nan
895.5283203125	0.0	40	1834042	64	93	970	0	1	2295181.5800273	2295181.5804419	80	2295184.9740165	2295184.9744246	40	2295188.453302	2295188.4537668	100	imm	2295189.5610472	nan	nan	nan	nan	nan
899.0078125	0.0	100	1841168	64	93	970	0	1	2295181.5800273	2295181.5804419	80	2295184.9740165	2295184.9744246	40	2295188.453302	2295188.4537668	100	imm	2295189.5610472	nan	nan	nan	nan	nan
903.1201171875	0.0	80	1849590	65	70	700	1	1	2295192.5660295	2295192.5664892	80	2295195.6710023	2295195.6715335	40	2295198.7557784	2295198.7562928	100	del	2295199.6887515	2295200.2041081	2295200.2045881	120.0	2.0	2295202.2256771
906.22509765625	0.0	40	1855949	65	70	700	1	1	2295192.5660295	2295192.5664892	80	2295195.6710023	2295195.6715335	40	2295198.7557784	2295198.7562928	100	del	2295199.6887515	2295200.2041081	2295200.2045881	120.0	2.0	2295202.2256771
909.31005859375	0.0	100	1862267	65	70	700	1	1	2295192.5660295	2295192.5664892	80	2295195.6710023	2295195.6715335	40	2295198.7557784	2295198.7562928	100	del	2295199.6887515	2295200.2041081	2295200.2045881	120.0	2.0	2295202.2256771
910.75830078125	0.0	120	1865233	65	70	700	1	1	2295192.5660295	2295192.5664892	80	2295195.6710023	2295195.6715335	40	2295198.7557784	2295198.7562928	100	del	2295199.6887515	2295200.2041081	2295200.2045881	120.0	2.0	2295202.2256771
915.14404296875	0.0	80	1874215	66	67	90	0	1	2295204.5901823	2295204.590643	80	2295207.6444411	2295207.6448857	40	2295210.9207632	2295210.9211848	100	na	2295212.3211004	nan	nan	nan	nan	nan
918.1982421875	0.0	40	1880470	66	67	90	0	1	2295204.5901823	2295204.590643	80	2295207.6444411	2295207.6448857	40	2295210.9207632	2295210.9211848	100	na	2295212.3211004	nan	nan	nan	nan	nan
921.474609375	0.0	100	1887180	66	67	90	0	1	2295204.5901823	2295204.590643	80	2295207.6444411	2295207.6448857	40	2295210.9207632	2295210.9211848	100	na	2295212.3211004	nan	nan	nan	nan	nan
925.658203125	0.0	80	1895748	67	77	30	0	1	2295215.1047206	2295215.1051978	80	2295218.5432449	2295218.5437921	40	2295221.799312	2295221.7998182	100	del	2295225.2569696	nan	nan	nan	nan	nan
929.0966796875	0.0	40	1902790	67	77	30	0	1	2295215.1047206	2295215.1051978	80	2295218.5432449	2295218.5437921	40	2295221.799312	2295221.7998182	100	del	2295225.2569696	nan	nan	nan	nan	nan
932.35302734375	0.0	100	1909459	67	77	30	0	1	2295215.1047206	2295215.1051978	80	2295218.5432449	2295218.5437921	40	2295221.799312	2295221.7998182	100	del	2295225.2569696	nan	nan	nan	nan	nan
938.525390625	0.0	80	1922100	68	80	40	1	0	2295227.97193	2295227.9724186	80	2295231.3150621	2295231.3156749	40	2295234.6989342	2295234.6994447	100	del	2295235.7610146	2295236.2753128	2295236.2758063	120.0	2.0	2295237.5291288
941.8681640625	0.0	40	1928946	68	80	40	1	0	2295227.97193	2295227.9724186	80	2295231.3150621	2295231.3156749	40	2295234.6989342	2295234.6994447	100	del	2295235.7610146	2295236.2753128	2295236.2758063	120.0	2.0	2295237.5291288
945.251953125	0.0	100	1935876	68	80	40	1	0	2295227.97193	2295227.9724186	80	2295231.3150621	2295231.3156749	40	2295234.6989342	2295234.6994447	100	del	2295235.7610146	2295236.2753128	2295236.2758063	120.0	2.0	2295237.5291288
946.82861328125	0.0	120	1939105	68	80	40	1	0	2295227.97193	2295227.9724186	80	2295231.3150621	2295231.3156749	40	2295234.6989342	2295234.6994447	100	del	2295235.7610146	2295236.2753128	2295236.2758063	120.0	2.0	2295237.5291288
950.3603515625	0.0	80	1946338	69	80	11	1	1	2295239.8075764	2295239.8080164	80	2295242.9888564	2295242.9893533	40	2295246.0766949	2295246.0771649	100	imm	2295249.0170788	2295249.5304538	2295249.5309293	120.0	3.0	2295252.4730503
953.5419921875	0.0	40	1952854	69	80	11	1	1	2295239.8075764	2295239.8080164	80	2295242.9888564	2295242.9893533	40	2295246.0766949	2295246.0771649	100	imm	2295249.0170788	2295249.5304538	2295249.5309293	120.0	3.0	2295252.4730503
956.62939453125	0.0	100	1959177	69	80	11	1	1	2295239.8075764	2295239.8080164	80	2295242.9888564	2295242.9893533	40	2295246.0766949	2295246.0771649	100	imm	2295249.0170788	2295249.5304538	2295249.5309293	120.0	3.0	2295252.4730503
960.0830078125	0.0	120	1966250	69	80	11	1	1	2295239.8075764	2295239.8080164	80	2295242.9888564	2295242.9893533	40	2295246.0766949	2295246.0771649	100	imm	2295249.0170788	2295249.5304538	2295249.5309293	120.0	3.0	2295252.4730503
965.33447265625	0.0	80	1977005	70	53	30	0	0	2295254.7819417	2295254.7824074	80	2295257.9201159	2295257.9205669	40	2295260.9557664	2295260.9561897	100	del	2295262.7775994	nan	nan	nan	nan	nan
968.47265625	0.0	40	1983432	70	53	30	0	0	2295254.7819417	2295254.7824074	80	2295257.9201159	2295257.9205669	40	2295260.9557664	2295260.9561897	100	del	2295262.7775994	nan	nan	nan	nan	nan
971.50830078125	0.0	100	1989649	70	53	30	0	0	2295254.7819417	2295254.7824074	80	2295257.9201159	2295257.9205669	40	2295260.9557664	2295260.9561897	100	del	2295262.7775994	nan	nan	nan	nan	nan
976.2255859375	0.0	80	1999310	71	67	970	0	1	2295265.6731065	2295265.6735328	80	2295268.8021249	2295268.8026198	40	2295272.0339214	2295272.0343144	100	imm	2295272.8009202	nan	nan	nan	nan	nan
979.3544921875	0.0	40	2005718	71	67	970	0	1	2295265.6731065	2295265.6735328	80	2295268.8021249	2295268.8026198	40	2295272.0339214	2295272.0343144	100	imm	2295272.8009202	nan	nan	nan	nan	nan
982.5859375	0.0	100	2012336	71	67	970	0	1	2295265.6731065	2295265.6735328	80	2295268.8021249	2295268.8026198	40	2295272.0339214	2295272.0343144	100	imm	2295272.8009202	nan	nan	nan	nan	nan
986.2158203125	0.0	80	2019770	72	63	260	0	0	2295275.6637602	2295275.6642341	80	2295278.8509714	2295278.8514682	40	2295282.2328664	2295282.2333623	100	del	2295283.1696389	nan	nan	nan	nan	nan
989.40283203125	0.0	40	2026297	72	63	260	0	0	2295275.6637602	2295275.6642341	80	2295278.8509714	2295278.8514682	40	2295282.2328664	2295282.2333623	100	del	2295283.1696389	nan	nan	nan	nan	nan
992.78466796875	0.0	100	2033223	72	63	260	0	0	2295275.6637602	2295275.6642341	80	2295278.8509714	2295278.8514682	40	2295282.2328664	2295282.2333623	100	del	2295283.1696389	nan	nan	nan	nan	nan
996.439453125	0.0	80	2040708	73	57	40	1	0	2295285.8875405	2295285.8880081	80	2295289.2367302	2295289.2371777	40	2295292.6019287	2295292.6023824	100	imm	2295293.3144582	2295293.8281637	2295293.8287053	120.0	1.0	2295295.4496015
999.78857421875	0.0	40	2047567	73	57	40	1	0	2295285.8875405	2295285.8880081	80	2295289.2367302	2295289.2371777	40	2295292.6019287	2295292.6023824	100	imm	2295293.3144582	2295293.8281637	2295293.8287053	120.0	1.0	2295295.4496015
1003.15380859375	0.0	100	2054459	73	57	40	1	0	2295285.8875405	2295285.8880081	80	2295289.2367302	2295289.2371777	40	2295292.6019287	2295292.6023824	100	imm	2295293.3144582	2295293.8281637	2295293.8287053	120.0	1.0	2295295.4496015
1004.3798828125	0.0	120	2056970	73	57	40	1	0	2295285.8875405	2295285.8880081	80	2295289.2367302	2295289.2371777	40	2295292.6019287	2295292.6023824	100	imm	2295293.3144582	2295293.8281637	2295293.8287053	120.0	1.0	2295295.4496015
1008.23828125	0.0	80	2064872	74	93	510	0	1	2295297.6867934	2295297.6871877	80	2295300.7047196	2295300.70523	40	2295303.8839352	2295303.884368	100	imm	2295305.2182365	nan	nan	nan	nan	nan
1011.25634765625	0.0	40	2071053	74	93	510	0	1	2295297.6867934	2295297.6871877	80	2295300.7047196	2295300.70523	40	2295303.8839352	2295303.884368	100	imm	2295305.2182365	nan	nan	nan	nan	nan
1014.435546875	0.0	100	2077564	74	93	510	0	1	2295297.6867934	2295297.6871877	80	2295300.7047196	2295300.70523	40	2295303.8839352	2295303.884368	100	imm	2295305.2182365	nan	nan	nan	nan	nan
1018.50048828125	0.0	80	2085889	75	67	510	0	0	2295307.9493059	2295307.9497507	80	2295311.0924963	2295311.0929392	40	2295314.2040009	2295314.204509	100	imm	2295314.7854515	nan	nan	nan	nan	nan
1021.6435546875	0.0	40	2092326	75	67	510	0	0	2295307.9493059	2295307.9497507	80	2295311.0924963	2295311.0929392	40	2295314.2040009	2295314.204509	100	imm	2295314.7854515	nan	nan	nan	nan	nan
1024.75537109375	0.0	100	2098699	75	67	510	0	0	2295307.9493059	2295307.9497507	80	2295311.0924963	2295311.0929392	40	2295314.2040009	2295314.204509	100	imm	2295314.7854515	nan	nan	nan	nan	nan
1028.267578125	0.0	80	2105892	76	77	11	1	1	2295317.7165968	2295317.7170411	80	2295320.9400633	2295320.9405576	40	2295324.3975815	2295324.3980864	100	imm	2295326.2406907	2295326.7544434	2295326.7551702	120.0	2.0	2295329.3544205
1031.4912109375	0.0	40	2112494	76	77	11	1	1	2295317.7165968	2295317.7170411	80	2295320.9400633	2295320.9405576	40	2295324.3975815	2295324.3980864	100	imm	2295326.2406907	2295326.7544434	2295326.7551702	120.0	2.0	2295329.3544205
1034.94873046875	0.0	100	2119575	76	77	11	1	1	2295317.7165968	2295317.7170411	80	2295320.9400633	2295320.9405576	40	2295324.3975815	2295324.3980864	100	imm	2295326.2406907	2295326.7544434	2295326.7551702	120.0	2.0	2295329.3544205
1037.3056640625	0.0	120	2124402	76	77	11	1	1	2295317.7165968	2295317.7170411	80	2295320.9400633	2295320.9405576	40	2295324.3975815	2295324.3980864	100	imm	2295326.2406907	2295326.7544434	2295326.7551702	120.0	2.0	2295329.3544205
1042.1162109375	0.0	80	2134254	77	60	175	1	0	2295331.5653821	2295331.5658286	80	2295334.95776	2295334.958222	40	2295338.16983	2295338.1704719	100	imm	2295339.4100932	2295339.924529	2295339.9250182	120.0	2.0	2295341.4816385
1045.50830078125	0.0	40	2141201	77	60	175	1	0	2295331.5653821	2295331.5658286	80	2295334.95776	2295334.958222	40	2295338.16983	2295338.1704719	100	imm	2295339.4100932	2295339.924529	2295339.9250182	120.0	2.0	2295341.4816385
1048.72021484375	0.0	100	2147779	77	60	175	1	0	2295331.5653821	2295331.5658286	80	2295334.95776	2295334.958222	40	2295338.16983	2295338.1704719	100	imm	2295339.4100932	2295339.924529	2295339.9250182	120.0	2.0	2295341.4816385
1050.47509765625	0.0	120	2151373	77	60	175	1	0	2295331.5653821	2295331.5658286	80	2295334.95776	2295334.958222	40	2295338.16983	2295338.1704719	100	imm	2295339.4100932	2295339.924529	2295339.9250182	120.0	2.0	2295341.4816385
1054.45263671875	0.0	80	2159519	78	73	175	1	0	2295343.9021114	2295343.9025797	80	2295347.2873053	2295347.2877713	40	2295350.4900767	2295350.4906162	100	del	2295351.3368487	2295351.8502426	2295351.850756	120.0	2.0	2295353.4484963
1057.83740234375	0.0	40	2166451	78	73	175	1	0	2295343.9021114	2295343.9025797	80	2295347.2873053	2295347.2877713	40	2295350.4900767	2295350.4906162	100	del	2295351.3368487	2295351.8502426	2295351.850756	120.0	2.0	2295353.4484963
1061.04052734375	0.0	100	2173011	78	73	175	1	0	2295343.9021114	2295343.9025797	80	2295347.2873053	2295347.2877713	40	2295350.4900767	2295350.4906162	100	del	2295351.3368487	2295351.8502426	2295351.850756	120.0	2.0	2295353.4484963
1062.400390625	0.0	120	2175796	78	73	175	1	0	2295343.9021114	2295343.9025797	80	2295347.2873053	2295347.2877713	40	2295350.4900767	2295350.4906162	100	del	2295351.3368487	2295351.8502426	2295351.850756	120.0	2.0	2295353.4484963
1066.12353515625	0.0	80	2183421	79	87	365	1	1	2295355.5735577	2295355.5740184	80	2295358.9762117	2295358.976684	40	2295362.4639601	2295362.4644784	100	del	2295363.7924427	2295364.3071812	2295364.3090416	120.0	2.0	2295366.0656271
1069.5263671875	0.0	40	2190390	79	87	365	1	1	2295355.5735577	2295355.5740184	80	2295358.9762117	2295358.976684	40	2295362.4639601	2295362.4644784	100	del	2295363.7924427	2295364.3071812	2295364.3090416	120.0	2.0	2295366.0656271
1073.01416015625	0.0	100	2197533	79	87	365	1	1	2295355.5735577	2295355.5740184	80	2295358.9762117	2295358.976684	40	2295362.4639601	2295362.4644784	100	del	2295363.7924427	2295364.3071812	2295364.3090416	120.0	2.0	2295366.0656271
1074.85693359375	0.0	120	2201307	79	87	365	1	1	2295355.5735577	2295355.5740184	80	2295358.9762117	2295358.976684	40	2295362.4639601	2295362.4644784	100	del	2295363.7924427	2295364.3071812	2295364.3090416	120.0	2.0	2295366.0656271
1078.794921875	0.0	80	2209372	80	50	365	1	1	2295368.2453043	2295368.2457996	80	2295371.5889438	2295371.5894932	40	2295374.8222872	2295374.8228246	100	del	2295376.5205948	2295377.0342786	2295377.034791	120.0	2.0	2295378.5933134
1082.138671875	0.0	40	2216220	80	50	365	1	1	2295368.2453043	2295368.2457996	80	2295371.5889438	2295371.5894932	40	2295374.8222872	2295374.8228246	100	del	2295376.5205948	2295377.0342786	2295377.034791	120.0	2.0	2295378.5933134
1085.3720703125	0.0	100	2222842	80	50	365	1	1	2295368.2453043	2295368.2457996	80	2295371.5889438	2295371.5894932	40	2295374.8222872	2295374.8228246	100	del	2295376.5205948	2295377.0342786	2295377.034791	120.0	2.0	2295378.5933134
1087.583984375	0.0	120	2227372	80	50	365	1	1	2295368.2453043	2295368.2457996	80	2295371.5889438	2295371.5894932	40	2295374.8222872	2295374.8228246	100	del	2295376.5205948	2295377.0342786	2295377.034791	120.0	2.0	2295378.5933134
1106.7265625	0.0	80	2266576	81	67	365	1	1	2295396.1774923	2295396.1780131	80	2295399.5701733	2295399.5706383	40	2295402.667319	2295402.667852	100	na	2295403.9607404	2295404.4742311	2295404.4747415	120.0	1.0	2295405.4969947
1110.119140625	0.0	40	2273524	81	67	365	1	1	2295396.1774923	2295396.1780131	80	2295399.5701733	2295399.5706383	40	2295402.667319	2295402.667852	100	na	2295403.9607404	2295404.4742311	2295404.4747415	120.0	1.0	2295405.4969947
1113.21630859375	0.0	100	2279867	81	67	365	1	1	2295396.1774923	2295396.1780131	80	2295399.5701733	2295399.5706383	40	2295402.667319	2295402.667852	100	na	2295403.9607404	2295404.4742311	2295404.4747415	120.0	1.0	2295405.4969947
1115.02294921875	0.0	120	2283567	81	67	365	1	1	2295396.1774923	2295396.1780131	80	2295399.5701733	2295399.5706383	40	2295402.667319	2295402.667852	100	na	2295403.9607404	2295404.4742311	2295404.4747415	120.0	1.0	2295405.4969947
1118.49365234375	0.0	80	2290675	82	93	365	1	0	2295407.9443379	2295407.9450686	80	2295411.4475322	2295411.4479858	40	2295414.7186637	2295414.7191964	100	del	2295416.0485913	2295416.5625153	2295416.5630253	120.0	3.0	2295419.9445302
1121.99609375	0.0	40	2297848	82	93	365	1	0	2295407.9443379	2295407.9450686	80	2295411.4475322	2295411.4479858	40	2295414.7186637	2295414.7191964	100	del	2295416.0485913	2295416.5625153	2295416.5630253	120.0	3.0	2295419.9445302
1125.267578125	0.0	100	2304548	82	93	365	1	0	2295407.9443379	2295407.9450686	80	2295411.4475322	2295411.4479858	40	2295414.7186637	2295414.7191964	100	del	2295416.0485913	2295416.5625153	2295416.5630253	120.0	3.0	2295419.9445302
1127.111328125	0.0	120	2308324	82	93	365	1	0	2295407.9443379	2295407.9450686	80	2295411.4475322	2295411.4479858	40	2295414.7186637	2295414.7191964	100	del	2295416.0485913	2295416.5625153	2295416.5630253	120.0	3.0	2295419.9445302
1132.95263671875	0.0	80	2320287	83	100	90	0	1	2295422.4043278	2295422.4048023	80	2295425.7060352	2295425.7063983	40	2295428.7967201	2295428.7972332	100	del	2295430.5608	nan	nan	nan	nan	nan
1136.25439453125	0.0	40	2327049	83	100	90	0	1	2295422.4043278	2295422.4048023	80	2295425.7060352	2295425.7063983	40	2295428.7967201	2295428.7972332	100	del	2295430.5608	nan	nan	nan	nan	nan
1139.34521484375	0.0	100	2333379	83	100	90	0	1	2295422.4043278	2295422.4048023	80	2295425.7060352	2295425.7063983	40	2295428.7967201	2295428.7972332	100	del	2295430.5608	nan	nan	nan	nan	nan
1143.72705078125	0.0	80	2342353	84	83	11	1	0	2295433.1787563	2295433.1792812	80	2295436.389889	2295436.3903512	40	2295439.7781379	2295439.7786455	100	imm	2295441.0807448	2295441.5947479	2295441.5952582	120.0	2.0	2295445.1047451
1146.93798828125	0.0	40	2348929	84	83	11	1	0	2295433.1787563	2295433.1792812	80	2295436.389889	2295436.3903512	40	2295439.7781379	2295439.7786455	100	imm	2295441.0807448	2295441.5947479	2295441.5952582	120.0	2.0	2295445.1047451
1150.326171875	0.0	100	2355868	84	83	11	1	0	2295433.1787563	2295433.1792812	80	2295436.389889	2295436.3903512	40	2295439.7781379	2295439.7786455	100	imm	2295441.0807448	2295441.5947479	2295441.5952582	120.0	2.0	2295445.1047451
1152.142578125	0.0	120	2359588	84	83	11	1	0	2295433.1787563	2295433.1792812	80	2295436.389889	2295436.3903512	40	2295439.7781379	2295439.7786455	100	imm	2295441.0807448	2295441.5947479	2295441.5952582	120.0	2.0	2295445.1047451
1158.08154296875	0.0	80	2371751	85	83	30	0	1	2295447.5336703	2295447.5341441	80	2295450.936383	2295450.9368169	40	2295454.1097004	2295454.1101845	100	na	2295456.3378969	nan	nan	nan	nan	nan
1161.484375	0.0	40	2378720	85	83	30	0	1	2295447.5336703	2295447.5341441	80	2295450.936383	2295450.9368169	40	2295454.1097004	2295454.1101845	100	na	2295456.3378969	nan	nan	nan	nan	nan
1164.6572265625	0.0	100	2385218	85	83	30	0	1	2295447.5336703	2295447.5341441	80	2295450.936383	2295450.9368169	40	2295454.1097004	2295454.1101845	100	na	2295456.3378969	nan	nan	nan	nan	nan
1169.669921875	0.0	80	2395484	86	60	970	0	1	2295459.1223088	2295459.1228351	80	2295462.1755825	2295462.1760717	40	2295465.2453285	2295465.2458093	100	imm	2295465.9045343	nan	nan	nan	nan	nan
1172.72314453125	0.0	40	2401737	86	60	970	0	1	2295459.1223088	2295459.1228351	80	2295462.1755825	2295462.1760717	40	2295465.2453285	2295465.2458093	100	imm	2295465.9045343	nan	nan	nan	nan	nan
1175.79296875	0.0	100	2408024	86	60	970	0	1	2295459.1223088	2295459.1228351	80	2295462.1755825	2295462.1760717	40	2295465.2453285	2295465.2458093	100	imm	2295465.9045343	nan	nan	nan	nan	nan
1179.03857421875	0.0	80	2414671	87	70	175	1	0	2295468.491469	2295468.4919815	80	2295471.8390925	2295471.8395967	40	2295475.1017493	2295475.10256	100	del	2295476.7762113	2295477.290303	2295477.2907755	120.0	2.0	2295480.1529885
1182.38623046875	0.0	40	2421527	87	70	175	1	0	2295468.491469	2295468.4919815	80	2295471.8390925	2295471.8395967	40	2295475.1017493	2295475.10256	100	del	2295476.7762113	2295477.290303	2295477.2907755	120.0	2.0	2295480.1529885
1185.64892578125	0.0	100	2428209	87	70	175	1	0	2295468.491469	2295468.4919815	80	2295471.8390925	2295471.8395967	40	2295475.1017493	2295475.10256	100	del	2295476.7762113	2295477.290303	2295477.2907755	120.0	2.0	2295480.1529885
1187.83740234375	0.0	120	2432691	87	70	175	1	0	2295468.491469	2295468.4919815	80	2295471.8390925	2295471.8395967	40	2295475.1017493	2295475.10256	100	del	2295476.7762113	2295477.290303	2295477.2907755	120.0	2.0	2295480.1529885
1192.81103515625	0.0	80	2442877	88	50	700	1	1	2295482.2639779	2295482.2645189	80	2295485.5200556	2295485.5206113	40	2295488.6072063	2295488.6077581	100	del	2295491.4249634	2295491.9385747	2295491.9390412	120.0	2.0	2295493.9125368
1196.06689453125	0.0	40	2449545	88	50	700	1	1	2295482.2639779	2295482.2645189	80	2295485.5200556	2295485.5206113	40	2295488.6072063	2295488.6077581	100	del	2295491.4249634	2295491.9385747	2295491.9390412	120.0	2.0	2295493.9125368
1199.154296875	0.0	100	2455868	88	50	700	1	1	2295482.2639779	2295482.2645189	80	2295485.5200556	2295485.5206113	40	2295488.6072063	2295488.6077581	100	del	2295491.4249634	2295491.9385747	2295491.9390412	120.0	2.0	2295493.9125368
1202.4853515625	0.0	120	2462690	88	50	700	1	1	2295482.2639779	2295482.2645189	80	2295485.5200556	2295485.5206113	40	2295488.6072063	2295488.6077581	100	del	2295491.4249634	2295491.9385747	2295491.9390412	120.0	2.0	2295493.9125368
1206.5029296875	0.0	80	2470918	89	87	700	1	0	2295495.9564166	2295495.9569023	80	2295499.3893763	2295499.3898863	40	2295502.6859313	2295502.6863295	100	del	2295504.8646122	2295505.3795021	2295505.3801594	120.0	3.0	2295509.1060769
1209.93603515625	0.0	40	2477949	89	87	700	1	0	2295495.9564166	2295495.9569023	80	2295499.3893763	2295499.3898863	40	2295502.6859313	2295502.6863295	100	del	2295504.8646122	2295505.3795021	2295505.3801594	120.0	3.0	2295509.1060769
1213.232421875	0.0	100	2484700	89	87	700	1	0	2295495.9564166	2295495.9569023	80	2295499.3893763	2295499.3898863	40	2295502.6859313	2295502.6863295	100	del	2295504.8646122	2295505.3795021	2295505.3801594	120.0	3.0	2295509.1060769
1215.92626953125	0.0	120	2490217	89	87	700	1	0	2295495.9564166	2295495.9569023	80	2295499.3893763	2295499.3898863	40	2295502.6859313	2295502.6863295	100	del	2295504.8646122	2295505.3795021	2295505.3801594	120.0	3.0	2295509.1060769
1222.13330078125	0.0	80	2502929	90	93	30	0	0	2295511.5868599	2295511.5874642	80	2295514.9429125	2295514.9434153	40	2295518.2476503	2295518.2482085	100	del	2295520.745787	nan	nan	nan	nan	nan
1225.4892578125	0.0	40	2509802	90	93	30	0	0	2295511.5868599	2295511.5874642	80	2295514.9429125	2295514.9434153	40	2295518.2476503	2295518.2482085	100	del	2295520.745787	nan	nan	nan	nan	nan
1228.7939453125	0.0	100	2516570	90	93	30	0	0	2295511.5868599	2295511.5874642	80	2295514.9429125	2295514.9434153	40	2295518.2476503	2295518.2482085	100	del	2295520.745787	nan	nan	nan	nan	nan
1234.21826171875	0.0	80	2527679	91	67	260	0	1	2295523.672396	2295523.6728499	80	2295527.1195064	2295527.1201711	40	2295530.6286455	2295530.6295415	100	imm	2295535.4801673	nan	nan	nan	nan	nan
1237.66552734375	0.0	40	2534739	91	67	260	0	1	2295523.672396	2295523.6728499	80	2295527.1195064	2295527.1201711	40	2295530.6286455	2295530.6295415	100	imm	2295535.4801673	nan	nan	nan	nan	nan
1241.17431640625	0.0	100	2541925	91	67	260	0	1	2295523.672396	2295523.6728499	80	2295527.1195064	2295527.1201711	40	2295530.6286455	2295530.6295415	100	imm	2295535.4801673	nan	nan	nan	nan	nan
1248.54443359375	0.0	80	2557019	92	57	11	1	0	2295537.9986848	2295537.9991398	80	2295541.438784	2295541.4391802	40	2295544.7580628	2295544.7585659	100	imm	2295545.9686337	2295546.484688	2295546.4852472	120.0	2.0	2295548.4480563
1251.984375	0.0	40	2564064	92	57	11	1	0	2295537.9986848	2295537.9991398	80	2295541.438784	2295541.4391802	40	2295544.7580628	2295544.7585659	100	imm	2295545.9686337	2295546.484688	2295546.4852472	120.0	2.0	2295548.4480563
1255.3037109375	0.0	100	2570862	92	57	11	1	0	2295537.9986848	2295537.9991398	80	2295541.438784	2295541.4391802	40	2295544.7580628	2295544.7585659	100	imm	2295545.9686337	2295546.484688	2295546.4852472	120.0	2.0	2295548.4480563
1257.0302734375	0.0	120	2574398	92	57	11	1	0	2295537.9986848	2295537.9991398	80	2295541.438784	2295541.4391802	40	2295544.7580628	2295544.7585659	100	imm	2295545.9686337	2295546.484688	2295546.4852472	120.0	2.0	2295548.4480563
1261.50439453125	0.0	80	2583561	93	100	30	0	0	2295550.9592965	2295550.9597889	80	2295554.2317503	2295554.2322227	40	2295557.4851795	2295557.4856983	100	del	2295560.4329823	nan	nan	nan	nan	nan
1264.77685546875	0.0	40	2590263	93	100	30	0	0	2295550.9592965	2295550.9597889	80	2295554.2317503	2295554.2322227	40	2295557.4851795	2295557.4856983	100	del	2295560.4329823	nan	nan	nan	nan	nan
1268.0302734375	0.0	100	2596926	93	100	30	0	0	2295550.9592965	2295550.9597889	80	2295554.2317503	2295554.2322227	40	2295557.4851795	2295557.4856983	100	del	2295560.4329823	nan	nan	nan	nan	nan
1273.89697265625	0.0	80	2608941	94	77	510	0	0	2295563.3520013	2295563.3525105	80	2295566.47351	2295566.4739413	40	2295569.736331	2295569.7368618	100	imm	2295571.2970371	nan	nan	nan	nan	nan
1277.0185546875	0.0	40	2615334	94	77	510	0	0	2295563.3520013	2295563.3525105	80	2295566.47351	2295566.4739413	40	2295569.736331	2295569.7368618	100	imm	2295571.2970371	nan	nan	nan	nan	nan
1280.28125	0.0	100	2622016	94	77	510	0	0	2295563.3520013	2295563.3525105	80	2295566.47351	2295566.4739413	40	2295569.736331	2295569.7368618	100	imm	2295571.2970371	nan	nan	nan	nan	nan
1284.81201171875	0.0	80	2631295	95	60	260	0	0	2295574.2671669	2295574.2676174	80	2295577.5626445	2295577.5630767	40	2295580.9985807	2295580.9990582	100	na	2295582.2084267	nan	nan	nan	nan	nan
1288.107421875	0.0	40	2638044	95	60	260	0	0	2295574.2671669	2295574.2676174	80	2295577.5626445	2295577.5630767	40	2295580.9985807	2295580.9990582	100	na	2295582.2084267	nan	nan	nan	nan	nan
1291.54296875	0.0	100	2645080	95	60	260	0	0	2295574.2671669	2295574.2676174	80	2295577.5626445	2295577.5630767	40	2295580.9985807	2295580.9990582	100	na	2295582.2084267	nan	nan	nan	nan	nan
1295.64111328125	0.0	80	2653473	96	50	90	0	0	2295585.0963648	2295585.0968271	80	2295588.3970394	2295588.3977126	40	2295591.5339273	2295591.5343947	100	imm	2295592.6405857	nan	nan	nan	nan	nan
1298.94140625	0.0	40	2660232	96	50	90	0	0	2295585.0963648	2295585.0968271	80	2295588.3970394	2295588.3977126	40	2295591.5339273	2295591.5343947	100	imm	2295592.6405857	nan	nan	nan	nan	nan
1302.078125	0.0	100	2666656	96	50	90	0	0	2295585.0963648	2295585.0968271	80	2295588.3970394	2295588.3977126	40	2295591.5339273	2295591.5343947	100	imm	2295592.6405857	nan	nan	nan	nan	nan
1306.0361328125	0.0	80	2674762	97	87	40	1	0	2295595.4921247	2295595.492524	80	2295598.5417701	2295598.54223	40	2295601.8676432	2295601.8681189	100	del	2295602.6804407	2295603.1939721	2295603.1944728	120.0	2.0	2295604.7359887
1309.0859375	0.0	40	2681008	97	87	40	1	0	2295595.4921247	2295595.492524	80	2295598.5417701	2295598.54223	40	2295601.8676432	2295601.8681189	100	del	2295602.6804407	2295603.1939721	2295603.1944728	120.0	2.0	2295604.7359887
1312.41162109375	0.0	100	2687819	97	87	40	1	0	2295595.4921247	2295595.492524	80	2295598.5417701	2295598.54223	40	2295601.8676432	2295601.8681189	100	del	2295602.6804407	2295603.1939721	2295603.1944728	120.0	2.0	2295604.7359887
1313.73779296875	0.0	120	2690535	97	87	40	1	0	2295595.4921247	2295595.492524	80	2295598.5417701	2295598.54223	40	2295601.8676432	2295601.8681189	100	del	2295602.6804407	2295603.1939721	2295603.1944728	120.0	2.0	2295604.7359887
1317.626953125	0.0	80	2698500	98	90	40	1	0	2295607.0830183	2295607.0834616	80	2295610.4562112	2295610.4568436	40	2295613.9145179	2295613.9150007	100	del	2295615.5137972	2295616.0280998	2295616.0285864	120.0	1.0	2295616.9132978
1321.0	0.0	40	2705408	98	90	40	1	0	2295607.0830183	2295607.0834616	80	2295610.4562112	2295610.4568436	40	2295613.9145179	2295613.9150007	100	del	2295615.5137972	2295616.0280998	2295616.0285864	120.0	1.0	2295616.9132978
1324.4580078125	0.0	100	2712490	98	90	40	1	0	2295607.0830183	2295607.0834616	80	2295610.4562112	2295610.4568436	40	2295613.9145179	2295613.9150007	100	del	2295615.5137972	2295616.0280998	2295616.0285864	120.0	1.0	2295616.9132978
1326.57177734375	0.0	120	2716819	98	90	40	1	0	2295607.0830183	2295607.0834616	80	2295610.4562112	2295610.4568436	40	2295613.9145179	2295613.9150007	100	del	2295615.5137972	2295616.0280998	2295616.0285864	120.0	1.0	2295616.9132978
1329.9638671875	0.0	80	2723766	99	70	510	0	0	2295619.4199612	2295619.4204801	80	2295622.8120915	2295622.812552	40	2295626.1157388	2295626.1161937	100	imm	2295627.0159993	nan	nan	nan	nan	nan
1333.35546875	0.0	40	2730712	99	70	510	0	0	2295619.4199612	2295619.4204801	80	2295622.8120915	2295622.812552	40	2295626.1157388	2295626.1161937	100	imm	2295627.0159993	nan	nan	nan	nan	nan
1336.6591796875	0.0	100	2737478	99	70	510	0	0	2295619.4199612	2295619.4204801	80	2295622.8120915	2295622.812552	40	2295626.1157388	2295626.1161937	100	imm	2295627.0159993	nan	nan	nan	nan	nan
1340.5419921875	0.0	80	2745430	100	73	365	1	1	2295629.9984143	2295629.998957	80	2295633.2965223	2295633.2970072	40	2295636.3189606	2295636.3194959	100	del	2295637.160106	2295637.6742934	2295637.6747591	120.0	2.0	2295638.8089048
1343.83984375	0.0	40	2752184	100	73	365	1	1	2295629.9984143	2295629.998957	80	2295633.2965223	2295633.2970072	40	2295636.3189606	2295636.3194959	100	del	2295637.160106	2295637.6742934	2295637.6747591	120.0	2.0	2295638.8089048
1346.8623046875	0.0	100	2758374	100	73	365	1	1	2295629.9984143	2295629.998957	80	2295633.2965223	2295633.2970072	40	2295636.3189606	2295636.3194959	100	del	2295637.160106	2295637.6742934	2295637.6747591	120.0	2.0	2295638.8089048
1348.21728515625	0.0	120	2761149	100	73	365	1	1	2295629.9984143	2295629.998957	80	2295633.2965223	2295633.2970072	40	2295636.3189606	2295636.3194959	100	del	2295637.160106	2295637.6742934	2295637.6747591	120.0	2.0	2295638.8089048
1368.92626953125	0.0	80	2803561	101	50	40	1	0	2295658.3836272	2295658.3840666	80	2295661.8226144	2295661.8231772	40	2295665.0769598	2295665.0772011	100	imm	2295666.1762736	2295666.6901104	2295666.6906058	120.0	2.0	2295667.7360423
1372.365234375	0.0	40	2810604	101	50	40	1	0	2295658.3836272	2295658.3840666	80	2295661.8226144	2295661.8231772	40	2295665.0769598	2295665.0772011	100	imm	2295666.1762736	2295666.6901104	2295666.6906058	120.0	2.0	2295667.7360423
1375.61962890625	0.0	100	2817269	101	50	40	1	0	2295658.3836272	2295658.3840666	80	2295661.8226144	2295661.8231772	40	2295665.0769598	2295665.0772011	100	imm	2295666.1762736	2295666.6901104	2295666.6906058	120.0	2.0	2295667.7360423
1377.232421875	0.0	120	2820572	101	50	40	1	0	2295658.3836272	2295658.3840666	80	2295661.8226144	2295661.8231772	40	2295665.0769598	2295665.0772011	100	imm	2295666.1762736	2295666.6901104	2295666.6906058	120.0	2.0	2295667.7360423
1380.71826171875	0.0	80	2827711	102	73	260	0	1	2295670.175886	2295670.1762866	80	2295673.2882143	2295673.288696	40	2295676.5770438	2295676.5774986	100	imm	2295677.2722764	nan	nan	nan	nan	nan
1383.83056640625	0.0	40	2834085	102	73	260	0	1	2295670.175886	2295670.1762866	80	2295673.2882143	2295673.288696	40	2295676.5770438	2295676.5774986	100	imm	2295677.2722764	nan	nan	nan	nan	nan
1387.119140625	0.0	100	2840820	102	73	260	0	1	2295670.175886	2295670.1762866	80	2295673.2882143	2295673.288696	40	2295676.5770438	2295676.5774986	100	imm	2295677.2722764	nan	nan	nan	nan	nan
1390.6484375	0.0	80	2848048	103	67	30	0	1	2295680.1062372	2295680.1067245	80	2295683.1310719	2295683.1315831	40	2295686.4519876	2295686.4524876	100	del	2295687.4965643	nan	nan	nan	nan	nan
1393.67333984375	0.0	40	2854243	103	67	30	0	1	2295680.1062372	2295680.1067245	80	2295683.1310719	2295683.1315831	40	2295686.4519876	2295686.4524876	100	del	2295687.4965643	nan	nan	nan	nan	nan
1396.994140625	0.0	100	2861044	103	67	30	0	1	2295680.1062372	2295680.1067245	80	2295683.1310719	2295683.1315831	40	2295686.4519876	2295686.4524876	100	del	2295687.4965643	nan	nan	nan	nan	nan
1400.73681640625	0.0	80	2868709	104	90	970	0	1	2295690.1949732	2295690.1955929	80	2295693.2275006	2295693.2279893	40	2295696.4862733	2295696.4867981	100	imm	2295697.6240518	nan	nan	nan	nan	nan
1403.76904296875	0.0	40	2874919	104	90	970	0	1	2295690.1949732	2295690.1955929	80	2295693.2275006	2295693.2279893	40	2295696.4862733	2295696.4867981	100	imm	2295697.6240518	nan	nan	nan	nan	nan
1407.02783203125	0.0	100	2881593	104	90	970	0	1	2295690.1949732	2295690.1955929	80	2295693.2275006	2295693.2279893	40	2295696.4862733	2295696.4867981	100	imm	2295697.6240518	nan	nan	nan	nan	nan
1410.78173828125	0.0	80	2889281	105	90	11	1	1	2295700.2399005	2295700.2403695	80	2295703.309409	2295703.3102032	40	2295706.4258703	2295706.4264079	100	imm	2295707.1366781	2295707.6504486	2295707.6509711	120.0	2.0	2295708.9205901
1413.8505859375	0.0	40	2895566	105	90	11	1	1	2295700.2399005	2295700.2403695	80	2295703.309409	2295703.3102032	40	2295706.4258703	2295706.4264079	100	imm	2295707.1366781	2295707.6504486	2295707.6509711	120.0	2.0	2295708.9205901
1416.96728515625	0.0	100	2901949	105	90	11	1	1	2295700.2399005	2295700.2403695	80	2295703.309409	2295703.3102032	40	2295706.4258703	2295706.4264079	100	imm	2295707.1366781	2295707.6504486	2295707.6509711	120.0	2.0	2295708.9205901
1418.19189453125	0.0	120	2904457	105	90	11	1	1	2295700.2399005	2295700.2403695	80	2295703.309409	2295703.3102032	40	2295706.4258703	2295706.4264079	100	imm	2295707.1366781	2295707.6504486	2295707.6509711	120.0	2.0	2295708.9205901
1421.54931640625	0.0	80	2911333	106	53	11	1	0	2295711.0081561	2295711.0087007	80	2295714.1104091	2295714.1121624	40	2295717.1472109	2295717.1477491	100	imm	2295717.744491	2295718.2576208	2295718.2583507	120.0	2.0	2295720.0806629
1424.6513671875	0.0	40	2917686	106	53	11	1	0	2295711.0081561	2295711.0087007	80	2295714.1104091	2295714.1121624	40	2295717.1472109	2295717.1477491	100	imm	2295717.744491	2295718.2576208	2295718.2583507	120.0	2.0	2295720.0806629
1427.6884765625	0.0	100	2923906	106	53	11	1	0	2295711.0081561	2295711.0087007	80	2295714.1104091	2295714.1121624	40	2295717.1472109	2295717.1477491	100	imm	2295717.744491	2295718.2576208	2295718.2583507	120.0	2.0	2295720.0806629
1428.79931640625	0.0	120	2926181	106	53	11	1	0	2295711.0081561	2295711.0087007	80	2295714.1104091	2295714.1121624	40	2295717.1472109	2295717.1477491	100	imm	2295717.744491	2295718.2576208	2295718.2583507	120.0	2.0	2295720.0806629
1432.95556640625	0.0	80	2934693	107	63	970	0	0	2295722.4143214	2295722.4148148	80	2295725.5631567	2295725.5636573	40	2295728.8461293	2295728.8465771	100	imm	2295730.400325	nan	nan	nan	nan	nan
1436.10400390625	0.0	40	2941141	107	63	970	0	0	2295722.4143214	2295722.4148148	80	2295725.5631567	2295725.5636573	40	2295728.8461293	2295728.8465771	100	imm	2295730.400325	nan	nan	nan	nan	nan
1439.38720703125	0.0	100	2947865	107	63	970	0	0	2295722.4143214	2295722.4148148	80	2295725.5631567	2295725.5636573	40	2295728.8461293	2295728.8465771	100	imm	2295730.400325	nan	nan	nan	nan	nan
1443.806640625	0.0	80	2956916	108	50	11	1	1	2295733.2657612	2295733.2662687	80	2295736.5233857	2295736.5239007	40	2295739.8040563	2295739.8046209	100	imm	2295740.7442781	2295741.257818	2295741.259705	120.0	1.0	2295743.0158162
1447.06396484375	0.0	40	2963587	108	50	11	1	1	2295733.2657612	2295733.2662687	80	2295736.5233857	2295736.5239007	40	2295739.8040563	2295739.8046209	100	imm	2295740.7442781	2295741.257818	2295741.259705	120.0	1.0	2295743.0158162
1450.3447265625	0.0	100	2970306	108	50	11	1	1	2295733.2657612	2295733.2662687	80	2295736.5233857	2295736.5239007	40	2295739.8040563	2295739.8046209	100	imm	2295740.7442781	2295741.257818	2295741.259705	120.0	1.0	2295743.0158162
1451.79833984375	0.0	120	2973283	108	50	11	1	1	2295733.2657612	2295733.2662687	80	2295736.5233857	2295736.5239007	40	2295739.8040563	2295739.8046209	100	imm	2295740.7442781	2295741.257818	2295741.259705	120.0	1.0	2295743.0158162
1455.79443359375	0.0	80	2981467	109	100	260	0	1	2295745.2538947	2295745.2544628	80	2295748.3237401	2295748.3242095	40	2295751.5817832	2295751.5822744	100	imm	2295754.0557863	nan	nan	nan	nan	nan
1458.8642578125	0.0	40	2987754	109	100	260	0	1	2295745.2538947	2295745.2544628	80	2295748.3237401	2295748.3242095	40	2295751.5817832	2295751.5822744	100	imm	2295754.0557863	nan	nan	nan	nan	nan
1462.1220703125	0.0	100	2994426	109	100	260	0	1	2295745.2538947	2295745.2544628	80	2295748.3237401	2295748.3242095	40	2295751.5817832	2295751.5822744	100	imm	2295754.0557863	nan	nan	nan	nan	nan
1467.5400390625	0.0	80	3005522	110	90	700	1	0	2295756.9998644	2295757.0003836	80	2295760.4446712	2295760.4451389	40	2295763.5946396	2295763.5954481	100	del	2295765.9125783	2295766.4260462	2295766.4264888	120.0	2.0	2295768.560362
1470.98486328125	0.0	40	3012577	110	90	700	1	0	2295756.9998644	2295757.0003836	80	2295760.4446712	2295760.4451389	40	2295763.5946396	2295763.5954481	100	del	2295765.9125783	2295766.4260462	2295766.4264888	120.0	2.0	2295768.560362
1474.134765625	0.0	100	3019028	110	90	700	1	0	2295756.9998644	2295757.0003836	80	2295760.4446712	2295760.4451389	40	2295763.5946396	2295763.5954481	100	del	2295765.9125783	2295766.4260462	2295766.4264888	120.0	2.0	2295768.560362
1476.9658203125	0.0	120	3024826	110	90	700	1	0	2295756.9998644	2295757.0003836	80	2295760.4446712	2295760.4451389	40	2295763.5946396	2295763.5954481	100	del	2295765.9125783	2295766.4260462	2295766.4264888	120.0	2.0	2295768.560362
1481.220703125	0.0	80	3033540	111	60	700	1	1	2295770.6809865	2295770.6814893	80	2295773.9713651	2295773.9718636	40	2295777.3050797	2295777.3055885	100	del	2295778.5936011	2295779.1075953	2295779.1080771	120.0	2.0	2295780.2495168
1484.51123046875	0.0	40	3040279	111	60	700	1	1	2295770.6809865	2295770.6814893	80	2295773.9713651	2295773.9718636	40	2295777.3050797	2295777.3055885	100	del	2295778.5936011	2295779.1075953	2295779.1080771	120.0	2.0	2295780.2495168
1487.8447265625	0.0	100	3047106	111	60	700	1	1	2295770.6809865	2295770.6814893	80	2295773.9713651	2295773.9718636	40	2295777.3050797	2295777.3055885	100	del	2295778.5936011	2295779.1075953	2295779.1080771	120.0	2.0	2295780.2495168
1489.6474609375	0.0	120	3050798	111	60	700	1	1	2295770.6809865	2295770.6814893	80	2295773.9713651	2295773.9718636	40	2295777.3050797	2295777.3055885	100	del	2295778.5936011	2295779.1075953	2295779.1080771	120.0	2.0	2295780.2495168
1493.01416015625	0.0	80	3057693	112	77	175	1	0	2295782.474803	2295782.4752739	80	2295785.5856912	2295785.5861395	40	2295789.072521	2295789.0730317	100	del	2295789.9365183	2295790.4496962	2295790.4504253	120.0	2.0	2295791.6879787
1496.125	0.0	40	3064064	112	77	175	1	0	2295782.474803	2295782.4752739	80	2295785.5856912	2295785.5861395	40	2295789.072521	2295789.0730317	100	del	2295789.9365183	2295790.4496962	2295790.4504253	120.0	2.0	2295791.6879787
1499.61181640625	0.0	100	3071205	112	77	175	1	0	2295782.474803	2295782.4752739	80	2295785.5856912	2295785.5861395	40	2295789.072521	2295789.0730317	100	del	2295789.9365183	2295790.4496962	2295790.4504253	120.0	2.0	2295791.6879787
1500.9892578125	0.0	120	3074026	112	77	175	1	0	2295782.474803	2295782.4752739	80	2295785.5856912	2295785.5861395	40	2295789.072521	2295789.0730317	100	del	2295789.9365183	2295790.4496962	2295790.4504253	120.0	2.0	2295791.6879787
1504.28515625	0.0	80	3080776	113	93	260	0	0	2295793.745898	2295793.7464067	80	2295796.8065861	2295796.8070738	40	2295799.891548	2295799.8920683	100	imm	2295800.8572648	nan	nan	nan	nan	nan
1507.345703125	0.0	40	3087044	113	93	260	0	0	2295793.745898	2295793.7464067	80	2295796.8065861	2295796.8070738	40	2295799.891548	2295799.8920683	100	imm	2295800.8572648	nan	nan	nan	nan	nan
1510.4306640625	0.0	100	3093362	113	93	260	0	0	2295793.745898	2295793.7464067	80	2295796.8065861	2295796.8070738	40	2295799.891548	2295799.8920683	100	imm	2295800.8572648	nan	nan	nan	nan	nan
1513.9990234375	0.0	80	3100670	114	97	510	0	0	2295803.4599497	2295803.4604569	80	2295806.7781238	2295806.7785643	40	2295810.0782881	2295810.0787119	100	imm	2295811.8325578	nan	nan	nan	nan	nan
1517.31689453125	0.0	40	3107465	114	97	510	0	0	2295803.4599497	2295803.4604569	80	2295806.7781238	2295806.7785643	40	2295810.0782881	2295810.0787119	100	imm	2295811.8325578	nan	nan	nan	nan	nan
1520.6171875	0.0	100	3114224	114	97	510	0	0	2295803.4599497	2295803.4604569	80	2295806.7781238	2295806.7785643	40	2295810.0782881	2295810.0787119	100	imm	2295811.8325578	nan	nan	nan	nan	nan
1524.91455078125	0.0	80	3123025	115	63	11	1	0	2295814.3759964	2295814.3765019	80	2295817.8498923	2295817.8503561	40	2295821.2275183	2295821.2280282	100	imm	2295822.7042934	2295823.2183729	2295823.2188137	120.0	2.0	2295824.713141
1528.388671875	0.0	40	3130140	115	63	11	1	0	2295814.3759964	2295814.3765019	80	2295817.8498923	2295817.8503561	40	2295821.2275183	2295821.2280282	100	imm	2295822.7042934	2295823.2183729	2295823.2188137	120.0	2.0	2295824.713141
1531.76611328125	0.0	100	3137057	115	63	11	1	0	2295814.3759964	2295814.3765019	80	2295817.8498923	2295817.8503561	40	2295821.2275183	2295821.2280282	100	imm	2295822.7042934	2295823.2183729	2295823.2188137	120.0	2.0	2295824.713141
1533.7568359375	0.0	120	3141134	115	63	11	1	0	2295814.3759964	2295814.3765019	80	2295817.8498923	2295817.8503561	40	2295821.2275183	2295821.2280282	100	imm	2295822.7042934	2295823.2183729	2295823.2188137	120.0	2.0	2295824.713141
1537.63720703125	0.0	80	3149081	116	60	365	1	1	2295827.0988979	2295827.0994421	80	2295830.1359204	2295830.1361333	40	2295833.5804168	2295833.5809152	100	del	2295835.7763952	2295836.2894282	2295836.2899137	120.0	1.0	2295837.0159299
1540.6748046875	0.0	40	3155302	116	60	365	1	1	2295827.0988979	2295827.0994421	80	2295830.1359204	2295830.1361333	40	2295833.5804168	2295833.5809152	100	del	2295835.7763952	2295836.2894282	2295836.2899137	120.0	1.0	2295837.0159299
1544.11865234375	0.0	100	3162355	116	60	365	1	1	2295827.0988979	2295827.0994421	80	2295830.1359204	2295830.1361333	40	2295833.5804168	2295833.5809152	100	del	2295835.7763952	2295836.2894282	2295836.2899137	120.0	1.0	2295837.0159299
1546.82763671875	0.0	120	3167903	116	60	365	1	1	2295827.0988979	2295827.0994421	80	2295830.1359204	2295830.1361333	40	2295833.5804168	2295833.5809152	100	del	2295835.7763952	2295836.2894282	2295836.2899137	120.0	1.0	2295837.0159299
1550.0380859375	0.0	80	3174478	117	90	90	0	1	2295839.4999494	2295839.5004336	80	2295843.0000298	2295843.0005475	40	2295846.442644	2295846.4431101	100	na	2295847.0480827	nan	nan	nan	nan	nan
1553.5380859375	0.0	40	3181646	117	90	90	0	1	2295839.4999494	2295839.5004336	80	2295843.0000298	2295843.0005475	40	2295846.442644	2295846.4431101	100	na	2295847.0480827	nan	nan	nan	nan	nan
1556.98046875	0.0	100	3188696	117	90	90	0	1	2295839.4999494	2295839.5004336	80	2295843.0000298	2295843.0005475	40	2295846.442644	2295846.4431101	100	na	2295847.0480827	nan	nan	nan	nan	nan
1560.49755859375	0.0	80	3195899	118	90	510	0	0	2295849.9594717	2295849.9599639	80	2295853.2235546	2295853.2240379	40	2295856.3277603	2295856.3283046	100	imm	2295860.5917269	nan	nan	nan	nan	nan
1563.76123046875	0.0	40	3202583	118	90	510	0	0	2295849.9594717	2295849.9599639	80	2295853.2235546	2295853.2240379	40	2295856.3277603	2295856.3283046	100	imm	2295860.5917269	nan	nan	nan	nan	nan
1566.86572265625	0.0	100	3208941	118	90	510	0	0	2295849.9594717	2295849.9599639	80	2295853.2235546	2295853.2240379	40	2295856.3277603	2295856.3283046	100	imm	2295860.5917269	nan	nan	nan	nan	nan
1573.84765625	0.0	80	3223240	119	53	365	1	1	2295863.3099987	2295863.3105054	80	2295866.3844848	2295866.3849709	40	2295869.4133983	2295869.41386	100	del	2295870.1436795	2295870.6573987	2295870.6580019	120.0	2.0	2295874.3772066
1576.921875	0.0	40	3229536	119	53	365	1	1	2295863.3099987	2295863.3105054	80	2295866.3844848	2295866.3849709	40	2295869.4133983	2295869.41386	100	del	2295870.1436795	2295870.6573987	2295870.6580019	120.0	2.0	2295874.3772066
1579.95068359375	0.0	100	3235739	119	53	365	1	1	2295863.3099987	2295863.3105054	80	2295866.3844848	2295866.3849709	40	2295869.4133983	2295869.41386	100	del	2295870.1436795	2295870.6573987	2295870.6580019	120.0	2.0	2295874.3772066
1581.19482421875	0.0	120	3238287	119	53	365	1	1	2295863.3099987	2295863.3105054	80	2295866.3844848	2295866.3849709	40	2295869.4133983	2295869.41386	100	del	2295870.1436795	2295870.6573987	2295870.6580019	120.0	2.0	2295874.3772066
1587.39990234375	0.0	80	3250995	120	97	260	0	0	2295876.8627582	2295876.8632673	80	2295880.019969	2295880.0202928	40	2295883.1818248	2295883.1823377	100	imm	2295883.9997135	nan	nan	nan	nan	nan
1590.55712890625	0.0	40	3257461	120	97	260	0	0	2295876.8627582	2295876.8632673	80	2295880.019969	2295880.0202928	40	2295883.1818248	2295883.1823377	100	imm	2295883.9997135	nan	nan	nan	nan	nan
1593.71875	0.0	100	3263936	120	97	260	0	0	2295876.8627582	2295876.8632673	80	2295880.019969	2295880.0202928	40	2295883.1818248	2295883.1823377	100	imm	2295883.9997135	nan	nan	nan	nan	nan
1622.69091796875	0.0	80	3323271	121	57	700	1	1	2295912.1543376	2295912.1548267	80	2295915.3953883	2295915.3958525	40	2295918.732787	2295918.7332721	100	del	2295919.2315947	2295919.7450065	2295919.7455037	120.0	1.0	2295921.5514793
1625.931640625	0.0	40	3329908	121	57	700	1	1	2295912.1543376	2295912.1548267	80	2295915.3953883	2295915.3958525	40	2295918.732787	2295918.7332721	100	del	2295919.2315947	2295919.7450065	2295919.7455037	120.0	1.0	2295921.5514793
1629.26904296875	0.0	100	3336743	121	57	700	1	1	2295912.1543376	2295912.1548267	80	2295915.3953883	2295915.3958525	40	2295918.732787	2295918.7332721	100	del	2295919.2315947	2295919.7450065	2295919.7455037	120.0	1.0	2295921.5514793
1630.28125	0.0	120	3338816	121	57	700	1	1	2295912.1543376	2295912.1548267	80	2295915.3953883	2295915.3958525	40	2295918.732787	2295918.7332721	100	del	2295919.2315947	2295919.7450065	2295919.7455037	120.0	1.0	2295921.5514793
1634.11572265625	0.0	80	3346669	122	57	260	0	1	2295923.5798809	2295923.5803966	80	2295927.0087058	2295927.009231	40	2295930.3020291	2295930.3025277	100	imm	2295931.6078919	nan	nan	nan	nan	nan
1637.54443359375	0.0	40	3353691	122	57	260	0	1	2295923.5798809	2295923.5803966	80	2295927.0087058	2295927.009231	40	2295930.3020291	2295930.3025277	100	imm	2295931.6078919	nan	nan	nan	nan	nan
1640.837890625	0.0	100	3360436	122	57	260	0	1	2295923.5798809	2295923.5803966	80	2295927.0087058	2295927.009231	40	2295930.3020291	2295930.3025277	100	imm	2295931.6078919	nan	nan	nan	nan	nan
1645.08837890625	0.0	80	3369141	123	50	30	0	0	2295934.5528593	2295934.5532527	80	2295937.7344967	2295937.7349683	40	2295940.9711869	2295940.9716509	100	del	2295941.8320889	nan	nan	nan	nan	nan
1648.27001953125	0.0	40	3375657	123	50	30	0	0	2295934.5528593	2295934.5532527	80	2295937.7344967	2295937.7349683	40	2295940.9711869	2295940.9716509	100	del	2295941.8320889	nan	nan	nan	nan	nan
1651.5068359375	0.0	100	3382286	123	50	30	0	0	2295934.5528593	2295934.5532527	80	2295937.7344967	2295937.7349683	40	2295940.9711869	2295940.9716509	100	del	2295941.8320889	nan	nan	nan	nan	nan
1654.91357421875	0.0	80	3389263	124	63	510	0	0	2295944.3778157	2295944.3783805	80	2295947.4742068	2295947.4747124	40	2295950.8187669	2295950.8193366	100	imm	2295952.3917576	nan	nan	nan	nan	nan
1658.009765625	0.0	40	3395604	124	63	510	0	0	2295944.3778157	2295944.3783805	80	2295947.4742068	2295947.4747124	40	2295950.8187669	2295950.8193366	100	imm	2295952.3917576	nan	nan	nan	nan	nan
1661.35400390625	0.0	100	3402453	124	63	510	0	0	2295944.3778157	2295944.3783805	80	2295947.4742068	2295947.4747124	40	2295950.8187669	2295950.8193366	100	imm	2295952.3917576	nan	nan	nan	nan	nan
1665.611328125	0.0	80	3411172	125	60	11	1	0	2295955.0759827	2295955.076476	80	2295958.5333167	2295958.5337663	40	2295961.6057572	2295961.6062932	100	imm	2295963.3676575	2295963.8814774	2295963.8819729	120.0	1.0	2295965.0232854
1669.068359375	0.0	40	3418252	125	60	11	1	0	2295955.0759827	2295955.076476	80	2295958.5333167	2295958.5337663	40	2295961.6057572	2295961.6062932	100	imm	2295963.3676575	2295963.8814774	2295963.8819729	120.0	1.0	2295965.0232854
1672.14111328125	0.0	100	3424545	125	60	11	1	0	2295955.0759827	2295955.076476	80	2295958.5333167	2295958.5337663	40	2295961.6057572	2295961.6062932	100	imm	2295963.3676575	2295963.8814774	2295963.8819729	120.0	1.0	2295965.0232854
1674.41650390625	0.0	120	3429205	125	60	11	1	0	2295955.0759827	2295955.076476	80	2295958.5333167	2295958.5337663	40	2295961.6057572	2295961.6062932	100	imm	2295963.3676575	2295963.8814774	2295963.8819729	120.0	1.0	2295965.0232854
1678.0693359375	0.0	80	3436686	126	73	30	0	1	2295967.5346244	2295967.5351187	80	2295970.8125909	2295970.8130932	40	2295974.1829129	2295974.1834362	100	del	2295974.7195036	nan	nan	nan	nan	nan
1681.34765625	0.0	40	3443400	126	73	30	0	1	2295967.5346244	2295967.5351187	80	2295970.8125909	2295970.8130932	40	2295974.1829129	2295974.1834362	100	del	2295974.7195036	nan	nan	nan	nan	nan
1684.7177734375	0.0	100	3450302	126	73	30	0	1	2295967.5346244	2295967.5351187	80	2295970.8125909	2295970.8130932	40	2295974.1829129	2295974.1834362	100	del	2295974.7195036	nan	nan	nan	nan	nan
1688.2724609375	0.0	80	3457582	127	50	510	0	0	2295977.7379332	2295977.7383888	80	2295980.8895731	2295980.8900009	40	2295984.1097817	2295984.1102924	100	imm	2295984.9197344	nan	nan	nan	nan	nan
1691.42431640625	0.0	40	3464037	127	50	510	0	0	2295977.7379332	2295977.7383888	80	2295980.8895731	2295980.8900009	40	2295984.1097817	2295984.1102924	100	imm	2295984.9197344	nan	nan	nan	nan	nan
1694.64453125	0.0	100	3470632	127	50	510	0	0	2295977.7379332	2295977.7383888	80	2295980.8895731	2295980.8900009	40	2295984.1097817	2295984.1102924	100	imm	2295984.9197344	nan	nan	nan	nan	nan
1698.20556640625	0.0	80	3477925	128	70	11	1	0	2295987.6708368	2295987.671425	80	2295991.0615634	2295991.0621123	40	2295994.4840444	2295994.4845517	100	imm	2295995.9194652	2295996.4328315	2295996.4333338	120.0	1.0	2295997.6001521
1701.595703125	0.0	40	3484868	128	70	11	1	0	2295987.6708368	2295987.671425	80	2295991.0615634	2295991.0621123	40	2295994.4840444	2295994.4845517	100	imm	2295995.9194652	2295996.4328315	2295996.4333338	120.0	1.0	2295997.6001521
1705.0185546875	0.0	100	3491878	128	70	11	1	0	2295987.6708368	2295987.671425	80	2295991.0615634	2295991.0621123	40	2295994.4840444	2295994.4845517	100	imm	2295995.9194652	2295996.4328315	2295996.4333338	120.0	1.0	2295997.6001521
1706.96728515625	0.0	120	3495869	128	70	11	1	0	2295987.6708368	2295987.671425	80	2295991.0615634	2295991.0621123	40	2295994.4840444	2295994.4845517	100	imm	2295995.9194652	2295996.4328315	2295996.4333338	120.0	1.0	2295997.6001521
1710.20166015625	0.0	80	3502493	129	87	30	0	1	2295999.6677447	2295999.6682537	80	2296002.7644984	2296002.7649716	40	2296005.9574526	2296005.9579408	100	del	2296006.7594184	nan	nan	nan	nan	nan
1713.29833984375	0.0	40	3508835	129	87	30	0	1	2295999.6677447	2295999.6682537	80	2296002.7644984	2296002.7649716	40	2296005.9574526	2296005.9579408	100	del	2296006.7594184	nan	nan	nan	nan	nan
1716.49169921875	0.0	100	3515375	129	87	30	0	1	2295999.6677447	2295999.6682537	80	2296002.7644984	2296002.7649716	40	2296005.9574526	2296005.9579408	100	del	2296006.7594184	nan	nan	nan	nan	nan
1719.83984375	0.0	80	3522232	130	87	260	0	0	2296009.3061229	2296009.3066487	80	2296012.5756216	2296012.5761244	40	2296015.756692	2296015.7574481	100	imm	2296016.527691	nan	nan	nan	nan	nan
1723.109375	0.0	40	3528928	130	87	260	0	0	2296009.3061229	2296009.3066487	80	2296012.5756216	2296012.5761244	40	2296015.756692	2296015.7574481	100	imm	2296016.527691	nan	nan	nan	nan	nan
1726.29052734375	0.0	100	3535443	130	87	260	0	0	2296009.3061229	2296009.3066487	80	2296012.5756216	2296012.5761244	40	2296015.756692	2296015.7574481	100	imm	2296016.527691	nan	nan	nan	nan	nan
1729.66748046875	0.0	80	3542359	131	67	700	1	1	2296019.133871	2296019.1343391	80	2296022.2458911	2296022.2464037	40	2296025.7118537	2296025.7123844	100	del	2296026.9996172	2296027.5132796	2296027.513771	120.0	1.0	2296028.584958
1732.779296875	0.0	40	3548732	131	67	700	1	1	2296019.133871	2296019.1343391	80	2296022.2458911	2296022.2464037	40	2296025.7118537	2296025.7123844	100	del	2296026.9996172	2296027.5132796	2296027.513771	120.0	1.0	2296028.584958
1736.24560546875	0.0	100	3555831	131	67	700	1	1	2296019.133871	2296019.1343391	80	2296022.2458911	2296022.2464037	40	2296025.7118537	2296025.7123844	100	del	2296026.9996172	2296027.5132796	2296027.513771	120.0	1.0	2296028.584958
1738.046875	0.0	120	3559520	131	67	700	1	1	2296019.133871	2296019.1343391	80	2296022.2458911	2296022.2464037	40	2296025.7118537	2296025.7123844	100	del	2296026.9996172	2296027.5132796	2296027.513771	120.0	1.0	2296028.584958
1741.47216796875	0.0	80	3566535	132	53	175	1	0	2296030.9385385	2296030.9390849	80	2296034.1802977	2296034.1808018	40	2296037.6491976	2296037.649692	100	del	2296039.9120368	2296040.425515	2296040.426024	120.0	1.0	2296041.4967667
1744.71337890625	0.0	40	3573173	132	53	175	1	0	2296030.9385385	2296030.9390849	80	2296034.1802977	2296034.1808018	40	2296037.6491976	2296037.649692	100	del	2296039.9120368	2296040.425515	2296040.426024	120.0	1.0	2296041.4967667
1748.1826171875	0.0	100	3580278	132	53	175	1	0	2296030.9385385	2296030.9390849	80	2296034.1802977	2296034.1808018	40	2296037.6491976	2296037.649692	100	del	2296039.9120368	2296040.425515	2296040.426024	120.0	1.0	2296041.4967667
1750.95849609375	0.0	120	3585963	132	53	175	1	0	2296030.9385385	2296030.9390849	80	2296034.1802977	2296034.1808018	40	2296037.6491976	2296037.649692	100	del	2296039.9120368	2296040.425515	2296040.426024	120.0	1.0	2296041.4967667
1754.09814453125	0.0	80	3592393	133	80	970	0	1	2296043.5651345	2296043.5655875	80	2296046.9454763	2296046.9459736	40	2296050.3275912	2296050.328123	100	imm	2296050.9839194	nan	nan	nan	nan	nan
1757.478515625	0.0	40	3599316	133	80	970	0	1	2296043.5651345	2296043.5655875	80	2296046.9454763	2296046.9459736	40	2296050.3275912	2296050.328123	100	imm	2296050.9839194	nan	nan	nan	nan	nan
1760.8603515625	0.0	100	3606242	133	80	970	0	1	2296043.5651345	2296043.5655875	80	2296046.9454763	2296046.9459736	40	2296050.3275912	2296050.328123	100	imm	2296050.9839194	nan	nan	nan	nan	nan
1764.31640625	0.0	80	3613320	134	77	365	1	1	2296053.7834389	2296053.783874	80	2296056.8842884	2296056.8847935	40	2296060.1958598	2296060.1963398	100	del	2296063.6639237	2296064.1779533	2296064.1784449	120.0	2.0	2296065.2077038
1767.4169921875	0.0	40	3619670	134	77	365	1	1	2296053.7834389	2296053.783874	80	2296056.8842884	2296056.8847935	40	2296060.1958598	2296060.1963398	100	del	2296063.6639237	2296064.1779533	2296064.1784449	120.0	2.0	2296065.2077038
1770.728515625	0.0	100	3626452	134	77	365	1	1	2296053.7834389	2296053.783874	80	2296056.8842884	2296056.8847935	40	2296060.1958598	2296060.1963398	100	del	2296063.6639237	2296064.1779533	2296064.1784449	120.0	2.0	2296065.2077038
1774.71044921875	0.0	120	3634607	134	77	365	1	1	2296053.7834389	2296053.783874	80	2296056.8842884	2296056.8847935	40	2296060.1958598	2296060.1963398	100	del	2296063.6639237	2296064.1779533	2296064.1784449	120.0	2.0	2296065.2077038
1777.90625	0.0	80	3641152	135	93	11	1	0	2296067.3738906	2296067.3743536	80	2296070.448542	2296070.4490431	40	2296073.5688286	2296073.5693182	100	imm	2296074.351237	2296074.8643979	2296074.8648694	120.0	2.0	2296076.1276529
1780.98095703125	0.0	40	3647449	135	93	11	1	0	2296067.3738906	2296067.3743536	80	2296070.448542	2296070.4490431	40	2296073.5688286	2296073.5693182	100	imm	2296074.351237	2296074.8643979	2296074.8648694	120.0	2.0	2296076.1276529
1784.10107421875	0.0	100	3653839	135	93	11	1	0	2296067.3738906	2296067.3743536	80	2296070.448542	2296070.4490431	40	2296073.5688286	2296073.5693182	100	imm	2296074.351237	2296074.8643979	2296074.8648694	120.0	2.0	2296076.1276529
1785.396484375	0.0	120	3656492	135	93	11	1	0	2296067.3738906	2296067.3743536	80	2296070.448542	2296070.4490431	40	2296073.5688286	2296073.5693182	100	imm	2296074.351237	2296074.8643979	2296074.8648694	120.0	2.0	2296076.1276529
1789.1240234375	0.0	80	3664126	136	53	970	0	1	2296078.591988	2296078.5924974	80	2296081.6359686	2296081.6364081	40	2296084.7711109	2296084.7715284	100	imm	2296088.3919399	nan	nan	nan	nan	nan
1792.16796875	0.0	40	3670360	136	53	970	0	1	2296078.591988	2296078.5924974	80	2296081.6359686	2296081.6364081	40	2296084.7711109	2296084.7715284	100	imm	2296088.3919399	nan	nan	nan	nan	nan
