onset	duration	value	sample	trial_idx	val	del	is_cued	rev_opts	del_pres_displaytime	del_pres_triggertime	del_pres_triggercode	val_pres_displaytime	val_pres_triggertime	val_pres_triggercode	choice_displaytime	choice_triggertime	choice_triggercode	choice	choice_time	viv_displaytime	viv_triggertime	viv_triggercode	viv	viv_time
55.998046875	0.0	80	114684	1	97	700	1	0	7580560.4030654	7580560.4044563	80	7580563.6053266	7580563.6062696	40	7580566.7337514	7580566.734635	100	imm	7580571.2736064	7580571.7920486	7580571.7928288	120.0	4.0	7580575.4972589
59.2001953125	0.0	40	121242	1	97	700	1	0	7580560.4030654	7580560.4044563	80	7580563.6053266	7580563.6062696	40	7580566.7337514	7580566.734635	100	imm	7580571.2736064	7580571.7920486	7580571.7928288	120.0	4.0	7580575.4972589
62.328125	0.0	100	127648	1	97	700	1	0	7580560.4030654	7580560.4044563	80	7580563.6053266	7580563.6062696	40	7580566.7337514	7580566.734635	100	imm	7580571.2736064	7580571.7920486	7580571.7928288	120.0	4.0	7580575.4972589
67.38623046875	0.0	120	138007	1	97	700	1	0	7580560.4030654	7580560.4044563	80	7580563.6053266	7580563.6062696	40	7580566.7337514	7580566.734635	100	imm	7580571.2736064	7580571.7920486	7580571.7928288	120.0	4.0	7580575.4972589
73.3525390625	0.0	80	150226	2	83	510	0	1	7580577.7581387	7580577.7588694	80	7580580.9364845	7580580.9371931	40	7580584.4279872	7580584.4287062	100	imm	7580585.9068489	nan	nan	nan	nan	nan
76.53076171875	0.0	40	156735	2	83	510	0	1	7580577.7581387	7580577.7588694	80	7580580.9364845	7580580.9371931	40	7580584.4279872	7580584.4287062	100	imm	7580585.9068489	nan	nan	nan	nan	nan
80.0224609375	0.0	100	163886	2	83	510	0	1	7580577.7581387	7580577.7588694	80	7580580.9364845	7580580.9371931	40	7580584.4279872	7580584.4287062	100	imm	7580585.9068489	nan	nan	nan	nan	nan
84.48291015625	0.0	80	173021	3	53	260	0	0	7580588.8884739	7580588.8891785	80	7580591.9211183	7580591.9214746	40	7580595.3037417	7580595.304734	100	imm	7580596.3535549	nan	nan	nan	nan	nan
87.51513671875	0.0	40	179231	3	53	260	0	0	7580588.8884739	7580588.8891785	80	7580591.9211183	7580591.9214746	40	7580595.3037417	7580595.304734	100	imm	7580596.3535549	nan	nan	nan	nan	nan
90.8974609375	0.0	100	186158	3	53	260	0	0	7580588.8884739	7580588.8891785	80	7580591.9211183	7580591.9214746	40	7580595.3037417	7580595.304734	100	imm	7580596.3535549	nan	nan	nan	nan	nan
94.6015625	0.0	80	193744	4	63	365	1	1	7580599.0076757	7580599.0083812	80	7580602.2278899	7580602.2285884	40	7580605.5158011	7580605.5165154	100	imm	7580612.5776584	7580613.0901286	7580613.090813	120.0	4.0	7580614.0493089
97.82177734375	0.0	40	200339	4	63	365	1	1	7580599.0076757	7580599.0083812	80	7580602.2278899	7580602.2285884	40	7580605.5158011	7580605.5165154	100	imm	7580612.5776584	7580613.0901286	7580613.090813	120.0	4.0	7580614.0493089
101.10986328125	0.0	100	207073	4	63	365	1	1	7580599.0076757	7580599.0083812	80	7580602.2278899	7580602.2285884	40	7580605.5158011	7580605.5165154	100	imm	7580612.5776584	7580613.0901286	7580613.090813	120.0	4.0	7580614.0493089
108.68359375	0.0	120	222584	4	63	365	1	1	7580599.0076757	7580599.0083812	80	7580602.2278899	7580602.2285884	40	7580605.5158011	7580605.5165154	100	imm	7580612.5776584	7580613.0901286	7580613.090813	120.0	4.0	7580614.0493089
112.1357421875	0.0	80	229654	5	83	180	1	1	7580616.5424822	7580616.5447901	80	7580619.7654903	7580619.7681373	40	7580623.2771083	7580623.2793522	100	imm	7580624.5534914	7580625.066924	7580625.0679016	120.0	3.0	7580626.6015982
115.35888671875	0.0	40	236255	5	83	180	1	1	7580616.5424822	7580616.5447901	80	7580619.7654903	7580619.7681373	40	7580623.2771083	7580623.2793522	100	imm	7580624.5534914	7580625.066924	7580625.0679016	120.0	3.0	7580626.6015982
118.8701171875	0.0	100	243446	5	83	180	1	1	7580616.5424822	7580616.5447901	80	7580619.7654903	7580619.7681373	40	7580623.2771083	7580623.2793522	100	imm	7580624.5534914	7580625.066924	7580625.0679016	120.0	3.0	7580626.6015982
120.66015625	0.0	120	247112	5	83	180	1	1	7580616.5424822	7580616.5447901	80	7580619.7654903	7580619.7681373	40	7580623.2771083	7580623.2793522	100	imm	7580624.5534914	7580625.066924	7580625.0679016	120.0	3.0	7580626.6015982
124.36279296875	0.0	80	254695	6	100	365	1	1	7580628.7696506	7580628.7699844	80	7580632.1263538	7580632.1268602	40	7580635.472968	7580635.4734953	100	del	7580637.2351703	7580637.7483466	7580637.7493652	120.0	3.0	7580639.1613159
127.71923828125	0.0	40	261569	6	100	365	1	1	7580628.7696506	7580628.7699844	80	7580632.1263538	7580632.1268602	40	7580635.472968	7580635.4734953	100	del	7580637.2351703	7580637.7483466	7580637.7493652	120.0	3.0	7580639.1613159
131.06591796875	0.0	100	268423	6	100	365	1	1	7580628.7696506	7580628.7699844	80	7580632.1263538	7580632.1268602	40	7580635.472968	7580635.4734953	100	del	7580637.2351703	7580637.7483466	7580637.7493652	120.0	3.0	7580639.1613159
133.34130859375	0.0	120	273083	6	100	365	1	1	7580628.7696506	7580628.7699844	80	7580632.1263538	7580632.1268602	40	7580635.472968	7580635.4734953	100	del	7580637.2351703	7580637.7483466	7580637.7493652	120.0	3.0	7580639.1613159
137.037109375	0.0	80	280652	7	97	365	1	0	7580641.44471	7580641.4451792	80	7580644.8020095	7580644.8024821	40	7580648.1510526	7580648.1515629	100	imm	7580653.009286	7580653.5226322	7580653.5247255	120.0	3.0	7580658.1855845
140.39453125	0.0	40	287528	7	97	365	1	0	7580641.44471	7580641.4451792	80	7580644.8020095	7580644.8024821	40	7580648.1510526	7580648.1515629	100	imm	7580653.009286	7580653.5226322	7580653.5247255	120.0	3.0	7580658.1855845
143.74365234375	0.0	100	294387	7	97	365	1	0	7580641.44471	7580641.4451792	80	7580644.8020095	7580644.8024821	40	7580648.1510526	7580648.1515629	100	imm	7580653.009286	7580653.5226322	7580653.5247255	120.0	3.0	7580658.1855845
149.115234375	0.0	120	305388	7	97	365	1	0	7580641.44471	7580641.4451792	80	7580644.8020095	7580644.8024821	40	7580648.1510526	7580648.1515629	100	imm	7580653.009286	7580653.5226322	7580653.5247255	120.0	3.0	7580658.1855845
155.8818359375	0.0	80	319246	8	83	700	1	1	7580660.2900173	7580660.2904565	80	7580663.3609628	7580663.3613813	40	7580666.8740463	7580666.874436	100	imm	7580668.1070542	7580668.6204082	7580668.6208694	120.0	4.0	7580669.28118
158.953125	0.0	40	325536	8	83	700	1	1	7580660.2900173	7580660.2904565	80	7580663.3609628	7580663.3613813	40	7580666.8740463	7580666.874436	100	imm	7580668.1070542	7580668.6204082	7580668.6208694	120.0	4.0	7580669.28118
162.4658203125	0.0	100	332730	8	83	700	1	1	7580660.2900173	7580660.2904565	80	7580663.3609628	7580663.3613813	40	7580666.8740463	7580666.874436	100	imm	7580668.1070542	7580668.6204082	7580668.6208694	120.0	4.0	7580669.28118
164.21240234375	0.0	120	336307	8	83	700	1	1	7580660.2900173	7580660.2904565	80	7580663.3609628	7580663.3613813	40	7580666.8740463	7580666.874436	100	imm	7580668.1070542	7580668.6204082	7580668.6208694	120.0	4.0	7580669.28118
166.974609375	0.0	80	341964	9	100	510	0	0	7580671.3829842	7580671.3834506	80	7580674.4070825	7580674.4075408	40	7580677.7012045	7580677.7016661	100	imm	7580678.4015702	nan	nan	nan	nan	nan
169.99853515625	0.0	40	348157	9	100	510	0	0	7580671.3829842	7580671.3834506	80	7580674.4070825	7580674.4075408	40	7580677.7012045	7580677.7016661	100	imm	7580678.4015702	nan	nan	nan	nan	nan
173.29296875	0.0	100	354904	9	100	510	0	0	7580671.3829842	7580671.3834506	80	7580674.4070825	7580674.4075408	40	7580677.7012045	7580677.7016661	100	imm	7580678.4015702	nan	nan	nan	nan	nan
176.95166015625	0.0	80	362397	10	70	40	0	1	7580681.36032	7580681.3608775	80	7580684.7021225	7580684.7025945	40	7580687.8112611	7580687.8117537	100	del	7580689.5389816	nan	nan	nan	nan	nan
180.29345703125	0.0	40	369241	10	70	40	0	1	7580681.36032	7580681.3608775	80	7580684.7021225	7580684.7025945	40	7580687.8112611	7580687.8117537	100	del	7580689.5389816	nan	nan	nan	nan	nan
183.40283203125	0.0	100	375609	10	70	40	0	1	7580681.36032	7580681.3608775	80	7580684.7021225	7580684.7025945	40	7580687.8112611	7580687.8117537	100	del	7580689.5389816	nan	nan	nan	nan	nan
187.830078125	0.0	80	384676	11	73	700	1	1	7580692.238769	7580692.2391655	80	7580695.476783	7580695.4772491	40	7580698.9811497	7580698.9817103	100	imm	7580700.275243	7580700.7849614	7580700.7853025	120.0	4.0	7580702.0095194
191.06787109375	0.0	40	391307	11	73	700	1	1	7580692.238769	7580692.2391655	80	7580695.476783	7580695.4772491	40	7580698.9811497	7580698.9817103	100	imm	7580700.275243	7580700.7849614	7580700.7853025	120.0	4.0	7580702.0095194
194.572265625	0.0	100	398484	11	73	700	1	1	7580692.238769	7580692.2391655	80	7580695.476783	7580695.4772491	40	7580698.9811497	7580698.9817103	100	imm	7580700.275243	7580700.7849614	7580700.7853025	120.0	4.0	7580702.0095194
196.3759765625	0.0	120	402178	11	73	700	1	1	7580692.238769	7580692.2391655	80	7580695.476783	7580695.4772491	40	7580698.9811497	7580698.9817103	100	imm	7580700.275243	7580700.7849614	7580700.7853025	120.0	4.0	7580702.0095194
199.69189453125	0.0	80	408969	12	50	180	1	1	7580704.101237	7580704.1017187	80	7580707.5364886	7580707.5369585	40	7580710.8718729	7580710.8722794	100	imm	7580712.0334264	7580712.5470959	7580712.5476145	120.0	4.0	7580713.8672029
203.12744140625	0.0	40	416005	12	50	180	1	1	7580704.101237	7580704.1017187	80	7580707.5364886	7580707.5369585	40	7580710.8718729	7580710.8722794	100	imm	7580712.0334264	7580712.5470959	7580712.5476145	120.0	4.0	7580713.8672029
206.46240234375	0.0	100	422835	12	50	180	1	1	7580704.101237	7580704.1017187	80	7580707.5364886	7580707.5369585	40	7580710.8718729	7580710.8722794	100	imm	7580712.0334264	7580712.5470959	7580712.5476145	120.0	4.0	7580713.8672029
208.1376953125	0.0	120	426266	12	50	180	1	1	7580704.101237	7580704.1017187	80	7580707.5364886	7580707.5369585	40	7580710.8718729	7580710.8722794	100	imm	7580712.0334264	7580712.5470959	7580712.5476145	120.0	4.0	7580713.8672029
211.658203125	0.0	80	433476	13	50	970	0	1	7580716.067576	7580716.0679644	80	7580719.1704656	7580719.1709403	40	7580722.3983563	7580722.3988402	100	imm	7580723.6737357	nan	nan	nan	nan	nan
214.7607421875	0.0	40	439830	13	50	970	0	1	7580716.067576	7580716.0679644	80	7580719.1704656	7580719.1709403	40	7580722.3983563	7580722.3988402	100	imm	7580723.6737357	nan	nan	nan	nan	nan
217.98876953125	0.0	100	446441	13	50	970	0	1	7580716.067576	7580716.0679644	80	7580719.1704656	7580719.1709403	40	7580722.3983563	7580722.3988402	100	imm	7580723.6737357	nan	nan	nan	nan	nan
222.02197265625	0.0	80	454701	14	90	180	1	1	7580726.4315565	7580726.4319177	80	7580729.498574	7580729.4990059	40	7580732.8002356	7580732.8004858	100	na	7580736.7534041	7580737.2652288	7580737.2656921	120.0	4.0	7580739.5380192
225.0888671875	0.0	40	460982	14	90	180	1	1	7580726.4315565	7580726.4319177	80	7580729.498574	7580729.4990059	40	7580732.8002356	7580732.8004858	100	na	7580736.7534041	7580737.2652288	7580737.2656921	120.0	4.0	7580739.5380192
228.39013671875	0.0	100	467743	14	90	180	1	1	7580726.4315565	7580726.4319177	80	7580729.498574	7580729.4990059	40	7580732.8002356	7580732.8004858	100	na	7580736.7534041	7580737.2652288	7580737.2656921	120.0	4.0	7580739.5380192
232.85498046875	0.0	120	476887	14	90	180	1	1	7580726.4315565	7580726.4319177	80	7580729.498574	7580729.4990059	40	7580732.8002356	7580732.8004858	100	na	7580736.7534041	7580737.2652288	7580737.2656921	120.0	4.0	7580739.5380192
237.2529296875	0.0	80	485894	15	100	970	0	1	7580741.6632514	7580741.6636079	80	7580744.8616231	7580744.8619718	40	7580748.1660887	7580748.1665899	100	imm	7580756.9373548	nan	nan	nan	nan	nan
240.451171875	0.0	40	492444	15	100	970	0	1	7580741.6632514	7580741.6636079	80	7580744.8616231	7580744.8619718	40	7580748.1660887	7580748.1665899	100	imm	7580756.9373548	nan	nan	nan	nan	nan
243.755859375	0.0	100	499212	15	100	970	0	1	7580741.6632514	7580741.6636079	80	7580744.8616231	7580744.8619718	40	7580748.1660887	7580748.1665899	100	imm	7580756.9373548	nan	nan	nan	nan	nan
255.17041015625	0.0	80	522589	16	100	180	1	1	7580759.5808618	7580759.5813717	80	7580762.7337981	7580762.7343843	40	7580766.0557996	7580766.0562982	100	del	7580771.8903233	7580772.4014846	7580772.401938	120.0	4.0	7580773.3620423
258.3232421875	0.0	40	529046	16	100	180	1	1	7580759.5808618	7580759.5813717	80	7580762.7337981	7580762.7343843	40	7580766.0557996	7580766.0562982	100	del	7580771.8903233	7580772.4014846	7580772.401938	120.0	4.0	7580773.3620423
261.64501953125	0.0	100	535849	16	100	180	1	1	7580759.5808618	7580759.5813717	80	7580762.7337981	7580762.7343843	40	7580766.0557996	7580766.0562982	100	del	7580771.8903233	7580772.4014846	7580772.401938	120.0	4.0	7580773.3620423
267.990234375	0.0	120	548844	16	100	180	1	1	7580759.5808618	7580759.5813717	80	7580762.7337981	7580762.7343843	40	7580766.0557996	7580766.0562982	100	del	7580771.8903233	7580772.4014846	7580772.401938	120.0	4.0	7580773.3620423
271.09814453125	0.0	80	555209	17	80	130	0	1	7580775.5094359	7580775.5098656	80	7580778.9290232	7580778.929455	40	7580782.434597	7580782.4351239	100	del	7580783.3614712	nan	nan	nan	nan	nan
274.517578125	0.0	40	562212	17	80	130	0	1	7580775.5094359	7580775.5098656	80	7580778.9290232	7580778.929455	40	7580782.434597	7580782.4351239	100	del	7580783.3614712	nan	nan	nan	nan	nan
278.0234375	0.0	100	569392	17	80	130	0	1	7580775.5094359	7580775.5098656	80	7580778.9290232	7580778.929455	40	7580782.434597	7580782.4351239	100	del	7580783.3614712	nan	nan	nan	nan	nan
281.83056640625	0.0	80	577189	18	93	130	0	1	7580786.2420825	7580786.2425725	80	7580789.4216535	7580789.4221782	40	7580792.726876	7580792.727332	100	del	7580793.2421907	nan	nan	nan	nan	nan
285.01025390625	0.0	40	583701	18	93	130	0	1	7580786.2420825	7580786.2425725	80	7580789.4216535	7580789.4221782	40	7580792.726876	7580792.727332	100	del	7580793.2421907	nan	nan	nan	nan	nan
288.3154296875	0.0	100	590470	18	93	130	0	1	7580786.2420825	7580786.2425725	80	7580789.4216535	7580789.4221782	40	7580792.726876	7580792.727332	100	del	7580793.2421907	nan	nan	nan	nan	nan
291.3994140625	0.0	80	596786	19	73	970	0	1	7580795.8114098	7580795.81178	80	7580799.2709039	7580799.2712857	40	7580802.7252744	7580802.7257563	100	imm	7580803.4893277	nan	nan	nan	nan	nan
294.85888671875	0.0	40	603871	19	73	970	0	1	7580795.8114098	7580795.81178	80	7580799.2709039	7580799.2712857	40	7580802.7252744	7580802.7257563	100	imm	7580803.4893277	nan	nan	nan	nan	nan
298.3134765625	0.0	100	610946	19	73	970	0	1	7580795.8114098	7580795.81178	80	7580799.2709039	7580799.2712857	40	7580802.7252744	7580802.7257563	100	imm	7580803.4893277	nan	nan	nan	nan	nan
302.0029296875	0.0	80	618502	20	97	180	1	0	7580806.414986	7580806.4154701	80	7580809.5535205	7580809.5539477	40	7580812.8643868	7580812.8649097	100	imm	7580824.9633071	7580825.4737031	7580825.4740705	120.0	4.0	7580826.8262681
305.1416015625	0.0	40	624930	20	97	180	1	0	7580806.414986	7580806.4154701	80	7580809.5535205	7580809.5539477	40	7580812.8643868	7580812.8649097	100	imm	7580824.9633071	7580825.4737031	7580825.4740705	120.0	4.0	7580826.8262681
308.4521484375	0.0	100	631710	20	97	180	1	0	7580806.414986	7580806.4154701	80	7580809.5535205	7580809.5539477	40	7580812.8643868	7580812.8649097	100	imm	7580824.9633071	7580825.4737031	7580825.4740705	120.0	4.0	7580826.8262681
321.06103515625	0.0	120	657533	20	97	180	1	0	7580806.414986	7580806.4154701	80	7580809.5535205	7580809.5539477	40	7580812.8643868	7580812.8649097	100	imm	7580824.9633071	7580825.4737031	7580825.4740705	120.0	4.0	7580826.8262681
355.705078125	0.0	80	728484	21	57	970	0	1	7580860.1185998	7580860.1189621	80	7580863.3385961	7580863.3390842	40	7580866.5088871	7580866.5093259	100	imm	7580868.4338256	nan	nan	nan	nan	nan
358.92529296875	0.0	40	735079	21	57	970	0	1	7580860.1185998	7580860.1189621	80	7580863.3385961	7580863.3390842	40	7580866.5088871	7580866.5093259	100	imm	7580868.4338256	nan	nan	nan	nan	nan
362.09521484375	0.0	100	741571	21	57	970	0	1	7580860.1185998	7580860.1189621	80	7580863.3385961	7580863.3390842	40	7580866.5088871	7580866.5093259	100	imm	7580868.4338256	nan	nan	nan	nan	nan
366.61767578125	0.0	80	750833	22	100	700	1	1	7580871.0314245	7580871.0318573	80	7580874.1281443	7580874.1286025	40	7580877.3487881	7580877.349141	100	na	7580878.2023229	7580878.7133119	7580878.7137014	120.0	4.0	7580879.6738536
369.71435546875	0.0	40	757175	22	100	700	1	1	7580871.0314245	7580871.0318573	80	7580874.1281443	7580874.1286025	40	7580877.3487881	7580877.349141	100	na	7580878.2023229	7580878.7133119	7580878.7137014	120.0	4.0	7580879.6738536
372.9345703125	0.0	100	763770	22	100	700	1	1	7580871.0314245	7580871.0318573	80	7580874.1281443	7580874.1286025	40	7580877.3487881	7580877.349141	100	na	7580878.2023229	7580878.7133119	7580878.7137014	120.0	4.0	7580879.6738536
374.29931640625	0.0	120	766565	22	100	700	1	1	7580871.0314245	7580871.0318573	80	7580874.1281443	7580874.1286025	40	7580877.3487881	7580877.349141	100	na	7580878.2023229	7580878.7133119	7580878.7137014	120.0	4.0	7580879.6738536
377.3193359375	0.0	80	772750	23	87	510	0	1	7580881.7335685	7580881.7339806	80	7580885.0410063	7580885.0414891	40	7580888.290036	7580888.2905273	100	imm	7580889.3934035	nan	nan	nan	nan	nan
380.626953125	0.0	40	779524	23	87	510	0	1	7580881.7335685	7580881.7339806	80	7580885.0410063	7580885.0414891	40	7580888.290036	7580888.2905273	100	imm	7580889.3934035	nan	nan	nan	nan	nan
383.8759765625	0.0	100	786178	23	87	510	0	1	7580881.7335685	7580881.7339806	80	7580885.0410063	7580885.0414891	40	7580888.290036	7580888.2905273	100	imm	7580889.3934035	nan	nan	nan	nan	nan
387.84326171875	0.0	80	794303	24	63	130	0	1	7580892.2575976	7580892.2579567	80	7580895.6149404	7580895.6154069	40	7580898.9476524	7580898.9481289	100	imm	7580902.1618302	nan	nan	nan	nan	nan
391.20068359375	0.0	40	801179	24	63	130	0	1	7580892.2575976	7580892.2579567	80	7580895.6149404	7580895.6154069	40	7580898.9476524	7580898.9481289	100	imm	7580902.1618302	nan	nan	nan	nan	nan
394.533203125	0.0	100	808004	24	63	130	0	1	7580892.2575976	7580892.2579567	80	7580895.6149404	7580895.6154069	40	7580898.9476524	7580898.9481289	100	imm	7580902.1618302	nan	nan	nan	nan	nan
400.28271484375	0.0	80	819779	25	77	700	1	0	7580904.6975423	7580904.6979908	80	7580907.738824	7580907.7392212	40	7580910.9121678	7580910.9126854	100	na	7580911.3938673	7580911.9037922	7580911.9041924	120.0	4.0	7580912.4097466
403.32421875	0.0	40	826008	25	77	700	1	0	7580904.6975423	7580904.6979908	80	7580907.738824	7580907.7392212	40	7580910.9121678	7580910.9126854	100	na	7580911.3938673	7580911.9037922	7580911.9041924	120.0	4.0	7580912.4097466
406.4970703125	0.0	100	832506	25	77	700	1	0	7580904.6975423	7580904.6979908	80	7580907.738824	7580907.7392212	40	7580910.9121678	7580910.9126854	100	na	7580911.3938673	7580911.9037922	7580911.9041924	120.0	4.0	7580912.4097466
407.48876953125	0.0	120	834537	25	77	700	1	0	7580904.6975423	7580904.6979908	80	7580907.738824	7580907.7392212	40	7580910.9121678	7580910.9126854	100	na	7580911.3938673	7580911.9037922	7580911.9041924	120.0	4.0	7580912.4097466
410.27734375	0.0	80	840248	26	80	365	1	1	7580914.6922149	7580914.6926999	80	7580918.0268912	7580918.0273893	40	7580921.2411356	7580921.2414877	100	na	7580922.0112283	7580922.5212427	7580922.5215562	120.0	4.0	7580923.4264805
413.61181640625	0.0	40	847077	26	80	365	1	1	7580914.6922149	7580914.6926999	80	7580918.0268912	7580918.0273893	40	7580921.2411356	7580921.2414877	100	na	7580922.0112283	7580922.5212427	7580922.5215562	120.0	4.0	7580923.4264805
416.82568359375	0.0	100	853659	26	80	365	1	1	7580914.6922149	7580914.6926999	80	7580918.0268912	7580918.0273893	40	7580921.2411356	7580921.2414877	100	na	7580922.0112283	7580922.5212427	7580922.5215562	120.0	4.0	7580923.4264805
418.10595703125	0.0	120	856281	26	80	365	1	1	7580914.6922149	7580914.6926999	80	7580918.0268912	7580918.0273893	40	7580921.2411356	7580921.2414877	100	na	7580922.0112283	7580922.5212427	7580922.5215562	120.0	4.0	7580923.4264805
421.43408203125	0.0	80	863097	27	63	40	0	0	7580925.8493389	7580925.8497508	80	7580929.215934	7580929.2165874	40	7580932.7132902	7580932.7137889	100	imm	7580934.0033384	nan	nan	nan	nan	nan
424.80078125	0.0	40	869992	27	63	40	0	0	7580925.8493389	7580925.8497508	80	7580929.215934	7580929.2165874	40	7580932.7132902	7580932.7137889	100	imm	7580934.0033384	nan	nan	nan	nan	nan
428.2978515625	0.0	100	877154	27	63	40	0	0	7580925.8493389	7580925.8497508	80	7580929.215934	7580929.2165874	40	7580932.7132902	7580932.7137889	100	imm	7580934.0033384	nan	nan	nan	nan	nan
432.37109375	0.0	80	885496	28	73	130	0	0	7580936.7866694	7580936.7871584	80	7580939.9567218	7580939.9572131	40	7580943.0233104	7580943.0238032	100	imm	7580950.8823547	nan	nan	nan	nan	nan
435.541015625	0.0	40	891988	28	73	130	0	0	7580936.7866694	7580936.7871584	80	7580939.9567218	7580939.9572131	40	7580943.0233104	7580943.0238032	100	imm	7580950.8823547	nan	nan	nan	nan	nan
438.607421875	0.0	100	898268	28	73	130	0	0	7580936.7866694	7580936.7871584	80	7580939.9567218	7580939.9572131	40	7580943.0233104	7580943.0238032	100	imm	7580950.8823547	nan	nan	nan	nan	nan
449.28955078125	0.0	80	920145	29	60	40	0	0	7580953.7056839	7580953.7060911	80	7580957.1024923	7580957.102998	40	7580960.323466	7580960.3237915	100	del	7580966.2431637	nan	nan	nan	nan	nan
452.6865234375	0.0	40	927102	29	60	40	0	0	7580953.7056839	7580953.7060911	80	7580957.1024923	7580957.102998	40	7580960.323466	7580960.3237915	100	del	7580966.2431637	nan	nan	nan	nan	nan
455.9072265625	0.0	100	933698	29	60	40	0	0	7580953.7056839	7580953.7060911	80	7580957.1024923	7580957.102998	40	7580960.323466	7580960.3237915	100	del	7580966.2431637	nan	nan	nan	nan	nan
464.38720703125	0.0	80	951065	30	60	130	0	1	7580968.8039197	7580968.8043625	80	7580971.945208	7580971.9457606	40	7580975.0355532	7580975.0360525	100	imm	7580980.6752372	nan	nan	nan	nan	nan
467.52880859375	0.0	40	957499	30	60	130	0	1	7580968.8039197	7580968.8043625	80	7580971.945208	7580971.9457606	40	7580975.0355532	7580975.0360525	100	imm	7580980.6752372	nan	nan	nan	nan	nan
470.61865234375	0.0	100	963827	30	60	130	0	1	7580968.8039197	7580968.8043625	80	7580971.945208	7580971.9457606	40	7580975.0355532	7580975.0360525	100	imm	7580980.6752372	nan	nan	nan	nan	nan
478.91357421875	0.0	80	980815	31	60	510	0	1	7580983.3303505	7580983.3307083	80	7580986.5562903	7580986.5566344	40	7580989.8301931	7580989.8305295	100	imm	7580991.1140895	nan	nan	nan	nan	nan
482.13916015625	0.0	40	987421	31	60	510	0	1	7580983.3303505	7580983.3307083	80	7580986.5562903	7580986.5566344	40	7580989.8301931	7580989.8305295	100	imm	7580991.1140895	nan	nan	nan	nan	nan
485.4130859375	0.0	100	994126	31	60	510	0	1	7580983.3303505	7580983.3307083	80	7580986.5562903	7580986.5566344	40	7580989.8301931	7580989.8305295	100	imm	7580991.1140895	nan	nan	nan	nan	nan
489.4443359375	0.0	80	1002382	32	53	90	1	1	7580993.8616546	7580993.8622045	80	7580997.3063531	7580997.3067636	40	7581000.5793456	7581000.5798215	100	imm	7581001.7303692	7581002.2427169	7581002.2432104	120.0	4.0	7581003.0744312
492.88916015625	0.0	40	1009437	32	53	90	1	1	7580993.8616546	7580993.8622045	80	7580997.3063531	7580997.3067636	40	7581000.5793456	7581000.5798215	100	imm	7581001.7303692	7581002.2427169	7581002.2432104	120.0	4.0	7581003.0744312
496.162109375	0.0	100	1016140	32	53	90	1	1	7580993.8616546	7580993.8622045	80	7580997.3063531	7580997.3067636	40	7581000.5793456	7581000.5798215	100	imm	7581001.7303692	7581002.2427169	7581002.2432104	120.0	4.0	7581003.0744312
497.8251953125	0.0	120	1019546	32	53	90	1	1	7580993.8616546	7580993.8622045	80	7580997.3063531	7580997.3067636	40	7581000.5793456	7581000.5798215	100	imm	7581001.7303692	7581002.2427169	7581002.2432104	120.0	4.0	7581003.0744312
501.14404296875	0.0	80	1026343	33	93	90	1	0	7581005.5616271	7581005.562105	80	7581008.8880643	7581008.8885056	40	7581012.3791461	7581012.3796263	100	del	7581014.4423258	7581014.9526764	7581014.9530773	120.0	4.0	7581016.2902442
504.470703125	0.0	40	1033156	33	93	90	1	0	7581005.5616271	7581005.562105	80	7581008.8880643	7581008.8885056	40	7581012.3791461	7581012.3796263	100	del	7581014.4423258	7581014.9526764	7581014.9530773	120.0	4.0	7581016.2902442
507.96142578125	0.0	100	1040305	33	93	90	1	0	7581005.5616271	7581005.562105	80	7581008.8880643	7581008.8885056	40	7581012.3791461	7581012.3796263	100	del	7581014.4423258	7581014.9526764	7581014.9530773	120.0	4.0	7581016.2902442
510.53466796875	0.0	120	1045575	33	93	90	1	0	7581005.5616271	7581005.562105	80	7581008.8880643	7581008.8885056	40	7581012.3791461	7581012.3796263	100	del	7581014.4423258	7581014.9526764	7581014.9530773	120.0	4.0	7581016.2902442
514.0087890625	0.0	80	1052690	34	63	90	1	0	7581018.4264776	7581018.426944	80	7581021.7708316	7581021.7711965	40	7581024.9285353	7581024.9289704	100	imm	7581025.9061441	7581026.4149537	7581026.4152788	120.0	4.0	7581027.3303874
517.35302734375	0.0	40	1059539	34	63	90	1	0	7581018.4264776	7581018.426944	80	7581021.7708316	7581021.7711965	40	7581024.9285353	7581024.9289704	100	imm	7581025.9061441	7581026.4149537	7581026.4152788	120.0	4.0	7581027.3303874
520.5107421875	0.0	100	1066006	34	63	90	1	0	7581018.4264776	7581018.426944	80	7581021.7708316	7581021.7711965	40	7581024.9285353	7581024.9289704	100	imm	7581025.9061441	7581026.4149537	7581026.4152788	120.0	4.0	7581027.3303874
521.99658203125	0.0	120	1069049	34	63	90	1	0	7581018.4264776	7581018.426944	80	7581021.7708316	7581021.7711965	40	7581024.9285353	7581024.9289704	100	imm	7581025.9061441	7581026.4149537	7581026.4152788	120.0	4.0	7581027.3303874
525.26416015625	0.0	80	1075741	35	67	90	1	0	7581029.6822671	7581029.6826859	80	7581033.0375576	7581033.0380595	40	7581036.0824472	7581036.0828231	100	imm	7581036.6825301	7581037.193799	7581037.194219	120.0	4.0	7581037.618126
528.619140625	0.0	40	1082612	35	67	90	1	0	7581029.6822671	7581029.6826859	80	7581033.0375576	7581033.0380595	40	7581036.0824472	7581036.0828231	100	imm	7581036.6825301	7581037.193799	7581037.194219	120.0	4.0	7581037.618126
531.6640625	0.0	100	1088848	35	67	90	1	0	7581029.6822671	7581029.6826859	80	7581033.0375576	7581033.0380595	40	7581036.0824472	7581036.0828231	100	imm	7581036.6825301	7581037.193799	7581037.194219	120.0	4.0	7581037.618126
532.775390625	0.0	120	1091124	35	67	90	1	0	7581029.6822671	7581029.6826859	80	7581033.0375576	7581033.0380595	40	7581036.0824472	7581036.0828231	100	imm	7581036.6825301	7581037.193799	7581037.194219	120.0	4.0	7581037.618126
535.34228515625	0.0	80	1096381	36	57	130	0	1	7581039.760953	7581039.7614797	80	7581042.8807585	7581042.8812362	40	7581046.2284463	7581046.2289735	100	imm	7581047.1376978	nan	nan	nan	nan	nan
538.46240234375	0.0	40	1102771	36	57	130	0	1	7581039.760953	7581039.7614797	80	7581042.8807585	7581042.8812362	40	7581046.2284463	7581046.2289735	100	imm	7581047.1376978	nan	nan	nan	nan	nan
541.81005859375	0.0	100	1109627	36	57	130	0	1	7581039.760953	7581039.7614797	80	7581042.8807585	7581042.8812362	40	7581046.2284463	7581046.2289735	100	imm	7581047.1376978	nan	nan	nan	nan	nan
545.6591796875	0.0	80	1117510	37	70	260	0	0	7581050.0777578	7581050.0781549	80	7581053.2576049	7581053.2580929	40	7581056.6613652	7581056.6618236	100	imm	7581058.578487	nan	nan	nan	nan	nan
548.8388671875	0.0	40	1124022	37	70	260	0	0	7581050.0777578	7581050.0781549	80	7581053.2576049	7581053.2580929	40	7581056.6613652	7581056.6618236	100	imm	7581058.578487	nan	nan	nan	nan	nan
552.24267578125	0.0	100	1130993	37	70	260	0	0	7581050.0777578	7581050.0781549	80	7581053.2576049	7581053.2580929	40	7581056.6613652	7581056.6618236	100	imm	7581058.578487	nan	nan	nan	nan	nan
557.013671875	0.0	80	1140764	38	63	180	1	1	7581061.4326369	7581061.4330925	80	7581064.4431678	7581064.4435891	40	7581067.756346	7581067.7567861	100	imm	7581070.9936861	7581071.5057336	7581071.5061762	120.0	3.0	7581072.4658133
560.02392578125	0.0	40	1146929	38	63	180	1	1	7581061.4326369	7581061.4330925	80	7581064.4431678	7581064.4435891	40	7581067.756346	7581067.7567861	100	imm	7581070.9936861	7581071.5057336	7581071.5061762	120.0	3.0	7581072.4658133
563.3369140625	0.0	100	1153714	38	63	180	1	1	7581061.4326369	7581061.4330925	80	7581064.4431678	7581064.4435891	40	7581067.756346	7581067.7567861	100	imm	7581070.9936861	7581071.5057336	7581071.5061762	120.0	3.0	7581072.4658133
567.08642578125	0.0	120	1161393	38	63	180	1	1	7581061.4326369	7581061.4330925	80	7581064.4431678	7581064.4435891	40	7581067.756346	7581067.7567861	100	imm	7581070.9936861	7581071.5057336	7581071.5061762	120.0	3.0	7581072.4658133
570.25537109375	0.0	80	1167883	39	80	510	0	0	7581074.6748701	7581074.6753013	80	7581078.1399332	7581078.1403937	40	7581081.1530741	7581081.1536112	100	imm	7581083.7699729	nan	nan	nan	nan	nan
573.72021484375	0.0	40	1174979	39	80	510	0	0	7581074.6748701	7581074.6753013	80	7581078.1399332	7581078.1403937	40	7581081.1530741	7581081.1536112	100	imm	7581083.7699729	nan	nan	nan	nan	nan
576.7333984375	0.0	100	1181150	39	80	510	0	0	7581074.6748701	7581074.6753013	80	7581078.1399332	7581078.1403937	40	7581081.1530741	7581081.1536112	100	imm	7581083.7699729	nan	nan	nan	nan	nan
582.0986328125	0.0	80	1192138	40	83	90	1	1	7581086.5182794	7581086.5187583	80	7581089.7381236	7581089.7386133	40	7581092.9823853	7581092.9828855	100	na	7581094.0022721	7581094.5124948	7581094.5129353	120.0	4.0	7581095.4265994
585.318359375	0.0	40	1198732	40	83	90	1	1	7581086.5182794	7581086.5187583	80	7581089.7381236	7581089.7386133	40	7581092.9823853	7581092.9828855	100	na	7581094.0022721	7581094.5124948	7581094.5129353	120.0	4.0	7581095.4265994
588.5625	0.0	100	1205376	40	83	90	1	1	7581086.5182794	7581086.5187583	80	7581089.7381236	7581089.7386133	40	7581092.9823853	7581092.9828855	100	na	7581094.0022721	7581094.5124948	7581094.5129353	120.0	4.0	7581095.4265994
590.09228515625	0.0	120	1208509	40	83	90	1	1	7581086.5182794	7581086.5187583	80	7581089.7381236	7581089.7386133	40	7581092.9823853	7581092.9828855	100	na	7581094.0022721	7581094.5124948	7581094.5129353	120.0	4.0	7581095.4265994
620.16748046875	0.0	80	1270103	41	90	260	0	0	7581124.5884622	7581124.5889456	80	7581127.7572158	7581127.757648	40	7581131.163351	7581131.1638446	100	imm	7581135.6744895	nan	nan	nan	nan	nan
623.33642578125	0.0	40	1276593	41	90	260	0	0	7581124.5884622	7581124.5889456	80	7581127.7572158	7581127.757648	40	7581131.163351	7581131.1638446	100	imm	7581135.6744895	nan	nan	nan	nan	nan
626.7421875	0.0	100	1283568	41	90	260	0	0	7581124.5884622	7581124.5889456	80	7581127.7572158	7581127.757648	40	7581131.163351	7581131.1638446	100	imm	7581135.6744895	nan	nan	nan	nan	nan
634.0048828125	0.0	80	1298442	42	87	130	0	1	7581138.4261107	7581138.426646	80	7581141.4514813	7581141.4519548	40	7581144.5524493	7581144.5529309	100	del	7581150.9383287	nan	nan	nan	nan	nan
637.0302734375	0.0	40	1304638	42	87	130	0	1	7581138.4261107	7581138.426646	80	7581141.4514813	7581141.4519548	40	7581144.5524493	7581144.5529309	100	del	7581150.9383287	nan	nan	nan	nan	nan
640.13134765625	0.0	100	1310989	42	87	130	0	1	7581138.4261107	7581138.426646	80	7581141.4514813	7581141.4519548	40	7581144.5524493	7581144.5529309	100	del	7581150.9383287	nan	nan	nan	nan	nan
649.39306640625	0.0	80	1329957	43	50	260	0	0	7581153.814555	7581153.814855	80	7581157.0588795	7581157.0593373	40	7581160.1489949	7581160.1494729	100	imm	7581160.858672	nan	nan	nan	nan	nan
652.63720703125	0.0	40	1336601	43	50	260	0	0	7581153.814555	7581153.814855	80	7581157.0588795	7581157.0593373	40	7581160.1489949	7581160.1494729	100	imm	7581160.858672	nan	nan	nan	nan	nan
655.72705078125	0.0	100	1342929	43	50	260	0	0	7581153.814555	7581153.814855	80	7581157.0588795	7581157.0593373	40	7581160.1489949	7581160.1494729	100	imm	7581160.858672	nan	nan	nan	nan	nan
659.12451171875	0.0	80	1349887	44	93	700	1	1	7581163.5462436	7581163.5467081	80	7581166.8558276	7581166.8561912	40	7581169.9648999	7581169.9653677	100	imm	7581174.7377919	7581175.2476904	7581175.2480823	120.0	3.0	7581176.0016784
662.43359375	0.0	40	1356664	44	93	700	1	1	7581163.5462436	7581163.5467081	80	7581166.8558276	7581166.8561912	40	7581169.9648999	7581169.9653677	100	imm	7581174.7377919	7581175.2476904	7581175.2480823	120.0	3.0	7581176.0016784
665.54296875	0.0	100	1363032	44	93	700	1	1	7581163.5462436	7581163.5467081	80	7581166.8558276	7581166.8561912	40	7581169.9648999	7581169.9653677	100	imm	7581174.7377919	7581175.2476904	7581175.2480823	120.0	3.0	7581176.0016784
670.8251953125	0.0	120	1373850	44	93	700	1	1	7581163.5462436	7581163.5467081	80	7581166.8558276	7581166.8561912	40	7581169.9648999	7581169.9653677	100	imm	7581174.7377919	7581175.2476904	7581175.2480823	120.0	3.0	7581176.0016784
673.962890625	0.0	80	1380276	45	57	40	0	1	7581178.3854019	7581178.3857842	80	7581181.5142307	7581181.5146958	40	7581184.9857828	7581184.9864305	100	del	7581186.5943476	nan	nan	nan	nan	nan
677.091796875	0.0	40	1386684	45	57	40	0	1	7581178.3854019	7581178.3857842	80	7581181.5142307	7581181.5146958	40	7581184.9857828	7581184.9864305	100	del	7581186.5943476	nan	nan	nan	nan	nan
680.5634765625	0.0	100	1393794	45	57	40	0	1	7581178.3854019	7581178.3857842	80	7581181.5142307	7581181.5146958	40	7581184.9857828	7581184.9864305	100	del	7581186.5943476	nan	nan	nan	nan	nan
684.82421875	0.0	80	1402520	46	97	90	1	1	7581189.2467261	7581189.2472039	80	7581192.6356039	7581192.6360291	40	7581195.7432619	7581195.7437572	100	del	7581197.8739854	7581198.3844752	7581198.3848539	120.0	3.0	7581200.2351248
688.212890625	0.0	40	1409460	46	97	90	1	1	7581189.2467261	7581189.2472039	80	7581192.6356039	7581192.6360291	40	7581195.7432619	7581195.7437572	100	del	7581197.8739854	7581198.3844752	7581198.3848539	120.0	3.0	7581200.2351248
691.3203125	0.0	100	1415824	46	97	90	1	1	7581189.2467261	7581189.2472039	80	7581192.6356039	7581192.6360291	40	7581195.7432619	7581195.7437572	100	del	7581197.8739854	7581198.3844752	7581198.3848539	120.0	3.0	7581200.2351248
693.96142578125	0.0	120	1421233	46	97	90	1	1	7581189.2467261	7581189.2472039	80	7581192.6356039	7581192.6360291	40	7581195.7432619	7581195.7437572	100	del	7581197.8739854	7581198.3844752	7581198.3848539	120.0	3.0	7581200.2351248
697.96875	0.0	80	1429440	47	53	130	0	0	7581202.3919799	7581202.3923317	80	7581205.4450616	7581205.4454966	40	7581208.7461231	7581208.7470471	100	imm	7581209.3074547	nan	nan	nan	nan	nan
701.02197265625	0.0	40	1435693	47	53	130	0	0	7581202.3919799	7581202.3923317	80	7581205.4450616	7581205.4454966	40	7581208.7461231	7581208.7470471	100	imm	7581209.3074547	nan	nan	nan	nan	nan
704.32275390625	0.0	100	1442453	47	53	130	0	0	7581202.3919799	7581202.3923317	80	7581205.4450616	7581205.4454966	40	7581208.7461231	7581208.7470471	100	imm	7581209.3074547	nan	nan	nan	nan	nan
707.74169921875	0.0	80	1449455	48	80	40	0	0	7581212.164974	7581212.1654311	80	7581215.44512	7581215.4455315	40	7581218.6727262	7581218.67313	100	del	7581220.5136976	nan	nan	nan	nan	nan
711.02197265625	0.0	40	1456173	48	80	40	0	0	7581212.164974	7581212.1654311	80	7581215.44512	7581215.4455315	40	7581218.6727262	7581218.67313	100	del	7581220.5136976	nan	nan	nan	nan	nan
714.24951171875	0.0	100	1462783	48	80	40	0	0	7581212.164974	7581212.1654311	80	7581215.44512	7581215.4455315	40	7581218.6727262	7581218.67313	100	del	7581220.5136976	nan	nan	nan	nan	nan
718.92724609375	0.0	80	1472363	49	70	90	1	0	7581223.3506616	7581223.3510192	80	7581226.6823733	7581226.6829329	40	7581230.0353364	7581230.0359584	100	del	7581238.9219364	7581239.4339779	7581239.4343937	120.0	3.0	7581240.7624662
722.2587890625	0.0	40	1479186	49	70	90	1	0	7581223.3506616	7581223.3510192	80	7581226.6823733	7581226.6829329	40	7581230.0353364	7581230.0359584	100	del	7581238.9219364	7581239.4339779	7581239.4343937	120.0	3.0	7581240.7624662
725.61181640625	0.0	100	1486053	49	70	90	1	0	7581223.3506616	7581223.3510192	80	7581226.6823733	7581226.6829329	40	7581230.0353364	7581230.0359584	100	del	7581238.9219364	7581239.4339779	7581239.4343937	120.0	3.0	7581240.7624662
735.009765625	0.0	120	1505300	49	70	90	1	0	7581223.3506616	7581223.3510192	80	7581226.6823733	7581226.6829329	40	7581230.0353364	7581230.0359584	100	del	7581238.9219364	7581239.4339779	7581239.4343937	120.0	3.0	7581240.7624662
738.66845703125	0.0	80	1512793	50	97	130	0	1	7581243.0928541	7581243.0932069	80	7581246.572683	7581246.5731624	40	7581249.6916174	7581249.6920862	100	imm	7581252.9460765	nan	nan	nan	nan	nan
742.1484375	0.0	40	1519920	50	97	130	0	1	7581243.0928541	7581243.0932069	80	7581246.572683	7581246.5731624	40	7581249.6916174	7581249.6920862	100	imm	7581252.9460765	nan	nan	nan	nan	nan
745.267578125	0.0	100	1526308	50	97	130	0	1	7581243.0928541	7581243.0932069	80	7581246.572683	7581246.5731624	40	7581249.6916174	7581249.6920862	100	imm	7581252.9460765	nan	nan	nan	nan	nan
751.39306640625	0.0	80	1538853	51	57	510	0	0	7581255.8177618	7581255.8182687	80	7581258.9434398	7581258.9439152	40	7581262.0169898	7581262.0174943	100	imm	7581262.6581392	nan	nan	nan	nan	nan
754.51904296875	0.0	40	1545255	51	57	510	0	0	7581255.8177618	7581255.8182687	80	7581258.9434398	7581258.9439152	40	7581262.0169898	7581262.0174943	100	imm	7581262.6581392	nan	nan	nan	nan	nan
757.59228515625	0.0	100	1551549	51	57	510	0	0	7581255.8177618	7581255.8182687	80	7581258.9434398	7581258.9439152	40	7581262.0169898	7581262.0174943	100	imm	7581262.6581392	nan	nan	nan	nan	nan
761.05322265625	0.0	80	1558637	52	93	180	1	1	7581265.4777876	7581265.4783106	80	7581268.7112294	7581268.7118041	40	7581271.9537796	7581271.9542845	100	na	7581274.2340211	7581274.7461427	7581274.7465356	120.0	4.0	7581275.5641553
764.28662109375	0.0	40	1565259	52	93	180	1	1	7581265.4777876	7581265.4783106	80	7581268.7112294	7581268.7118041	40	7581271.9537796	7581271.9542845	100	na	7581274.2340211	7581274.7461427	7581274.7465356	120.0	4.0	7581275.5641553
767.52880859375	0.0	100	1571899	52	93	180	1	1	7581265.4777876	7581265.4783106	80	7581268.7112294	7581268.7118041	40	7581271.9537796	7581271.9542845	100	na	7581274.2340211	7581274.7461427	7581274.7465356	120.0	4.0	7581275.5641553
770.3212890625	0.0	120	1577618	52	93	180	1	1	7581265.4777876	7581265.4783106	80	7581268.7112294	7581268.7118041	40	7581271.9537796	7581271.9542845	100	na	7581274.2340211	7581274.7461427	7581274.7465356	120.0	4.0	7581275.5641553
773.48583984375	0.0	80	1584099	53	97	12	1	1	7581277.9111358	7581277.911645	80	7581281.303727	7581281.3041722	40	7581284.4919831	7581284.4926236	100	del	7581285.9392849	7581286.4513885	7581286.4518889	120.0	2.0	7581290.2578048
776.87841796875	0.0	40	1591047	53	97	12	1	1	7581277.9111358	7581277.911645	80	7581281.303727	7581281.3041722	40	7581284.4919831	7581284.4926236	100	del	7581285.9392849	7581286.4513885	7581286.4518889	120.0	2.0	7581290.2578048
780.06689453125	0.0	100	1597577	53	97	12	1	1	7581277.9111358	7581277.911645	80	7581281.303727	7581281.3041722	40	7581284.4919831	7581284.4926236	100	del	7581285.9392849	7581286.4513885	7581286.4518889	120.0	2.0	7581290.2578048
782.02587890625	0.0	120	1601589	53	97	12	1	1	7581277.9111358	7581277.911645	80	7581281.303727	7581281.3041722	40	7581284.4919831	7581284.4926236	100	del	7581285.9392849	7581286.4513885	7581286.4518889	120.0	2.0	7581290.2578048
788.1748046875	0.0	80	1614182	54	80	180	1	1	7581292.6004898	7581292.6008164	80	7581295.8157061	7581295.8161519	40	7581299.2491553	7581299.2495955	100	imm	7581301.0504913	7581301.5614427	7581301.5618318	120.0	3.0	7581302.4426978
791.39013671875	0.0	40	1620767	54	80	180	1	1	7581292.6004898	7581292.6008164	80	7581295.8157061	7581295.8161519	40	7581299.2491553	7581299.2495955	100	imm	7581301.0504913	7581301.5614427	7581301.5618318	120.0	3.0	7581302.4426978
794.8232421875	0.0	100	1627798	54	80	180	1	1	7581292.6004898	7581292.6008164	80	7581295.8157061	7581295.8161519	40	7581299.2491553	7581299.2495955	100	imm	7581301.0504913	7581301.5614427	7581301.5618318	120.0	3.0	7581302.4426978
797.1357421875	0.0	120	1632534	54	80	180	1	1	7581292.6004898	7581292.6008164	80	7581295.8157061	7581295.8161519	40	7581299.2491553	7581299.2495955	100	imm	7581301.0504913	7581301.5614427	7581301.5618318	120.0	3.0	7581302.4426978
800.447265625	0.0	80	1639316	55	67	12	1	0	7581304.8731354	7581304.8736419	80	7581308.0080604	7581308.0084656	40	7581311.3281605	7581311.3286414	100	del	7581317.4267927	7581317.9382913	7581317.9388553	120.0	4.0	7581324.5538245
803.58203125	0.0	40	1645736	55	67	12	1	0	7581304.8731354	7581304.8736419	80	7581308.0080604	7581308.0084656	40	7581311.3281605	7581311.3286414	100	del	7581317.4267927	7581317.9382913	7581317.9388553	120.0	4.0	7581324.5538245
806.90234375	0.0	100	1652536	55	67	12	1	0	7581304.8731354	7581304.8736419	80	7581308.0080604	7581308.0084656	40	7581311.3281605	7581311.3286414	100	del	7581317.4267927	7581317.9382913	7581317.9388553	120.0	4.0	7581324.5538245
813.51220703125	0.0	120	1666073	55	67	12	1	0	7581304.8731354	7581304.8736419	80	7581308.0080604	7581308.0084656	40	7581311.3281605	7581311.3286414	100	del	7581317.4267927	7581317.9382913	7581317.9388553	120.0	4.0	7581324.5538245
822.4345703125	0.0	80	1684346	56	90	40	0	1	7581326.8610054	7581326.8614266	80	7581330.1384079	7581330.1388288	40	7581333.5846379	7581333.5852208	100	imm	7581335.5461752	nan	nan	nan	nan	nan
825.7119140625	0.0	40	1691058	56	90	40	0	1	7581326.8610054	7581326.8614266	80	7581330.1384079	7581330.1388288	40	7581333.5846379	7581333.5852208	100	imm	7581335.5461752	nan	nan	nan	nan	nan
829.158203125	0.0	100	1698116	56	90	40	0	1	7581326.8610054	7581326.8614266	80	7581330.1384079	7581330.1388288	40	7581333.5846379	7581333.5852208	100	imm	7581335.5461752	nan	nan	nan	nan	nan
833.7685546875	0.0	80	1707558	57	77	970	0	1	7581338.1951599	7581338.1956026	80	7581341.3610534	7581341.3614934	40	7581344.4321434	7581344.4325376	100	imm	7581347.2741386	nan	nan	nan	nan	nan
836.93408203125	0.0	40	1714041	57	77	970	0	1	7581338.1951599	7581338.1956026	80	7581341.3610534	7581341.3614934	40	7581344.4321434	7581344.4325376	100	imm	7581347.2741386	nan	nan	nan	nan	nan
840.00537109375	0.0	100	1720331	57	77	970	0	1	7581338.1951599	7581338.1956026	80	7581341.3610534	7581341.3614934	40	7581344.4321434	7581344.4325376	100	imm	7581347.2741386	nan	nan	nan	nan	nan
845.83251953125	0.0	80	1732265	58	77	260	0	1	7581350.2596179	7581350.2599962	80	7581353.5888238	7581353.5892157	40	7581356.8396366	7581356.8400494	100	imm	7581357.9298434	nan	nan	nan	nan	nan
849.16162109375	0.0	40	1739083	58	77	260	0	1	7581350.2596179	7581350.2599962	80	7581353.5888238	7581353.5892157	40	7581356.8396366	7581356.8400494	100	imm	7581357.9298434	nan	nan	nan	nan	nan
852.412109375	0.0	100	1745740	58	77	260	0	1	7581350.2596179	7581350.2599962	80	7581353.5888238	7581353.5892157	40	7581356.8396366	7581356.8400494	100	imm	7581357.9298434	nan	nan	nan	nan	nan
856.3388671875	0.0	80	1753782	59	83	970	0	1	7581360.7660207	7581360.7663743	80	7581364.0456786	7581364.0461545	40	7581367.3825139	7581367.3830766	100	imm	7581368.0266526	nan	nan	nan	nan	nan
859.6181640625	0.0	40	1760498	59	83	970	0	1	7581360.7660207	7581360.7663743	80	7581364.0456786	7581364.0461545	40	7581367.3825139	7581367.3830766	100	imm	7581368.0266526	nan	nan	nan	nan	nan
862.955078125	0.0	100	1767332	59	83	970	0	1	7581360.7660207	7581360.7663743	80	7581364.0456786	7581364.0461545	40	7581367.3825139	7581367.3830766	100	imm	7581368.0266526	nan	nan	nan	nan	nan
866.38916015625	0.0	80	1774365	60	83	130	0	1	7581370.8164549	7581370.8170241	80	7581374.1820018	7581374.1821324	40	7581377.449724	7581377.4499033	100	imm	7581378.5220249	nan	nan	nan	nan	nan
869.75439453125	0.0	40	1781257	60	83	130	0	1	7581370.8164549	7581370.8170241	80	7581374.1820018	7581374.1821324	40	7581377.449724	7581377.4499033	100	imm	7581378.5220249	nan	nan	nan	nan	nan
873.0224609375	0.0	100	1787950	60	83	130	0	1	7581370.8164549	7581370.8170241	80	7581374.1820018	7581374.1821324	40	7581377.449724	7581377.4499033	100	imm	7581378.5220249	nan	nan	nan	nan	nan
901.01806640625	0.0	80	1845285	61	87	970	0	0	7581405.4468125	7581405.4471654	80	7581408.5626665	7581408.5629736	40	7581411.624572	7581411.6249381	100	imm	7581412.2345894	nan	nan	nan	nan	nan
904.1337890625	0.0	40	1851666	61	87	970	0	0	7581405.4468125	7581405.4471654	80	7581408.5626665	7581408.5629736	40	7581411.624572	7581411.6249381	100	imm	7581412.2345894	nan	nan	nan	nan	nan
907.19580078125	0.0	100	1857937	61	87	970	0	0	7581405.4468125	7581405.4471654	80	7581408.5626665	7581408.5629736	40	7581411.624572	7581411.6249381	100	imm	7581412.2345894	nan	nan	nan	nan	nan
910.37744140625	0.0	80	1864453	62	100	90	1	0	7581414.8065197	7581414.8069953	80	7581417.8463595	7581417.8468579	40	7581421.0621406	7581421.0626208	100	imm	7581425.6354775	7581426.1472686	7581426.1476948	120.0	4.0	7581432.5148369
913.41748046875	0.0	40	1870679	62	100	90	1	0	7581414.8065197	7581414.8069953	80	7581417.8463595	7581417.8468579	40	7581421.0621406	7581421.0626208	100	imm	7581425.6354775	7581426.1472686	7581426.1476948	120.0	4.0	7581432.5148369
916.63330078125	0.0	100	1877265	62	100	90	1	0	7581414.8065197	7581414.8069953	80	7581417.8463595	7581417.8468579	40	7581421.0621406	7581421.0626208	100	imm	7581425.6354775	7581426.1472686	7581426.1476948	120.0	4.0	7581432.5148369
921.71826171875	0.0	120	1887679	62	100	90	1	0	7581414.8065197	7581414.8069953	80	7581417.8463595	7581417.8468579	40	7581421.0621406	7581421.0626208	100	imm	7581425.6354775	7581426.1472686	7581426.1476948	120.0	4.0	7581432.5148369
930.32177734375	0.0	80	1905299	63	73	90	1	0	7581434.7511725	7581434.7515919	80	7581437.941906	7581437.9424276	40	7581441.336858	7581441.3373751	100	na	7581443.5788674	7581444.0885127	7581444.0888731	120.0	4.0	7581444.6741396
933.51220703125	0.0	40	1911833	63	73	90	1	0	7581434.7511725	7581434.7515919	80	7581437.941906	7581437.9424276	40	7581441.336858	7581441.3373751	100	na	7581443.5788674	7581444.0885127	7581444.0888731	120.0	4.0	7581444.6741396
936.9072265625	0.0	100	1918786	63	73	90	1	0	7581434.7511725	7581434.7515919	80	7581437.941906	7581437.9424276	40	7581441.336858	7581441.3373751	100	na	7581443.5788674	7581444.0885127	7581444.0888731	120.0	4.0	7581444.6741396
939.65869140625	0.0	120	1924421	63	73	90	1	0	7581434.7511725	7581434.7515919	80	7581437.941906	7581437.9424276	40	7581441.336858	7581441.3373751	100	na	7581443.5788674	7581444.0885127	7581444.0888731	120.0	4.0	7581444.6741396
942.5712890625	0.0	80	1930386	64	93	970	0	1	7581447.0012188	7581447.0016785	80	7581450.3947265	7581450.3952051	40	7581453.8750675	7581453.8755731	100	imm	7581454.6516794	nan	nan	nan	nan	nan
945.96484375	0.0	40	1937336	64	93	970	0	1	7581447.0012188	7581447.0016785	80	7581450.3947265	7581450.3952051	40	7581453.8750675	7581453.8755731	100	imm	7581454.6516794	nan	nan	nan	nan	nan
949.4453125	0.0	100	1944464	64	93	970	0	1	7581447.0012188	7581447.0016785	80	7581450.3947265	7581450.3952051	40	7581453.8750675	7581453.8755731	100	imm	7581454.6516794	nan	nan	nan	nan	nan
953.22216796875	0.0	80	1952199	65	70	700	1	1	7581457.6520739	7581457.6524303	80	7581460.7558633	7581460.756364	40	7581463.8406273	7581463.8411512	100	imm	7581466.5707264	7581467.0814896	7581467.0819409	120.0	4.0	7581467.6584683
956.32568359375	0.0	40	1958555	65	70	700	1	1	7581457.6520739	7581457.6524303	80	7581460.7558633	7581460.756364	40	7581463.8406273	7581463.8411512	100	imm	7581466.5707264	7581467.0814896	7581467.0819409	120.0	4.0	7581467.6584683
959.41064453125	0.0	100	1964873	65	70	700	1	1	7581457.6520739	7581457.6524303	80	7581460.7558633	7581460.756364	40	7581463.8406273	7581463.8411512	100	imm	7581466.5707264	7581467.0814896	7581467.0819409	120.0	4.0	7581467.6584683
962.6513671875	0.0	120	1971510	65	70	700	1	1	7581457.6520739	7581457.6524303	80	7581460.7558633	7581460.756364	40	7581463.8406273	7581463.8411512	100	imm	7581466.5707264	7581467.0814896	7581467.0819409	120.0	4.0	7581467.6584683
965.59130859375	0.0	80	1977531	66	67	130	0	1	7581470.0217372	7581470.0222504	80	7581473.0763203	7581473.0767837	40	7581476.3468496	7581476.3471209	100	imm	7581479.8108252	nan	nan	nan	nan	nan
968.64599609375	0.0	40	1983787	66	67	130	0	1	7581470.0217372	7581470.0222504	80	7581473.0763203	7581473.0767837	40	7581476.3468496	7581476.3471209	100	imm	7581479.8108252	nan	nan	nan	nan	nan
971.91650390625	0.0	100	1990485	66	67	130	0	1	7581470.0217372	7581470.0222504	80	7581473.0763203	7581473.0767837	40	7581476.3468496	7581476.3471209	100	imm	7581479.8108252	nan	nan	nan	nan	nan
978.15966796875	0.0	80	2003271	67	77	40	0	1	7581482.5901621	7581482.5905836	80	7581486.026987	7581486.0273431	40	7581489.2825665	7581489.283077	100	del	7581498.9145972	nan	nan	nan	nan	nan
981.59619140625	0.0	40	2010309	67	77	40	0	1	7581482.5901621	7581482.5905836	80	7581486.026987	7581486.0273431	40	7581489.2825665	7581489.283077	100	del	7581498.9145972	nan	nan	nan	nan	nan
984.8515625	0.0	100	2016976	67	77	40	0	1	7581482.5901621	7581482.5905836	80	7581486.026987	7581486.0273431	40	7581489.2825665	7581489.283077	100	del	7581498.9145972	nan	nan	nan	nan	nan
997.1962890625	0.0	80	2042258	68	80	90	1	0	7581501.6274891	7581501.6279375	80	7581504.9702772	7581504.9706864	40	7581508.3530043	7581508.3534017	100	imm	7581515.9079525	7581516.4170755	7581516.4173797	120.0	2.0	7581517.1860597
1000.5390625	0.0	40	2049104	68	80	90	1	0	7581501.6274891	7581501.6279375	80	7581504.9702772	7581504.9706864	40	7581508.3530043	7581508.3534017	100	imm	7581515.9079525	7581516.4170755	7581516.4173797	120.0	2.0	7581517.1860597
1003.92138671875	0.0	100	2056031	68	80	90	1	0	7581501.6274891	7581501.6279375	80	7581504.9702772	7581504.9706864	40	7581508.3530043	7581508.3534017	100	imm	7581515.9079525	7581516.4170755	7581516.4173797	120.0	2.0	7581517.1860597
1011.9853515625	0.0	120	2072546	68	80	90	1	0	7581501.6274891	7581501.6279375	80	7581504.9702772	7581504.9706864	40	7581508.3530043	7581508.3534017	100	imm	7581515.9079525	7581516.4170755	7581516.4173797	120.0	2.0	7581517.1860597
1015.02783203125	0.0	80	2078777	69	80	12	1	1	7581519.4597664	7581519.4601423	80	7581522.6410417	7581522.6414794	40	7581525.729033	7581525.7295406	100	del	7581528.0273938	7581528.5385346	7581528.5389744	120.0	3.0	7581529.0904585
1018.208984375	0.0	40	2085292	69	80	12	1	1	7581519.4597664	7581519.4601423	80	7581522.6410417	7581522.6414794	40	7581525.729033	7581525.7295406	100	del	7581528.0273938	7581528.5385346	7581528.5389744	120.0	3.0	7581529.0904585
1021.296875	0.0	100	2091616	69	80	12	1	1	7581519.4597664	7581519.4601423	80	7581522.6410417	7581522.6414794	40	7581525.729033	7581525.7295406	100	del	7581528.0273938	7581528.5385346	7581528.5389744	120.0	3.0	7581529.0904585
1024.1064453125	0.0	120	2097370	69	80	12	1	1	7581519.4597664	7581519.4601423	80	7581522.6410417	7581522.6414794	40	7581525.729033	7581525.7295406	100	del	7581528.0273938	7581528.5385346	7581528.5389744	120.0	3.0	7581529.0904585
1026.9658203125	0.0	80	2103226	70	53	40	0	0	7581531.3978394	7581531.3983437	80	7581534.5364595	7581534.5369331	40	7581537.5718665	7581537.5723288	100	imm	7581538.9706023	nan	nan	nan	nan	nan
1030.1044921875	0.0	40	2109654	70	53	40	0	0	7581531.3978394	7581531.3983437	80	7581534.5364595	7581534.5369331	40	7581537.5718665	7581537.5723288	100	imm	7581538.9706023	nan	nan	nan	nan	nan
1033.1396484375	0.0	100	2115870	70	53	40	0	0	7581531.3978394	7581531.3983437	80	7581534.5364595	7581534.5369331	40	7581537.5718665	7581537.5723288	100	imm	7581538.9706023	nan	nan	nan	nan	nan
1037.43212890625	0.0	80	2124661	71	67	970	0	1	7581541.8646146	7581541.8651381	80	7581544.9929495	7581544.9933885	40	7581548.2275162	7581548.2281771	100	imm	7581548.7863829	nan	nan	nan	nan	nan
1040.560546875	0.0	40	2131068	71	67	970	0	1	7581541.8646146	7581541.8651381	80	7581544.9929495	7581544.9933885	40	7581548.2275162	7581548.2281771	100	imm	7581548.7863829	nan	nan	nan	nan	nan
1043.794921875	0.0	100	2137692	71	67	970	0	1	7581541.8646146	7581541.8651381	80	7581544.9929495	7581544.9933885	40	7581548.2275162	7581548.2281771	100	imm	7581548.7863829	nan	nan	nan	nan	nan
1047.21435546875	0.0	80	2144695	72	63	260	0	0	7581551.646901	7581551.6473649	80	7581554.8324029	7581554.8327313	40	7581558.2095696	7581558.2099651	100	imm	7581558.8666726	nan	nan	nan	nan	nan
1050.3994140625	0.0	40	2151218	72	63	260	0	0	7581551.646901	7581551.6473649	80	7581554.8324029	7581554.8327313	40	7581558.2095696	7581558.2099651	100	imm	7581558.8666726	nan	nan	nan	nan	nan
1053.77685546875	0.0	100	2158135	72	63	260	0	0	7581551.646901	7581551.6473649	80	7581554.8324029	7581554.8327313	40	7581558.2095696	7581558.2099651	100	imm	7581558.8666726	nan	nan	nan	nan	nan
1057.1484375	0.0	80	2165040	73	57	90	1	0	7581561.581441	7581561.5819413	80	7581564.930914	7581564.9314016	40	7581568.2964426	7581568.2968752	100	imm	7581569.0587807	7581569.569827	7581569.5702484	120.0	3.0	7581570.1067195
1060.498046875	0.0	40	2171900	73	57	90	1	0	7581561.581441	7581561.5819413	80	7581564.930914	7581564.9314016	40	7581568.2964426	7581568.2968752	100	imm	7581569.0587807	7581569.569827	7581569.5702484	120.0	3.0	7581570.1067195
1063.86328125	0.0	100	2178792	73	57	90	1	0	7581561.581441	7581561.5819413	80	7581564.930914	7581564.9314016	40	7581568.2964426	7581568.2968752	100	imm	7581569.0587807	7581569.569827	7581569.5702484	120.0	3.0	7581570.1067195
1065.13671875	0.0	120	2181400	73	57	90	1	0	7581561.581441	7581561.5819413	80	7581564.930914	7581564.9314016	40	7581568.2964426	7581568.2968752	100	imm	7581569.0587807	7581569.569827	7581569.5702484	120.0	3.0	7581570.1067195
1067.9091796875	0.0	80	2187078	74	93	510	0	1	7581572.3425242	7581572.3431648	80	7581575.3607747	7581575.3612752	40	7581578.5393235	7581578.5398206	100	imm	7581579.8907941	nan	nan	nan	nan	nan
1070.92724609375	0.0	40	2193259	74	93	510	0	1	7581572.3425242	7581572.3431648	80	7581575.3607747	7581575.3612752	40	7581578.5393235	7581578.5398206	100	imm	7581579.8907941	nan	nan	nan	nan	nan
1074.10595703125	0.0	100	2199769	74	93	510	0	1	7581572.3425242	7581572.3431648	80	7581575.3607747	7581575.3612752	40	7581578.5393235	7581578.5398206	100	imm	7581579.8907941	nan	nan	nan	nan	nan
1078.18408203125	0.0	80	2208121	75	67	510	0	0	7581582.6177216	7581582.6180927	80	7581585.759072	7581585.7594212	40	7581588.8704192	7581588.8708322	100	imm	7581590.6676209	nan	nan	nan	nan	nan
1081.3251953125	0.0	40	2214554	75	67	510	0	0	7581582.6177216	7581582.6180927	80	7581585.759072	7581585.7594212	40	7581588.8704192	7581588.8708322	100	imm	7581590.6676209	nan	nan	nan	nan	nan
1084.4365234375	0.0	100	2220926	75	67	510	0	0	7581582.6177216	7581582.6180927	80	7581585.759072	7581585.7594212	40	7581588.8704192	7581588.8708322	100	imm	7581590.6676209	nan	nan	nan	nan	nan
1089.162109375	0.0	80	2230604	76	77	12	1	1	7581593.5960204	7581593.5964514	80	7581596.817585	7581596.8181041	40	7581600.2735044	7581600.2739953	100	del	7581602.9961421	7581603.5074273	7581603.5078239	120.0	2.0	7581604.4667814
1092.3837890625	0.0	40	2237202	76	77	12	1	1	7581593.5960204	7581593.5964514	80	7581596.817585	7581596.8181041	40	7581600.2735044	7581600.2739953	100	del	7581602.9961421	7581603.5074273	7581603.5078239	120.0	2.0	7581604.4667814
1095.83935546875	0.0	100	2244279	76	77	12	1	1	7581593.5960204	7581593.5964514	80	7581596.817585	7581596.8181041	40	7581600.2735044	7581600.2739953	100	del	7581602.9961421	7581603.5074273	7581603.5078239	120.0	2.0	7581604.4667814
1099.0732421875	0.0	120	2250902	76	77	12	1	1	7581593.5960204	7581593.5964514	80	7581596.817585	7581596.8181041	40	7581600.2735044	7581600.2739953	100	del	7581602.9961421	7581603.5074273	7581603.5078239	120.0	2.0	7581604.4667814
1102.24365234375	0.0	80	2257395	77	60	180	1	0	7581606.6776262	7581606.6781485	80	7581610.0673984	7581610.067656	40	7581613.2716442	7581613.2718492	100	na	7581628.5390612	7581629.0484616	7581629.0487581	120.0	2.0	7581629.474838
1105.6328125	0.0	40	2264336	77	60	180	1	0	7581606.6776262	7581606.6781485	80	7581610.0673984	7581610.067656	40	7581613.2716442	7581613.2718492	100	na	7581628.5390612	7581629.0484616	7581629.0487581	120.0	2.0	7581629.474838
1108.837890625	0.0	100	2270900	77	60	180	1	0	7581606.6776262	7581606.6781485	80	7581610.0673984	7581610.067656	40	7581613.2716442	7581613.2718492	100	na	7581628.5390612	7581629.0484616	7581629.0487581	120.0	2.0	7581629.474838
1124.61376953125	0.0	120	2303209	77	60	180	1	0	7581606.6776262	7581606.6781485	80	7581610.0673984	7581610.067656	40	7581613.2716442	7581613.2718492	100	na	7581628.5390612	7581629.0484616	7581629.0487581	120.0	2.0	7581629.474838
1127.45849609375	0.0	80	2309035	78	73	180	1	0	7581631.8932517	7581631.8937275	80	7581635.2773706	7581635.2777816	40	7581638.4775663	7581638.4780272	100	imm	7581641.8188157	7581642.3296011	7581642.3299881	120.0	2.0	7581642.6509227
1130.84228515625	0.0	40	2315965	78	73	180	1	0	7581631.8932517	7581631.8937275	80	7581635.2773706	7581635.2777816	40	7581638.4775663	7581638.4780272	100	imm	7581641.8188157	7581642.3296011	7581642.3299881	120.0	2.0	7581642.6509227
1134.04248046875	0.0	100	2322519	78	73	180	1	0	7581631.8932517	7581631.8937275	80	7581635.2773706	7581635.2777816	40	7581638.4775663	7581638.4780272	100	imm	7581641.8188157	7581642.3296011	7581642.3299881	120.0	2.0	7581642.6509227
1137.89453125	0.0	120	2330408	78	73	180	1	0	7581631.8932517	7581631.8937275	80	7581635.2773706	7581635.2777816	40	7581638.4775663	7581638.4780272	100	imm	7581641.8188157	7581642.3296011	7581642.3299881	120.0	2.0	7581642.6509227
1140.33837890625	0.0	80	2335413	79	87	365	1	1	7581644.773713	7581644.7741654	80	7581648.1749897	7581648.1752891	40	7581651.6590265	7581651.659389	100	del	7581652.2502779	7581652.7621114	7581652.7626051	120.0	3.0	7581653.4104048
1143.73974609375	0.0	40	2342379	79	87	365	1	1	7581644.773713	7581644.7741654	80	7581648.1749897	7581648.1752891	40	7581651.6590265	7581651.659389	100	del	7581652.2502779	7581652.7621114	7581652.7626051	120.0	3.0	7581653.4104048
1147.2236328125	0.0	100	2349514	79	87	365	1	1	7581644.773713	7581644.7741654	80	7581648.1749897	7581648.1752891	40	7581651.6590265	7581651.659389	100	del	7581652.2502779	7581652.7621114	7581652.7626051	120.0	3.0	7581653.4104048
1148.32666015625	0.0	120	2351773	79	87	365	1	1	7581644.773713	7581644.7741654	80	7581648.1749897	7581648.1752891	40	7581651.6590265	7581651.659389	100	del	7581652.2502779	7581652.7621114	7581652.7626051	120.0	3.0	7581653.4104048
1151.15185546875	0.0	80	2357559	80	50	365	1	1	7581655.587514	7581655.5879037	80	7581658.9303541	7581658.9307973	40	7581662.1625195	7581662.1630533	100	imm	7581662.9388937	7581663.4476033	7581663.4479178	120.0	3.0	7581663.9148871
1154.49462890625	0.0	40	2364405	80	50	365	1	1	7581655.587514	7581655.5879037	80	7581658.9303541	7581658.9307973	40	7581662.1625195	7581662.1630533	100	imm	7581662.9388937	7581663.4476033	7581663.4479178	120.0	3.0	7581663.9148871
1157.72705078125	0.0	100	2371025	80	50	365	1	1	7581655.587514	7581655.5879037	80	7581658.9303541	7581658.9307973	40	7581662.1625195	7581662.1630533	100	imm	7581662.9388937	7581663.4476033	7581663.4479178	120.0	3.0	7581663.9148871
1159.01171875	0.0	120	2373656	80	50	365	1	1	7581655.587514	7581655.5879037	80	7581658.9303541	7581658.9307973	40	7581662.1625195	7581662.1630533	100	imm	7581662.9388937	7581663.4476033	7581663.4479178	120.0	3.0	7581663.9148871
1201.23486328125	0.0	80	2460129	81	67	365	1	1	7581705.6720324	7581705.6724199	80	7581709.0642358	7581709.0647058	40	7581712.1617476	7581712.1622365	100	imm	7581714.2428369	7581714.7546039	7581714.7550344	120.0	3.0	7581715.5222568
1204.62744140625	0.0	40	2467077	81	67	365	1	1	7581705.6720324	7581705.6724199	80	7581709.0642358	7581709.0647058	40	7581712.1617476	7581712.1622365	100	imm	7581714.2428369	7581714.7546039	7581714.7550344	120.0	3.0	7581715.5222568
1207.724609375	0.0	100	2473420	81	67	365	1	1	7581705.6720324	7581705.6724199	80	7581709.0642358	7581709.0647058	40	7581712.1617476	7581712.1622365	100	imm	7581714.2428369	7581714.7546039	7581714.7550344	120.0	3.0	7581715.5222568
1210.3173828125	0.0	120	2478730	81	67	365	1	1	7581705.6720324	7581705.6724199	80	7581709.0642358	7581709.0647058	40	7581712.1617476	7581712.1622365	100	imm	7581714.2428369	7581714.7546039	7581714.7550344	120.0	3.0	7581715.5222568
1213.53125	0.0	80	2485312	82	93	365	1	0	7581717.9683381	7581717.9687463	80	7581721.4707759	7581721.4712273	40	7581724.7408645	7581724.7414884	100	del	7581727.4827234	7581727.9931523	7581727.9934654	120.0	4.0	7581728.6581806
1217.033203125	0.0	40	2492484	82	93	365	1	0	7581717.9683381	7581717.9687463	80	7581721.4707759	7581721.4712273	40	7581724.7408645	7581724.7414884	100	del	7581727.4827234	7581727.9931523	7581727.9934654	120.0	4.0	7581728.6581806
1220.3037109375	0.0	100	2499182	82	93	365	1	0	7581717.9683381	7581717.9687463	80	7581721.4707759	7581721.4712273	40	7581724.7408645	7581724.7414884	100	del	7581727.4827234	7581727.9931523	7581727.9934654	120.0	4.0	7581728.6581806
1223.5556640625	0.0	120	2505842	82	93	365	1	0	7581717.9683381	7581717.9687463	80	7581721.4707759	7581721.4712273	40	7581724.7408645	7581724.7414884	100	del	7581727.4827234	7581727.9931523	7581727.9934654	120.0	4.0	7581728.6581806
1226.67431640625	0.0	80	2512229	83	100	130	0	1	7581731.1120777	7581731.1123837	80	7581734.4138151	7581734.414288	40	7581737.5028055	7581737.5032527	100	imm	7581742.1625682	nan	nan	nan	nan	nan
1229.97607421875	0.0	40	2518991	83	100	130	0	1	7581731.1120777	7581731.1123837	80	7581734.4138151	7581734.414288	40	7581737.5028055	7581737.5032527	100	imm	7581742.1625682	nan	nan	nan	nan	nan
1233.06494140625	0.0	100	2525317	83	100	130	0	1	7581731.1120777	7581731.1123837	80	7581734.4138151	7581734.414288	40	7581737.5028055	7581737.5032527	100	imm	7581742.1625682	nan	nan	nan	nan	nan
1240.341796875	0.0	80	2540220	84	83	12	1	0	7581744.7799213	7581744.7803579	80	7581747.9910042	7581747.9916671	40	7581751.3792853	7581751.3796932	100	del	7581758.5151266	7581759.0249731	7581759.0253178	120.0	4.0	7581759.5143887
1243.55322265625	0.0	40	2546797	84	83	12	1	0	7581744.7799213	7581744.7803579	80	7581747.9910042	7581747.9916671	40	7581751.3792853	7581751.3796932	100	del	7581758.5151266	7581759.0249731	7581759.0253178	120.0	4.0	7581759.5143887
1246.94091796875	0.0	100	2553735	84	83	12	1	0	7581744.7799213	7581744.7803579	80	7581747.9910042	7581747.9916671	40	7581751.3792853	7581751.3796932	100	del	7581758.5151266	7581759.0249731	7581759.0253178	120.0	4.0	7581759.5143887
1254.58642578125	0.0	120	2569393	84	83	12	1	0	7581744.7799213	7581744.7803579	80	7581747.9910042	7581747.9916671	40	7581751.3792853	7581751.3796932	100	del	7581758.5151266	7581759.0249731	7581759.0253178	120.0	4.0	7581759.5143887
1257.50048828125	0.0	80	2575361	85	83	40	0	1	7581761.9389125	7581761.9392335	80	7581765.3413047	7581765.3417523	40	7581768.5138561	7581768.5143554	100	imm	7581769.7469178	nan	nan	nan	nan	nan
1260.90283203125	0.0	40	2582329	85	83	40	0	1	7581761.9389125	7581761.9392335	80	7581765.3413047	7581765.3417523	40	7581768.5138561	7581768.5143554	100	imm	7581769.7469178	nan	nan	nan	nan	nan
1264.0751953125	0.0	100	2588826	85	83	40	0	1	7581761.9389125	7581761.9392335	80	7581765.3413047	7581765.3417523	40	7581768.5138561	7581768.5143554	100	imm	7581769.7469178	nan	nan	nan	nan	nan
1268.0888671875	0.0	80	2597046	86	60	970	0	1	7581772.527481	7581772.5277907	80	7581775.5794668	7581775.5799689	40	7581778.648113	7581778.6485535	100	imm	7581779.2905391	nan	nan	nan	nan	nan
1271.140625	0.0	40	2603296	86	60	970	0	1	7581772.527481	7581772.5277907	80	7581775.5794668	7581775.5799689	40	7581778.648113	7581778.6485535	100	imm	7581779.2905391	nan	nan	nan	nan	nan
1274.208984375	0.0	100	2609580	86	60	970	0	1	7581772.527481	7581772.5277907	80	7581775.5794668	7581775.5799689	40	7581778.648113	7581778.6485535	100	imm	7581779.2905391	nan	nan	nan	nan	nan
1277.43701171875	0.0	80	2616191	87	70	180	1	0	7581781.8757981	7581781.8762771	80	7581785.2229129	7581785.2233776	40	7581788.4867229	7581788.487373	100	na	7581790.8187924	7581791.3288798	7581791.3292267	120.0	3.0	7581791.6828923
1280.78369140625	0.0	40	2623045	87	70	180	1	0	7581781.8757981	7581781.8762771	80	7581785.2229129	7581785.2233776	40	7581788.4867229	7581788.487373	100	na	7581790.8187924	7581791.3288798	7581791.3292267	120.0	3.0	7581791.6828923
1284.0478515625	0.0	100	2629730	87	70	180	1	0	7581781.8757981	7581781.8762771	80	7581785.2229129	7581785.2233776	40	7581788.4867229	7581788.487373	100	na	7581790.8187924	7581791.3288798	7581791.3292267	120.0	3.0	7581791.6828923
1286.8896484375	0.0	120	2635550	87	70	180	1	0	7581781.8757981	7581781.8762771	80	7581785.2229129	7581785.2233776	40	7581788.4867229	7581788.487373	100	na	7581790.8187924	7581791.3288798	7581791.3292267	120.0	3.0	7581791.6828923
1289.3525390625	0.0	80	2640594	88	50	700	1	1	7581793.7918276	7581793.7923326	80	7581797.046951	7581797.047381	40	7581800.1340471	7581800.1344916	100	imm	7581801.3310033	7581801.8443955	7581801.8449398	120.0	4.0	7581802.6349511
1292.607421875	0.0	40	2647260	88	50	700	1	1	7581793.7918276	7581793.7923326	80	7581797.046951	7581797.047381	40	7581800.1340471	7581800.1344916	100	imm	7581801.3310033	7581801.8443955	7581801.8449398	120.0	4.0	7581802.6349511
1295.6943359375	0.0	100	2653582	88	50	700	1	1	7581793.7918276	7581793.7923326	80	7581797.046951	7581797.047381	40	7581800.1340471	7581800.1344916	100	imm	7581801.3310033	7581801.8443955	7581801.8449398	120.0	4.0	7581802.6349511
1297.40478515625	0.0	120	2657085	88	50	700	1	1	7581793.7918276	7581793.7923326	80	7581797.046951	7581797.047381	40	7581800.1340471	7581800.1344916	100	imm	7581801.3310033	7581801.8443955	7581801.8449398	120.0	4.0	7581802.6349511
1300.2353515625	0.0	80	2662882	89	87	700	1	0	7581804.6750482	7581804.6754311	80	7581808.1080777	7581808.108571	40	7581811.4017944	7581811.4023544	100	imm	7581813.3703459	7581813.8838506	7581813.8843682	120.0	4.0	7581815.6840165
1303.66845703125	0.0	40	2669913	89	87	700	1	0	7581804.6750482	7581804.6754311	80	7581808.1080777	7581808.108571	40	7581811.4017944	7581811.4023544	100	imm	7581813.3703459	7581813.8838506	7581813.8843682	120.0	4.0	7581815.6840165
1306.9619140625	0.0	100	2676658	89	87	700	1	0	7581804.6750482	7581804.6754311	80	7581808.1080777	7581808.108571	40	7581811.4017944	7581811.4023544	100	imm	7581813.3703459	7581813.8838506	7581813.8843682	120.0	4.0	7581815.6840165
1309.44384765625	0.0	120	2681741	89	87	700	1	0	7581804.6750482	7581804.6754311	80	7581808.1080777	7581808.108571	40	7581811.4017944	7581811.4023544	100	imm	7581813.3703459	7581813.8838506	7581813.8843682	120.0	4.0	7581815.6840165
1313.72021484375	0.0	80	2690499	90	93	40	0	0	7581818.1605512	7581818.1608588	80	7581821.5144085	7581821.5147033	40	7581824.819052	7581824.8195607	100	imm	7581826.6990956	nan	nan	nan	nan	nan
1317.07421875	0.0	40	2697368	90	93	40	0	0	7581818.1605512	7581818.1608588	80	7581821.5144085	7581821.5147033	40	7581824.819052	7581824.8195607	100	imm	7581826.6990956	nan	nan	nan	nan	nan
1320.37890625	0.0	100	2704136	90	93	40	0	0	7581818.1605512	7581818.1608588	80	7581821.5144085	7581821.5147033	40	7581824.819052	7581824.8195607	100	imm	7581826.6990956	nan	nan	nan	nan	nan
1325.181640625	0.0	80	2713972	91	67	260	0	1	7581829.6221781	7581829.6225508	80	7581833.0690914	7581833.0695577	40	7581836.576532	7581836.5769685	100	imm	7581837.1385977	nan	nan	nan	nan	nan
1328.62841796875	0.0	40	2721031	91	67	260	0	1	7581829.6221781	7581829.6225508	80	7581833.0690914	7581833.0695577	40	7581836.576532	7581836.5769685	100	imm	7581837.1385977	nan	nan	nan	nan	nan
1332.13623046875	0.0	100	2728215	91	67	260	0	1	7581829.6221781	7581829.6225508	80	7581833.0690914	7581833.0695577	40	7581836.576532	7581836.5769685	100	imm	7581837.1385977	nan	nan	nan	nan	nan
1335.21630859375	0.0	80	2734523	92	57	12	1	0	7581839.6568349	7581839.6573713	80	7581843.097545	7581843.0980532	40	7581846.4175956	7581846.4181111	100	del	7581847.6749641	7581848.1861815	7581848.1865516	120.0	4.0	7581849.6269486
1338.65673828125	0.0	40	2741569	92	57	12	1	0	7581839.6568349	7581839.6573713	80	7581843.097545	7581843.0980532	40	7581846.4175956	7581846.4181111	100	del	7581847.6749641	7581848.1861815	7581848.1865516	120.0	4.0	7581849.6269486
1341.9765625	0.0	100	2748368	92	57	12	1	0	7581839.6568349	7581839.6573713	80	7581843.097545	7581843.0980532	40	7581846.4175956	7581846.4181111	100	del	7581847.6749641	7581848.1861815	7581848.1865516	120.0	4.0	7581849.6269486
1343.7451171875	0.0	120	2751990	92	57	12	1	0	7581839.6568349	7581839.6573713	80	7581843.097545	7581843.0980532	40	7581846.4175956	7581846.4181111	100	del	7581847.6749641	7581848.1861815	7581848.1865516	120.0	4.0	7581849.6269486
1347.693359375	0.0	80	2760076	93	100	40	0	0	7581852.1337661	7581852.1339479	80	7581855.4047035	7581855.4051516	40	7581858.6577449	7581858.6581857	100	imm	7581871.9630083	nan	nan	nan	nan	nan
1350.9638671875	0.0	40	2766774	93	100	40	0	0	7581852.1337661	7581852.1339479	80	7581855.4047035	7581855.4051516	40	7581858.6577449	7581858.6581857	100	imm	7581871.9630083	nan	nan	nan	nan	nan
1354.216796875	0.0	100	2773436	93	100	40	0	0	7581852.1337661	7581852.1339479	80	7581855.4047035	7581855.4051516	40	7581858.6577449	7581858.6581857	100	imm	7581871.9630083	nan	nan	nan	nan	nan
1370.4365234375	0.0	80	2806654	94	77	510	0	0	7581874.8778452	7581874.8779917	80	7581877.9963284	7581877.9965707	40	7581881.2590638	7581881.2595963	100	imm	7581881.9470179	nan	nan	nan	nan	nan
1373.55517578125	0.0	40	2813041	94	77	510	0	0	7581874.8778452	7581874.8779917	80	7581877.9963284	7581877.9965707	40	7581881.2590638	7581881.2595963	100	imm	7581881.9470179	nan	nan	nan	nan	nan
1376.8173828125	0.0	100	2819722	94	77	510	0	0	7581874.8778452	7581874.8779917	80	7581877.9963284	7581877.9965707	40	7581881.2590638	7581881.2595963	100	imm	7581881.9470179	nan	nan	nan	nan	nan
1380.46875	0.0	80	2827200	95	60	260	0	0	7581884.9106411	7581884.9109229	80	7581888.2034784	7581888.2037966	40	7581891.6391539	7581891.6398755	100	imm	7581899.2993362	nan	nan	nan	nan	nan
1383.76123046875	0.0	40	2833943	95	60	260	0	0	7581884.9106411	7581884.9109229	80	7581888.2034784	7581888.2037966	40	7581891.6391539	7581891.6398755	100	imm	7581899.2993362	nan	nan	nan	nan	nan
1387.197265625	0.0	100	2840980	95	60	260	0	0	7581884.9106411	7581884.9109229	80	7581888.2034784	7581888.2037966	40	7581891.6391539	7581891.6398755	100	imm	7581899.2993362	nan	nan	nan	nan	nan
1397.7451171875	0.0	80	2862582	96	50	130	0	0	7581902.1877287	7581902.1880745	80	7581905.4884413	7581905.4889151	40	7581908.6251681	7581908.625617	100	imm	7581909.9625326	nan	nan	nan	nan	nan
1401.0458984375	0.0	40	2869342	96	50	130	0	0	7581902.1877287	7581902.1880745	80	7581905.4884413	7581905.4889151	40	7581908.6251681	7581908.625617	100	imm	7581909.9625326	nan	nan	nan	nan	nan
1404.1826171875	0.0	100	2875766	96	50	130	0	0	7581902.1877287	7581902.1880745	80	7581905.4884413	7581905.4889151	40	7581908.6251681	7581908.625617	100	imm	7581909.9625326	nan	nan	nan	nan	nan
1408.36767578125	0.0	80	2884337	97	87	90	1	0	7581912.8105392	7581912.8110315	80	7581915.8593539	7581915.8598229	40	7581919.1851272	7581919.1856355	100	del	7581920.123022	7581920.6361928	7581920.636806	120.0	4.0	7581921.219922
1411.41650390625	0.0	40	2890581	97	87	90	1	0	7581912.8105392	7581912.8110315	80	7581915.8593539	7581915.8598229	40	7581919.1851272	7581919.1856355	100	del	7581920.123022	7581920.6361928	7581920.636806	120.0	4.0	7581921.219922
1414.7421875	0.0	100	2897392	97	87	90	1	0	7581912.8105392	7581912.8110315	80	7581915.8593539	7581915.8598229	40	7581919.1851272	7581919.1856355	100	del	7581920.123022	7581920.6361928	7581920.636806	120.0	4.0	7581921.219922
1416.193359375	0.0	120	2900364	97	87	90	1	0	7581912.8105392	7581912.8110315	80	7581915.8593539	7581915.8598229	40	7581919.1851272	7581919.1856355	100	del	7581920.123022	7581920.6361928	7581920.636806	120.0	4.0	7581921.219922
1419.119140625	0.0	80	2906356	98	90	90	1	0	7581923.5620361	7581923.5624075	80	7581926.9343428	7581926.9347955	40	7581930.3931767	7581930.3935924	100	del	7581930.931432	7581931.4415691	7581931.4419296	120.0	4.0	7581931.6831663
1422.4912109375	0.0	40	2913262	98	90	90	1	0	7581923.5620361	7581923.5624075	80	7581926.9343428	7581926.9347955	40	7581930.3931767	7581930.3935924	100	del	7581930.931432	7581931.4415691	7581931.4419296	120.0	4.0	7581931.6831663
1425.9501953125	0.0	100	2920346	98	90	90	1	0	7581923.5620361	7581923.5624075	80	7581926.9343428	7581926.9347955	40	7581930.3931767	7581930.3935924	100	del	7581930.931432	7581931.4415691	7581931.4419296	120.0	4.0	7581931.6831663
1426.99853515625	0.0	120	2922493	98	90	90	1	0	7581923.5620361	7581923.5624075	80	7581926.9343428	7581926.9347955	40	7581930.3931767	7581930.3935924	100	del	7581930.931432	7581931.4415691	7581931.4419296	120.0	4.0	7581931.6831663
1429.74560546875	0.0	80	2928119	99	70	510	0	0	7581934.1886281	7581934.189003	80	7581937.5791624	7581937.579519	40	7581940.8793931	7581940.8797755	100	imm	7581942.7472578	nan	nan	nan	nan	nan
1433.1357421875	0.0	40	2935062	99	70	510	0	0	7581934.1886281	7581934.189003	80	7581937.5791624	7581937.579519	40	7581940.8793931	7581940.8797755	100	imm	7581942.7472578	nan	nan	nan	nan	nan
1436.43603515625	0.0	100	2941821	99	70	510	0	0	7581934.1886281	7581934.189003	80	7581937.5791624	7581937.579519	40	7581940.8793931	7581940.8797755	100	imm	7581942.7472578	nan	nan	nan	nan	nan
1441.2841796875	0.0	80	2951750	100	73	365	1	1	7581945.7276419	7581945.7280689	80	7581949.0253136	7581949.0258038	40	7581952.0467703	7581952.047294	100	imm	7581952.3792961	7581952.8922442	7581952.892734	120.0	4.0	7581953.6192503
1444.58154296875	0.0	40	2958503	100	73	365	1	1	7581945.7276419	7581945.7280689	80	7581949.0253136	7581949.0258038	40	7581952.0467703	7581952.047294	100	imm	7581952.3792961	7581952.8922442	7581952.892734	120.0	4.0	7581953.6192503
1447.60302734375	0.0	100	2964691	100	73	365	1	1	7581945.7276419	7581945.7280689	80	7581949.0253136	7581949.0258038	40	7581952.0467703	7581952.047294	100	imm	7581952.3792961	7581952.8922442	7581952.892734	120.0	4.0	7581953.6192503
1448.44873046875	0.0	120	2966423	100	73	365	1	1	7581945.7276419	7581945.7280689	80	7581949.0253136	7581949.0258038	40	7581952.0467703	7581952.047294	100	imm	7581952.3792961	7581952.8922442	7581952.892734	120.0	4.0	7581953.6192503
1479.6767578125	0.0	80	3030378	101	50	90	1	0	7581984.1213707	7581984.1217936	80	7581987.5606357	7581987.5611947	40	7581990.8164524	7581990.8169763	100	imm	7581991.8744884	7581992.3847566	7581992.3850548	120.0	3.0	7581993.6425313
1483.1162109375	0.0	40	3037422	101	50	90	1	0	7581984.1213707	7581984.1217936	80	7581987.5606357	7581987.5611947	40	7581990.8164524	7581990.8169763	100	imm	7581991.8744884	7581992.3847566	7581992.3850548	120.0	3.0	7581993.6425313
1486.37158203125	0.0	100	3044089	101	50	90	1	0	7581984.1213707	7581984.1217936	80	7581987.5606357	7581987.5611947	40	7581990.8164524	7581990.8169763	100	imm	7581991.8744884	7581992.3847566	7581992.3850548	120.0	3.0	7581993.6425313
1487.93994140625	0.0	120	3047301	101	50	90	1	0	7581984.1213707	7581984.1217936	80	7581987.5606357	7581987.5611947	40	7581990.8164524	7581990.8169763	100	imm	7581991.8744884	7581992.3847566	7581992.3850548	120.0	3.0	7581993.6425313
1491.63623046875	0.0	80	3054871	102	73	260	0	1	7581996.0810805	7581996.0815975	80	7581999.1940501	7581999.1945153	40	7582002.4835765	7582002.4840515	100	imm	7582003.9952947	nan	nan	nan	nan	nan
1494.7490234375	0.0	40	3061246	102	73	260	0	1	7581996.0810805	7581996.0815975	80	7581999.1940501	7581999.1945153	40	7582002.4835765	7582002.4840515	100	imm	7582003.9952947	nan	nan	nan	nan	nan
1498.03857421875	0.0	100	3067983	102	73	260	0	1	7581996.0810805	7581996.0815975	80	7581999.1940501	7581999.1945153	40	7582002.4835765	7582002.4840515	100	imm	7582003.9952947	nan	nan	nan	nan	nan
1502.38427734375	0.0	80	3076883	103	67	40	0	1	7582006.8297278	7582006.8302094	80	7582009.8534924	7582009.8539152	40	7582013.1755822	7582013.1761754	100	imm	7582016.5068026	nan	nan	nan	nan	nan
1505.408203125	0.0	40	3083076	103	67	40	0	1	7582006.8297278	7582006.8302094	80	7582009.8534924	7582009.8539152	40	7582013.1755822	7582013.1761754	100	imm	7582016.5068026	nan	nan	nan	nan	nan
1508.73046875	0.0	100	3089880	103	67	40	0	1	7582006.8297278	7582006.8302094	80	7582009.8534924	7582009.8539152	40	7582013.1755822	7582013.1761754	100	imm	7582016.5068026	nan	nan	nan	nan	nan
1514.75634765625	0.0	80	3102221	104	90	970	0	1	7582019.2020643	7582019.2024034	80	7582022.2337482	7582022.2341573	40	7582025.4908381	7582025.4914943	100	del	7582026.1954361	nan	nan	nan	nan	nan
1517.7880859375	0.0	40	3108430	104	90	970	0	1	7582019.2020643	7582019.2024034	80	7582022.2337482	7582022.2341573	40	7582025.4908381	7582025.4914943	100	del	7582026.1954361	nan	nan	nan	nan	nan
1521.04541015625	0.0	100	3115101	104	90	970	0	1	7582019.2020643	7582019.2024034	80	7582022.2337482	7582022.2341573	40	7582025.4908381	7582025.4914943	100	del	7582026.1954361	nan	nan	nan	nan	nan
1524.3583984375	0.0	80	3121886	105	90	12	1	1	7582028.8042716	7582028.8045554	80	7582031.8705492	7582031.8706934	40	7582034.9857327	7582034.9862684	100	del	7582035.731013	7582036.2413667	7582036.2417237	120.0	3.0	7582037.0590074
1527.4248046875	0.0	40	3128166	105	90	12	1	1	7582028.8042716	7582028.8045554	80	7582031.8705492	7582031.8706934	40	7582034.9857327	7582034.9862684	100	del	7582035.731013	7582036.2413667	7582036.2417237	120.0	3.0	7582037.0590074
1530.53955078125	0.0	100	3134545	105	90	12	1	1	7582028.8042716	7582028.8045554	80	7582031.8705492	7582031.8706934	40	7582034.9857327	7582034.9862684	100	del	7582035.731013	7582036.2413667	7582036.2417237	120.0	3.0	7582037.0590074
1531.79541015625	0.0	120	3137117	105	90	12	1	1	7582028.8042716	7582028.8045554	80	7582031.8705492	7582031.8706934	40	7582034.9857327	7582034.9862684	100	del	7582035.731013	7582036.2413667	7582036.2417237	120.0	3.0	7582037.0590074
1534.701171875	0.0	80	3143068	106	53	12	1	0	7582039.1474175	7582039.1478574	80	7582042.2472945	7582042.2475787	40	7582045.2830782	7582045.283568	100	del	7582046.7393533	7582047.2513644	7582047.2518173	120.0	3.0	7582048.0429683
1537.80078125	0.0	40	3149416	106	53	12	1	0	7582039.1474175	7582039.1478574	80	7582042.2472945	7582042.2475787	40	7582045.2830782	7582045.283568	100	del	7582046.7393533	7582047.2513644	7582047.2518173	120.0	3.0	7582048.0429683
1540.8369140625	0.0	100	3155634	106	53	12	1	0	7582039.1474175	7582039.1478574	80	7582042.2472945	7582042.2475787	40	7582045.2830782	7582045.283568	100	del	7582046.7393533	7582047.2513644	7582047.2518173	120.0	3.0	7582048.0429683
1542.80517578125	0.0	120	3159665	106	53	12	1	0	7582039.1474175	7582039.1478574	80	7582042.2472945	7582042.2475787	40	7582045.2830782	7582045.283568	100	del	7582046.7393533	7582047.2513644	7582047.2518173	120.0	3.0	7582048.0429683
1545.92822265625	0.0	80	3166061	107	63	970	0	0	7582050.3747045	7582050.3751217	80	7582053.5236821	7582053.5241426	40	7582056.8060415	7582056.8065985	100	del	7582065.5245091	nan	nan	nan	nan	nan
1549.0771484375	0.0	40	3172510	107	63	970	0	0	7582050.3747045	7582050.3751217	80	7582053.5236821	7582053.5241426	40	7582056.8060415	7582056.8065985	100	del	7582065.5245091	nan	nan	nan	nan	nan
1552.359375	0.0	100	3179232	107	63	970	0	0	7582050.3747045	7582050.3751217	80	7582053.5236821	7582053.5241426	40	7582056.8060415	7582056.8065985	100	del	7582065.5245091	nan	nan	nan	nan	nan
1563.94189453125	0.0	80	3202953	108	50	12	1	1	7582068.3890126	7582068.3894946	80	7582071.6460368	7582071.6465232	40	7582074.927543	7582074.9280167	100	del	7582076.010762	7582076.5204291	7582076.520805	120.0	3.0	7582076.9228504
1567.19921875	0.0	40	3209624	108	50	12	1	1	7582068.3890126	7582068.3894946	80	7582071.6460368	7582071.6465232	40	7582074.927543	7582074.9280167	100	del	7582076.010762	7582076.5204291	7582076.520805	120.0	3.0	7582076.9228504
1570.48046875	0.0	100	3216344	108	50	12	1	1	7582068.3890126	7582068.3894946	80	7582071.6460368	7582071.6465232	40	7582074.927543	7582074.9280167	100	del	7582076.010762	7582076.5204291	7582076.520805	120.0	3.0	7582076.9228504
1572.0732421875	0.0	120	3219606	108	50	12	1	1	7582068.3890126	7582068.3894946	80	7582071.6460368	7582071.6465232	40	7582074.927543	7582074.9280167	100	del	7582076.010762	7582076.5204291	7582076.520805	120.0	3.0	7582076.9228504
1574.7109375	0.0	80	3225008	109	100	260	0	1	7582079.1582689	7582079.1586397	80	7582082.2260338	7582082.2263105	40	7582085.4806692	7582085.4811704	100	imm	7582086.1787378	nan	nan	nan	nan	nan
1577.77880859375	0.0	40	3231291	109	100	260	0	1	7582079.1582689	7582079.1586397	80	7582082.2260338	7582082.2263105	40	7582085.4806692	7582085.4811704	100	imm	7582086.1787378	nan	nan	nan	nan	nan
1581.033203125	0.0	100	3237956	109	100	260	0	1	7582079.1582689	7582079.1586397	80	7582082.2260338	7582082.2263105	40	7582085.4806692	7582085.4811704	100	imm	7582086.1787378	nan	nan	nan	nan	nan
1584.673828125	0.0	80	3245412	110	90	700	1	0	7582089.1211277	7582089.1216108	80	7582092.565721	7582092.5662495	40	7582095.7135748	7582095.7141803	100	imm	7582097.1629666	7582097.6722922	7582097.6726926	120.0	4.0	7582098.195482
1588.1181640625	0.0	40	3252466	110	90	700	1	0	7582089.1211277	7582089.1216108	80	7582092.565721	7582092.5662495	40	7582095.7135748	7582095.7141803	100	imm	7582097.1629666	7582097.6722922	7582097.6726926	120.0	4.0	7582098.195482
1591.26611328125	0.0	100	3258913	110	90	700	1	0	7582089.1211277	7582089.1216108	80	7582092.565721	7582092.5662495	40	7582095.7135748	7582095.7141803	100	imm	7582097.1629666	7582097.6722922	7582097.6726926	120.0	4.0	7582098.195482
1593.224609375	0.0	120	3262924	110	90	700	1	0	7582089.1211277	7582089.1216108	80	7582092.565721	7582092.5662495	40	7582095.7135748	7582095.7141803	100	imm	7582097.1629666	7582097.6722922	7582097.6726926	120.0	4.0	7582098.195482
1595.86669921875	0.0	80	3268335	111	60	700	1	1	7582100.314373	7582100.3146602	80	7582103.6041857	7582103.6046458	40	7582106.9378413	7582106.9383532	100	imm	7582107.6036376	7582108.116904	7582108.1173885	120.0	3.0	7582108.6516592
1599.15625	0.0	40	3275072	111	60	700	1	1	7582100.314373	7582100.3146602	80	7582103.6041857	7582103.6046458	40	7582106.9378413	7582106.9383532	100	imm	7582107.6036376	7582108.116904	7582108.1173885	120.0	3.0	7582108.6516592
1602.48974609375	0.0	100	3281899	111	60	700	1	1	7582100.314373	7582100.3146602	80	7582103.6041857	7582103.6046458	40	7582106.9378413	7582106.9383532	100	imm	7582107.6036376	7582108.116904	7582108.1173885	120.0	3.0	7582108.6516592
1603.6689453125	0.0	120	3284314	111	60	700	1	1	7582100.314373	7582100.3146602	80	7582103.6041857	7582103.6046458	40	7582106.9378413	7582106.9383532	100	imm	7582107.6036376	7582108.116904	7582108.1173885	120.0	3.0	7582108.6516592
1606.42626953125	0.0	80	3289961	112	77	180	1	0	7582110.8743976	7582110.8748357	80	7582113.9842503	7582113.9846509	40	7582117.470192	7582117.4706098	100	imm	7582118.6267861	7582119.1372833	7582119.1376051	120.0	2.0	7582119.3556495
1609.5361328125	0.0	40	3296330	112	77	180	1	0	7582110.8743976	7582110.8748357	80	7582113.9842503	7582113.9846509	40	7582117.470192	7582117.4706098	100	imm	7582118.6267861	7582119.1372833	7582119.1376051	120.0	2.0	7582119.3556495
1613.02197265625	0.0	100	3303469	112	77	180	1	0	7582110.8743976	7582110.8748357	80	7582113.9842503	7582113.9846509	40	7582117.470192	7582117.4706098	100	imm	7582118.6267861	7582119.1372833	7582119.1376051	120.0	2.0	7582119.3556495
1614.68896484375	0.0	120	3306883	112	77	180	1	0	7582110.8743976	7582110.8748357	80	7582113.9842503	7582113.9846509	40	7582117.470192	7582117.4706098	100	imm	7582118.6267861	7582119.1372833	7582119.1376051	120.0	2.0	7582119.3556495
1616.96533203125	0.0	80	3311545	113	93	260	0	0	7582121.4138902	7582121.414339	80	7582124.4734783	7582124.4738857	40	7582127.5562123	7582127.5566314	100	imm	7582128.0186599	nan	nan	nan	nan	nan
1620.02490234375	0.0	40	3317811	113	93	260	0	0	7582121.4138902	7582121.414339	80	7582124.4734783	7582124.4738857	40	7582127.5562123	7582127.5566314	100	imm	7582128.0186599	nan	nan	nan	nan	nan
1623.107421875	0.0	100	3324124	113	93	260	0	0	7582121.4138902	7582121.414339	80	7582124.4734783	7582124.4738857	40	7582127.5562123	7582127.5566314	100	imm	7582128.0186599	nan	nan	nan	nan	nan
1626.17236328125	0.0	80	3330401	114	97	510	0	0	7582130.6210242	7582130.6215205	80	7582133.9390374	7582133.9395398	40	7582137.2387994	7582137.2393424	100	imm	7582138.474936	nan	nan	nan	nan	nan
1629.490234375	0.0	40	3337196	114	97	510	0	0	7582130.6210242	7582130.6215205	80	7582133.9390374	7582133.9395398	40	7582137.2387994	7582137.2393424	100	imm	7582138.474936	nan	nan	nan	nan	nan
1632.7900390625	0.0	100	3343954	114	97	510	0	0	7582130.6210242	7582130.6215205	80	7582133.9390374	7582133.9395398	40	7582137.2387994	7582137.2393424	100	imm	7582138.474936	nan	nan	nan	nan	nan
1636.5654296875	0.0	80	3351686	115	63	12	1	0	7582141.0147009	7582141.0149789	80	7582144.4874994	7582144.4879014	40	7582147.8650499	7582147.8655537	100	del	7582149.3555579	7582149.868379	7582149.8688376	120.0	3.0	7582151.5874635
1640.03857421875	0.0	40	3358799	115	63	12	1	0	7582141.0147009	7582141.0149789	80	7582144.4874994	7582144.4879014	40	7582147.8650499	7582147.8655537	100	del	7582149.3555579	7582149.868379	7582149.8688376	120.0	3.0	7582151.5874635
1643.416015625	0.0	100	3365716	115	63	12	1	0	7582141.0147009	7582141.0149789	80	7582144.4874994	7582144.4879014	40	7582147.8650499	7582147.8655537	100	del	7582149.3555579	7582149.868379	7582149.8688376	120.0	3.0	7582151.5874635
1645.4189453125	0.0	120	3369818	115	63	12	1	0	7582141.0147009	7582141.0149789	80	7582144.4874994	7582144.4879014	40	7582147.8650499	7582147.8655537	100	del	7582149.3555579	7582149.868379	7582149.8688376	120.0	3.0	7582151.5874635
1649.52099609375	0.0	80	3378219	116	60	365	1	1	7582153.9704759	7582153.9710105	80	7582157.0096841	7582157.0101695	40	7582160.453672	7582160.454075	100	imm	7582161.0991473	7582161.6105758	7582161.610997	120.0	4.0	7582162.3791262
1652.56005859375	0.0	40	3384443	116	60	365	1	1	7582153.9704759	7582153.9710105	80	7582157.0096841	7582157.0101695	40	7582160.453672	7582160.454075	100	imm	7582161.0991473	7582161.6105758	7582161.610997	120.0	4.0	7582162.3791262
1656.00439453125	0.0	100	3391497	116	60	365	1	1	7582153.9704759	7582153.9710105	80	7582157.0096841	7582157.0101695	40	7582160.453672	7582160.454075	100	imm	7582161.0991473	7582161.6105758	7582161.610997	120.0	4.0	7582162.3791262
1657.1611328125	0.0	120	3393866	116	60	365	1	1	7582153.9704759	7582153.9710105	80	7582157.0096841	7582157.0101695	40	7582160.453672	7582160.454075	100	imm	7582161.0991473	7582161.6105758	7582161.610997	120.0	4.0	7582162.3791262
1660.412109375	0.0	80	3400524	117	90	130	0	1	7582164.8617283	7582164.8622477	80	7582168.3618067	7582168.3623154	40	7582171.8042173	7582171.8047961	100	imm	7582175.1866224	nan	nan	nan	nan	nan
1663.912109375	0.0	40	3407692	117	90	130	0	1	7582164.8617283	7582164.8622477	80	7582168.3618067	7582168.3623154	40	7582171.8042173	7582171.8047961	100	imm	7582175.1866224	nan	nan	nan	nan	nan
1667.3544921875	0.0	100	3414742	117	90	130	0	1	7582164.8617283	7582164.8622477	80	7582168.3618067	7582168.3623154	40	7582171.8042173	7582171.8047961	100	imm	7582175.1866224	nan	nan	nan	nan	nan
1673.64697265625	0.0	80	3427629	118	90	510	0	0	7582178.097197	7582178.0976015	80	7582181.3602108	7582181.3606946	40	7582184.4621398	7582184.4626491	100	imm	7582185.0754542	nan	nan	nan	nan	nan
1676.91015625	0.0	40	3434312	118	90	510	0	0	7582178.097197	7582178.0976015	80	7582181.3602108	7582181.3606946	40	7582184.4621398	7582184.4626491	100	imm	7582185.0754542	nan	nan	nan	nan	nan
1680.01220703125	0.0	100	3440665	118	90	510	0	0	7582178.097197	7582178.0976015	80	7582181.3602108	7582181.3606946	40	7582184.4621398	7582184.4626491	100	imm	7582185.0754542	nan	nan	nan	nan	nan
1683.3388671875	0.0	80	3447478	119	53	365	1	1	7582187.7893466	7582187.7897193	80	7582190.8636747	7582190.8641426	40	7582193.8926685	7582193.8931652	100	imm	7582194.5867845	7582195.0981635	7582195.0985492	120.0	1.0	7582195.6353019
1686.41357421875	0.0	40	3453775	119	53	365	1	1	7582187.7893466	7582187.7897193	80	7582190.8636747	7582190.8641426	40	7582193.8926685	7582193.8931652	100	imm	7582194.5867845	7582195.0981635	7582195.0985492	120.0	1.0	7582195.6353019
1689.4423828125	0.0	100	3459978	119	53	365	1	1	7582187.7893466	7582187.7897193	80	7582190.8636747	7582190.8641426	40	7582193.8926685	7582193.8931652	100	imm	7582194.5867845	7582195.0981635	7582195.0985492	120.0	1.0	7582195.6353019
1690.6474609375	0.0	120	3462446	119	53	365	1	1	7582187.7893466	7582187.7897193	80	7582190.8636747	7582190.8641426	40	7582193.8926685	7582193.8931652	100	imm	7582194.5867845	7582195.0981635	7582195.0985492	120.0	1.0	7582195.6353019
1693.669921875	0.0	80	3468636	120	97	260	0	0	7582198.1202192	7582198.1206788	80	7582201.2770543	7582201.2773741	40	7582204.43795	7582204.438418	100	imm	7582207.6672615	nan	nan	nan	nan	nan
1696.826171875	0.0	40	3475100	120	97	260	0	0	7582198.1202192	7582198.1206788	80	7582201.2770543	7582201.2773741	40	7582204.43795	7582204.438418	100	imm	7582207.6672615	nan	nan	nan	nan	nan
1699.9873046875	0.0	100	3481574	120	97	260	0	0	7582198.1202192	7582198.1206788	80	7582201.2770543	7582201.2773741	40	7582204.43795	7582204.438418	100	imm	7582207.6672615	nan	nan	nan	nan	nan
1730.61181640625	0.0	80	3544293	121	57	700	1	1	7582235.0634972	7582235.0638089	80	7582238.3036528	7582238.3040541	40	7582241.638917	7582241.6392682	100	imm	7582246.1788367	7582246.6892184	7582246.6895588	120.0	1.0	7582246.9873421
1733.85205078125	0.0	40	3550929	121	57	700	1	1	7582235.0634972	7582235.0638089	80	7582238.3036528	7582238.3040541	40	7582241.638917	7582241.6392682	100	imm	7582246.1788367	7582246.6892184	7582246.6895588	120.0	1.0	7582246.9873421
1737.18701171875	0.0	100	3557759	121	57	700	1	1	7582235.0634972	7582235.0638089	80	7582238.3036528	7582238.3040541	40	7582241.638917	7582241.6392682	100	imm	7582246.1788367	7582246.6892184	7582246.6895588	120.0	1.0	7582246.9873421
1742.2373046875	0.0	120	3568102	121	57	700	1	1	7582235.0634972	7582235.0638089	80	7582238.3036528	7582238.3040541	40	7582241.638917	7582241.6392682	100	imm	7582246.1788367	7582246.6892184	7582246.6895588	120.0	1.0	7582246.9873421
1744.5615234375	0.0	80	3572862	122	57	260	0	1	7582249.0133403	7582249.0137961	80	7582252.4427423	7582252.4431382	40	7582255.7325801	7582255.7328717	100	imm	7582256.4672296	nan	nan	nan	nan	nan
1747.99072265625	0.0	40	3579885	122	57	260	0	1	7582249.0133403	7582249.0137961	80	7582252.4427423	7582252.4431382	40	7582255.7325801	7582255.7328717	100	imm	7582256.4672296	nan	nan	nan	nan	nan
1751.2802734375	0.0	100	3586622	122	57	260	0	1	7582249.0133403	7582249.0137961	80	7582252.4427423	7582252.4431382	40	7582255.7325801	7582255.7328717	100	imm	7582256.4672296	nan	nan	nan	nan	nan
1754.958984375	0.0	80	3594156	123	50	40	0	0	7582259.4109962	7582259.4114309	80	7582262.592917	7582262.5934079	40	7582265.8295196	7582265.8300242	100	imm	7582267.3073646	nan	nan	nan	nan	nan
1758.140625	0.0	40	3600672	123	50	40	0	0	7582259.4109962	7582259.4114309	80	7582262.592917	7582262.5934079	40	7582265.8295196	7582265.8300242	100	imm	7582267.3073646	nan	nan	nan	nan	nan
1761.376953125	0.0	100	3607300	123	50	40	0	0	7582259.4109962	7582259.4114309	80	7582262.592917	7582262.5934079	40	7582265.8295196	7582265.8300242	100	imm	7582267.3073646	nan	nan	nan	nan	nan
1765.3955078125	0.0	80	3615530	124	63	510	0	0	7582269.8482592	7582269.8486375	80	7582272.9434015	7582272.9438794	40	7582276.2879663	7582276.2884964	100	imm	7582277.1067788	nan	nan	nan	nan	nan
1768.49072265625	0.0	40	3621869	124	63	510	0	0	7582269.8482592	7582269.8486375	80	7582272.9434015	7582272.9438794	40	7582276.2879663	7582276.2884964	100	imm	7582277.1067788	nan	nan	nan	nan	nan
1771.83544921875	0.0	100	3628719	124	63	510	0	0	7582269.8482592	7582269.8486375	80	7582272.9434015	7582272.9438794	40	7582276.2879663	7582276.2884964	100	imm	7582277.1067788	nan	nan	nan	nan	nan
1775.3359375	0.0	80	3635888	125	60	12	1	0	7582279.7887626	7582279.789213	80	7582283.2461992	7582283.2466867	40	7582286.3180525	7582286.3185662	100	del	7582294.2127308	7582294.7225774	7582294.7229195	120.0	3.0	7582295.3966711
1778.79345703125	0.0	40	3642969	125	60	12	1	0	7582279.7887626	7582279.789213	80	7582283.2461992	7582283.2466867	40	7582286.3180525	7582286.3185662	100	del	7582294.2127308	7582294.7225774	7582294.7229195	120.0	3.0	7582295.3966711
1781.865234375	0.0	100	3649260	125	60	12	1	0	7582279.7887626	7582279.789213	80	7582283.2461992	7582283.2466867	40	7582286.3180525	7582286.3185662	100	del	7582294.2127308	7582294.7225774	7582294.7229195	120.0	3.0	7582295.3966711
1790.26953125	0.0	120	3666472	125	60	12	1	0	7582279.7887626	7582279.789213	80	7582283.2461992	7582283.2466867	40	7582286.3180525	7582286.3185662	100	del	7582294.2127308	7582294.7225774	7582294.7229195	120.0	3.0	7582295.3966711
1793.44970703125	0.0	80	3672985	126	73	40	0	1	7582297.9031472	7582297.9034799	80	7582301.1804617	7582301.1811715	40	7582304.5505148	7582304.5509668	100	imm	7582306.6191631	nan	nan	nan	nan	nan
1796.72705078125	0.0	40	3679697	126	73	40	0	1	7582297.9031472	7582297.9034799	80	7582301.1804617	7582301.1811715	40	7582304.5505148	7582304.5509668	100	imm	7582306.6191631	nan	nan	nan	nan	nan
1800.09716796875	0.0	100	3686599	126	73	40	0	1	7582297.9031472	7582297.9034799	80	7582301.1804617	7582301.1811715	40	7582304.5505148	7582304.5509668	100	imm	7582306.6191631	nan	nan	nan	nan	nan
1805.1806640625	0.0	80	3697010	127	50	510	0	0	7582309.634184	7582309.6345467	80	7582312.7848101	7582312.7852555	40	7582316.0048404	7582316.005346	100	imm	7582316.843538	nan	nan	nan	nan	nan
1808.3310546875	0.0	40	3703462	127	50	510	0	0	7582309.634184	7582309.6345467	80	7582312.7848101	7582312.7852555	40	7582316.0048404	7582316.005346	100	imm	7582316.843538	nan	nan	nan	nan	nan
1811.55126953125	0.0	100	3710057	127	50	510	0	0	7582309.634184	7582309.6345467	80	7582312.7848101	7582312.7852555	40	7582316.0048404	7582316.005346	100	imm	7582316.843538	nan	nan	nan	nan	nan
1815.13720703125	0.0	80	3717401	128	70	12	1	0	7582319.5909725	7582319.5913841	80	7582322.9805397	7582322.9809332	40	7582326.4004039	7582326.4007999	100	del	7582327.1795961	7582327.689431	7582327.6897724	120.0	2.0	7582329.5394909
1818.5263671875	0.0	40	3724342	128	70	12	1	0	7582319.5909725	7582319.5913841	80	7582322.9805397	7582322.9809332	40	7582326.4004039	7582326.4007999	100	del	7582327.1795961	7582327.689431	7582327.6897724	120.0	2.0	7582329.5394909
1821.9462890625	0.0	100	3731346	128	70	12	1	0	7582319.5909725	7582319.5913841	80	7582322.9805397	7582322.9809332	40	7582326.4004039	7582326.4007999	100	del	7582327.1795961	7582327.689431	7582327.6897724	120.0	2.0	7582329.5394909
1823.2353515625	0.0	120	3733986	128	70	12	1	0	7582319.5909725	7582319.5913841	80	7582322.9805397	7582322.9809332	40	7582326.4004039	7582326.4007999	100	del	7582327.1795961	7582327.689431	7582327.6897724	120.0	2.0	7582329.5394909
1827.14892578125	0.0	80	3742001	129	87	40	0	1	7582331.6032118	7582331.6036952	80	7582334.6993636	7582334.6998127	40	7582337.8911523	7582337.8916946	100	imm	7582339.1326911	nan	nan	nan	nan	nan
1830.2451171875	0.0	40	3748342	129	87	40	0	1	7582331.6032118	7582331.6036952	80	7582334.6993636	7582334.6998127	40	7582337.8911523	7582337.8916946	100	imm	7582339.1326911	nan	nan	nan	nan	nan
1833.43701171875	0.0	100	3754879	129	87	40	0	1	7582331.6032118	7582331.6036952	80	7582334.6993636	7582334.6998127	40	7582337.8911523	7582337.8916946	100	imm	7582339.1326911	nan	nan	nan	nan	nan
1837.2197265625	0.0	80	3762626	130	87	260	0	0	7582341.6742927	7582341.6746504	80	7582344.9421213	7582344.9425985	40	7582348.1236604	7582348.1241677	100	na	7582352.1085458	nan	nan	nan	nan	nan
1840.4873046875	0.0	40	3769318	130	87	260	0	0	7582341.6742927	7582341.6746504	80	7582344.9421213	7582344.9425985	40	7582348.1236604	7582348.1241677	100	na	7582352.1085458	nan	nan	nan	nan	nan
1843.6689453125	0.0	100	3775834	130	87	260	0	0	7582341.6742927	7582341.6746504	80	7582344.9421213	7582344.9425985	40	7582348.1236604	7582348.1241677	100	na	7582352.1085458	nan	nan	nan	nan	nan
1850.25830078125	0.0	80	3789329	131	67	700	1	1	7582354.7131951	7582354.7136368	80	7582357.8245435	7582357.8249814	40	7582361.2888211	7582361.2892217	100	imm	7582368.611304	7582369.1231532	7582369.1235507	120.0	3.0	7582369.9072388
1853.36962890625	0.0	40	3795701	131	67	700	1	1	7582354.7131951	7582354.7136368	80	7582357.8245435	7582357.8249814	40	7582361.2888211	7582361.2892217	100	imm	7582368.611304	7582369.1231532	7582369.1235507	120.0	3.0	7582369.9072388
1856.83349609375	0.0	100	3802795	131	67	700	1	1	7582354.7131951	7582354.7136368	80	7582357.8245435	7582357.8249814	40	7582361.2888211	7582361.2892217	100	imm	7582368.611304	7582369.1231532	7582369.1235507	120.0	3.0	7582369.9072388
1864.66796875	0.0	120	3818840	131	67	700	1	1	7582354.7131951	7582354.7136368	80	7582357.8245435	7582357.8249814	40	7582361.2888211	7582361.2892217	100	imm	7582368.611304	7582369.1231532	7582369.1235507	120.0	3.0	7582369.9072388
1867.802734375	0.0	80	3825260	132	53	180	1	0	7582372.2582562	7582372.2586754	80	7582375.5007459	7582375.5011119	40	7582378.9697105	7582378.9702036	100	imm	7582381.4831823	7582381.9922156	7582381.9925535	120.0	2.0	7582382.9798858
1871.04541015625	0.0	40	3831901	132	53	180	1	0	7582372.2582562	7582372.2586754	80	7582375.5007459	7582375.5011119	40	7582378.9697105	7582378.9702036	100	imm	7582381.4831823	7582381.9922156	7582381.9925535	120.0	2.0	7582382.9798858
1874.51416015625	0.0	100	3839005	132	53	180	1	0	7582372.2582562	7582372.2586754	80	7582375.5007459	7582375.5011119	40	7582378.9697105	7582378.9702036	100	imm	7582381.4831823	7582381.9922156	7582381.9925535	120.0	2.0	7582382.9798858
1877.53662109375	0.0	120	3845195	132	53	180	1	0	7582372.2582562	7582372.2586754	80	7582375.5007459	7582375.5011119	40	7582378.9697105	7582378.9702036	100	imm	7582381.4831823	7582381.9922156	7582381.9925535	120.0	2.0	7582382.9798858
1880.58984375	0.0	80	3851448	133	80	970	0	1	7582385.0455447	7582385.0460506	80	7582388.4263432	7582388.4268481	40	7582391.8095575	7582391.8100082	100	imm	7582392.9319006	nan	nan	nan	nan	nan
1883.970703125	0.0	40	3858372	133	80	970	0	1	7582385.0455447	7582385.0460506	80	7582388.4263432	7582388.4268481	40	7582391.8095575	7582391.8100082	100	imm	7582392.9319006	nan	nan	nan	nan	nan
1887.353515625	0.0	100	3865300	133	80	970	0	1	7582385.0455447	7582385.0460506	80	7582388.4263432	7582388.4268481	40	7582391.8095575	7582391.8100082	100	imm	7582392.9319006	nan	nan	nan	nan	nan
1891.2724609375	0.0	80	3873326	134	77	365	1	1	7582395.7287271	7582395.7291519	80	7582398.8284049	7582398.8289836	40	7582402.1409077	7582402.141397	100	imm	7582403.2029385	7582403.7142882	7582403.7146981	120.0	4.0	7582409.4431673
1894.37255859375	0.0	40	3879675	134	77	365	1	1	7582395.7287271	7582395.7291519	80	7582398.8284049	7582398.8289836	40	7582402.1409077	7582402.141397	100	imm	7582403.2029385	7582403.7142882	7582403.7146981	120.0	4.0	7582409.4431673
1897.6845703125	0.0	100	3886458	134	77	365	1	1	7582395.7287271	7582395.7291519	80	7582398.8284049	7582398.8289836	40	7582402.1409077	7582402.141397	100	imm	7582403.2029385	7582403.7142882	7582403.7146981	120.0	4.0	7582409.4431673
1899.2578125	0.0	120	3889680	134	77	365	1	1	7582395.7287271	7582395.7291519	80	7582398.8284049	7582398.8289836	40	7582402.1409077	7582402.141397	100	imm	7582403.2029385	7582403.7142882	7582403.7146981	120.0	4.0	7582409.4431673
1907.14990234375	0.0	80	3905843	135	93	12	1	0	7582411.6064728	7582411.606934	80	7582414.6813597	7582414.6818459	40	7582417.8008742	7582417.8013206	100	del	7582425.1238714	7582425.6334153	7582425.6337501	120.0	1.0	7582426.6113991
1910.224609375	0.0	40	3912140	135	93	12	1	0	7582411.6064728	7582411.606934	80	7582414.6813597	7582414.6818459	40	7582417.8008742	7582417.8013206	100	del	7582425.1238714	7582425.6334153	7582425.6337501	120.0	1.0	7582426.6113991
1913.34423828125	0.0	100	3918529	135	93	12	1	0	7582411.6064728	7582411.606934	80	7582414.6813597	7582414.6818459	40	7582417.8008742	7582417.8013206	100	del	7582425.1238714	7582425.6334153	7582425.6337501	120.0	1.0	7582426.6113991
1921.17626953125	0.0	120	3934569	135	93	12	1	0	7582411.6064728	7582411.606934	80	7582414.6813597	7582414.6818459	40	7582417.8008742	7582417.8013206	100	del	7582425.1238714	7582425.6334153	7582425.6337501	120.0	1.0	7582426.6113991
1924.6171875	0.0	80	3941616	136	53	970	0	1	7582429.0739794	7582429.0745233	80	7582432.1173999	7582432.1178926	40	7582435.2521095	7582435.2526272	100	imm	7582436.0514186	nan	nan	nan	nan	nan
