onset	duration	value	sample	trial_idx	val	del	is_cued	rev_opts	del_pres_displaytime	del_pres_triggertime	del_pres_triggercode	val_pres_displaytime	val_pres_triggertime	val_pres_triggercode	choice_displaytime	choice_triggertime	choice_triggercode	choice	choice_time	viv_displaytime	viv_triggertime	viv_triggercode	viv	viv_time
29.4404296875	0.0	80	60294	1	73	330	1	0	736405.8079135	736405.8096377	80	736408.9969009	736408.9984886	40	736412.4962754	736412.49747	100	imm	736414.3097256	736414.8251592	736414.8264086	120.0	1.0	736420.7411798
32.6298828125	0.0	40	66826	1	73	330	1	0	736405.8079135	736405.8096377	80	736408.9969009	736408.9984886	40	736412.4962754	736412.49747	100	imm	736414.3097256	736414.8251592	736414.8264086	120.0	1.0	736420.7411798
36.12939453125	0.0	100	73993	1	73	330	1	0	736405.8079135	736405.8096377	80	736408.9969009	736408.9984886	40	736412.4962754	736412.49747	100	imm	736414.3097256	736414.8251592	736414.8264086	120.0	1.0	736420.7411798
38.45751953125	0.0	120	78761	1	73	330	1	0	736405.8079135	736405.8096377	80	736408.9969009	736408.9984886	40	736412.4962754	736412.49747	100	imm	736414.3097256	736414.8251592	736414.8264086	120.0	1.0	736420.7411798
46.453125	0.0	80	95136	2	97	100	0	1	736422.8205579	736422.8210674	80	736426.1944702	736426.1949178	40	736429.531125	736429.5316575	100	del	736440.3268535	nan	nan	nan	nan	nan
49.82666015625	0.0	40	102045	2	97	100	0	1	736422.8205579	736422.8210674	80	736426.1944702	736426.1949178	40	736429.531125	736429.5316575	100	del	736440.3268535	nan	nan	nan	nan	nan
53.16357421875	0.0	100	108879	2	97	100	0	1	736422.8205579	736422.8210674	80	736426.1944702	736426.1949178	40	736429.531125	736429.5316575	100	del	736440.3268535	nan	nan	nan	nan	nan
66.892578125	0.0	80	136996	3	60	100	0	1	736443.2606508	736443.2610864	80	736446.467374	736446.467856	40	736449.8559577	736449.8563927	100	imm	736463.0130345	nan	nan	nan	nan	nan
70.09912109375	0.0	40	143563	3	60	100	0	1	736443.2606508	736443.2610864	80	736446.467374	736446.467856	40	736449.8559577	736449.8563927	100	imm	736463.0130345	nan	nan	nan	nan	nan
73.48779296875	0.0	100	150503	3	60	100	0	1	736443.2606508	736443.2610864	80	736446.467374	736446.467856	40	736449.8559577	736449.8563927	100	imm	736463.0130345	nan	nan	nan	nan	nan
89.57861328125	0.0	80	183457	4	77	3	1	1	736465.9474126	736465.9479078	80	736469.1167977	736469.1174653	40	736472.407092	736472.4075808	100	del	736479.549319	736480.0607176	736480.0611761	120.0	4.0	736482.8052112
92.74853515625	0.0	40	189949	4	77	3	1	1	736465.9474126	736465.9479078	80	736469.1167977	736469.1174653	40	736472.407092	736472.4075808	100	del	736479.549319	736480.0607176	736480.0611761	120.0	4.0	736482.8052112
96.03857421875	0.0	100	196687	4	77	3	1	1	736465.9474126	736465.9479078	80	736469.1167977	736469.1174653	40	736472.407092	736472.4075808	100	del	736479.549319	736480.0607176	736480.0611761	120.0	4.0	736482.8052112
103.69189453125	0.0	120	212361	4	77	3	1	1	736465.9474126	736465.9479078	80	736469.1167977	736469.1174653	40	736472.407092	736472.4075808	100	del	736479.549319	736480.0607176	736480.0611761	120.0	4.0	736482.8052112
108.93798828125	0.0	80	223105	5	87	50	1	1	736485.3068565	736485.3073266	80	736488.5892238	736488.5897164	40	736491.7681298	736491.7686408	100	del	736496.1989726	736496.7107033	736496.7111974	120.0	4.0	736501.3102643
112.22021484375	0.0	40	229827	5	87	50	1	1	736485.3068565	736485.3073266	80	736488.5892238	736488.5897164	40	736491.7681298	736491.7686408	100	del	736496.1989726	736496.7107033	736496.7111974	120.0	4.0	736501.3102643
115.39892578125	0.0	100	236337	5	87	50	1	1	736485.3068565	736485.3073266	80	736488.5892238	736488.5897164	40	736491.7681298	736491.7686408	100	del	736496.1989726	736496.7107033	736496.7111974	120.0	4.0	736501.3102643
120.34130859375	0.0	120	246459	5	87	50	1	1	736485.3068565	736485.3073266	80	736488.5892238	736488.5897164	40	736491.7681298	736491.7686408	100	del	736496.1989726	736496.7107033	736496.7111974	120.0	4.0	736501.3102643
127.265625	0.0	80	260640	6	60	260	0	1	736503.635026	736503.6354163	80	736506.8229565	736506.8233998	40	736510.2150228	736510.2155364	100	imm	736512.4865139	nan	nan	nan	nan	nan
130.453125	0.0	40	267168	6	60	260	0	1	736503.635026	736503.6354163	80	736506.8229565	736506.8233998	40	736510.2150228	736510.2155364	100	imm	736512.4865139	nan	nan	nan	nan	nan
133.84521484375	0.0	100	274115	6	60	260	0	1	736503.635026	736503.6354163	80	736506.8229565	736506.8233998	40	736510.2150228	736510.2155364	100	imm	736512.4865139	nan	nan	nan	nan	nan
138.83984375	0.0	80	284344	7	80	330	1	1	736515.2097902	736515.2102872	80	736518.4643978	736518.464827	40	736521.8248563	736521.8253621	100	del	736529.4690848	736529.9814416	736529.9819024	120.0	4.0	736532.0770266
142.0947265625	0.0	40	291010	7	80	330	1	1	736515.2097902	736515.2102872	80	736518.4643978	736518.464827	40	736521.8248563	736521.8253621	100	del	736529.4690848	736529.9814416	736529.9819024	120.0	4.0	736532.0770266
145.455078125	0.0	100	297892	7	80	330	1	1	736515.2097902	736515.2102872	80	736518.4643978	736518.464827	40	736521.8248563	736521.8253621	100	del	736529.4690848	736529.9814416	736529.9819024	120.0	4.0	736532.0770266
153.611328125	0.0	120	314596	7	80	330	1	1	736515.2097902	736515.2102872	80	736518.4643978	736518.464827	40	736521.8248563	736521.8253621	100	del	736529.4690848	736529.9814416	736529.9819024	120.0	4.0	736532.0770266
158.20849609375	0.0	80	324011	8	60	1240	0	1	736534.5787286	736534.5791678	80	736537.7488861	736537.7491831	40	736541.1812632	736541.1817777	100	imm	736542.2530241	nan	nan	nan	nan	nan
161.37841796875	0.0	40	330503	8	60	1240	0	1	736534.5787286	736534.5791678	80	736537.7488861	736537.7491831	40	736541.1812632	736541.1817777	100	imm	736542.2530241	nan	nan	nan	nan	nan
164.81103515625	0.0	100	337533	8	60	1240	0	1	736534.5787286	736534.5791678	80	736537.7488861	736537.7491831	40	736541.1812632	736541.1817777	100	imm	736542.2530241	nan	nan	nan	nan	nan
168.7705078125	0.0	80	345642	9	50	100	0	1	736545.1409452	736545.1414528	80	736548.6259037	736548.6263314	40	736551.6546961	736551.6551518	100	imm	736557.9888312	nan	nan	nan	nan	nan
172.25537109375	0.0	40	352779	9	50	100	0	1	736545.1409452	736545.1414528	80	736548.6259037	736548.6263314	40	736551.6546961	736551.6551518	100	imm	736557.9888312	nan	nan	nan	nan	nan
175.2841796875	0.0	100	358982	9	50	100	0	1	736545.1409452	736545.1414528	80	736548.6259037	736548.6263314	40	736551.6546961	736551.6551518	100	imm	736557.9888312	nan	nan	nan	nan	nan
184.3134765625	0.0	80	377474	10	80	1240	0	1	736560.6842549	736560.6847446	80	736564.0235097	736564.0240149	40	736567.177714	736567.1782224	100	del	736570.7569862	nan	nan	nan	nan	nan
187.65234375	0.0	40	384312	10	80	1240	0	1	736560.6842549	736560.6847446	80	736564.0235097	736564.0240149	40	736567.177714	736567.1782224	100	del	736570.7569862	nan	nan	nan	nan	nan
190.806640625	0.0	100	390772	10	80	1240	0	1	736560.6842549	736560.6847446	80	736564.0235097	736564.0240149	40	736567.177714	736567.1782224	100	del	736570.7569862	nan	nan	nan	nan	nan
197.0185546875	0.0	80	403494	11	60	3	1	1	736573.3898005	736573.3902383	80	736576.7531312	736576.7536295	40	736580.0794071	736580.0799199	100	del	736582.5256914	736583.0388536	736583.0393068	120.0	4.0	736585.0930964
200.3818359375	0.0	40	410382	11	60	3	1	1	736573.3898005	736573.3902383	80	736576.7531312	736576.7536295	40	736580.0794071	736580.0799199	100	del	736582.5256914	736583.0388536	736583.0393068	120.0	4.0	736585.0930964
203.7080078125	0.0	100	417194	11	60	3	1	1	736573.3898005	736573.3902383	80	736576.7531312	736576.7536295	40	736580.0794071	736580.0799199	100	del	736582.5256914	736583.0388536	736583.0393068	120.0	4.0	736585.0930964
206.66748046875	0.0	120	423255	11	60	3	1	1	736573.3898005	736573.3902383	80	736576.7531312	736576.7536295	40	736580.0794071	736580.0799199	100	del	736582.5256914	736583.0388536	736583.0393068	120.0	4.0	736585.0930964
211.03271484375	0.0	80	432195	12	93	100	0	1	736587.404245	736587.4047358	80	736590.7418548	736590.7423019	40	736593.7761975	736593.7765276	100	del	736595.7186505	nan	nan	nan	nan	nan
214.3701171875	0.0	40	439030	12	93	100	0	1	736587.404245	736587.4047358	80	736590.7418548	736590.7423019	40	736593.7761975	736593.7765276	100	del	736595.7186505	nan	nan	nan	nan	nan
217.404296875	0.0	100	445244	12	93	100	0	1	736587.404245	736587.4047358	80	736590.7418548	736590.7423019	40	736593.7761975	736593.7765276	100	del	736595.7186505	nan	nan	nan	nan	nan
222.03857421875	0.0	80	454735	13	100	260	0	0	736598.410523	736598.4109549	80	736601.643869	736601.6443656	40	736604.7776947	736604.7781754	100	imm	736605.3341613	nan	nan	nan	nan	nan
225.27197265625	0.0	40	461357	13	100	260	0	0	736598.410523	736598.4109549	80	736601.643869	736601.6443656	40	736604.7776947	736604.7781754	100	imm	736605.3341613	nan	nan	nan	nan	nan
228.40576171875	0.0	100	467775	13	100	260	0	0	736598.410523	736598.4109549	80	736601.643869	736601.6443656	40	736604.7776947	736604.7781754	100	imm	736605.3341613	nan	nan	nan	nan	nan
231.83740234375	0.0	80	474803	14	90	50	1	0	736608.2093113	736608.2098819	80	736611.6461378	736611.6466498	40	736614.7993685	736614.8000691	100	del	736620.4132392	736620.9254765	736620.925958	120.0	4.0	736625.0932977
235.27392578125	0.0	40	481841	14	90	50	1	0	736608.2093113	736608.2098819	80	736611.6461378	736611.6466498	40	736614.7993685	736614.8000691	100	del	736620.4132392	736620.9254765	736620.925958	120.0	4.0	736625.0932977
238.42724609375	0.0	100	488299	14	90	50	1	0	736608.2093113	736608.2098819	80	736611.6461378	736611.6466498	40	736614.7993685	736614.8000691	100	del	736620.4132392	736620.9254765	736620.925958	120.0	4.0	736625.0932977
244.55322265625	0.0	120	500845	14	90	50	1	0	736608.2093113	736608.2098819	80	736611.6461378	736611.6466498	40	736614.7993685	736614.8000691	100	del	736620.4132392	736620.9254765	736620.925958	120.0	4.0	736625.0932977
251.10009765625	0.0	80	514253	15	100	3	1	1	736627.4729239	736627.4732879	80	736630.5497533	736630.5502006	40	736633.9811996	736633.9817688	100	del	736635.7345718	736636.2457598	736636.2462113	120.0	4.0	736643.2445688
254.17724609375	0.0	40	520555	15	100	3	1	1	736627.4729239	736627.4732879	80	736630.5497533	736630.5502006	40	736633.9811996	736633.9817688	100	del	736635.7345718	736636.2457598	736636.2462113	120.0	4.0	736643.2445688
257.6083984375	0.0	100	527582	15	100	3	1	1	736627.4729239	736627.4732879	80	736630.5497533	736630.5502006	40	736633.9811996	736633.9817688	100	del	736635.7345718	736636.2457598	736636.2462113	120.0	4.0	736643.2445688
259.873046875	0.0	120	532220	15	100	3	1	1	736627.4729239	736627.4732879	80	736630.5497533	736630.5502006	40	736633.9811996	736633.9817688	100	del	736635.7345718	736636.2457598	736636.2462113	120.0	4.0	736643.2445688
268.95458984375	0.0	80	550819	16	60	800	1	1	736645.3277473	736645.3282267	80	736648.6300899	736648.6305541	40	736651.8269853	736651.8275012	100	del	736655.8133597	736656.3254112	736656.3258302	120.0	4.0	736658.0370703
272.2568359375	0.0	40	557582	16	60	800	1	1	736645.3277473	736645.3282267	80	736648.6300899	736648.6305541	40	736651.8269853	736651.8275012	100	del	736655.8133597	736656.3254112	736656.3258302	120.0	4.0	736658.0370703
275.45361328125	0.0	100	564129	16	60	800	1	1	736645.3277473	736645.3282267	80	736648.6300899	736648.6305541	40	736651.8269853	736651.8275012	100	del	736655.8133597	736656.3254112	736656.3258302	120.0	4.0	736658.0370703
279.9521484375	0.0	120	573342	16	60	800	1	1	736645.3277473	736645.3282267	80	736648.6300899	736648.6305541	40	736651.8269853	736651.8275012	100	del	736655.8133597	736656.3254112	736656.3258302	120.0	4.0	736658.0370703
284.08154296875	0.0	80	581799	17	53	800	1	1	736660.4547111	736660.455166	80	736663.7146006	736663.7150941	40	736666.9724849	736666.9729913	100	imm	736670.8448286	736671.3567264	736671.3572868	120.0	1.0	736679.7415403
287.34130859375	0.0	40	588475	17	53	800	1	1	736660.4547111	736660.455166	80	736663.7146006	736663.7150941	40	736666.9724849	736666.9729913	100	imm	736670.8448286	736671.3567264	736671.3572868	120.0	1.0	736679.7415403
290.59912109375	0.0	100	595147	17	53	800	1	1	736660.4547111	736660.455166	80	736663.7146006	736663.7150941	40	736666.9724849	736666.9729913	100	imm	736670.8448286	736671.3567264	736671.3572868	120.0	1.0	736679.7415403
294.9833984375	0.0	120	604126	17	53	800	1	1	736660.4547111	736660.455166	80	736663.7146006	736663.7150941	40	736666.9724849	736666.9729913	100	imm	736670.8448286	736671.3567264	736671.3572868	120.0	1.0	736679.7415403
305.8203125	0.0	80	626320	18	77	1240	0	0	736682.1942834	736682.1946662	80	736685.3787873	736685.3792735	40	736688.6169769	736688.6174531	100	del	736698.7650186	nan	nan	nan	nan	nan
309.0048828125	0.0	40	632842	18	77	1240	0	0	736682.1942834	736682.1946662	80	736685.3787873	736685.3792735	40	736688.6169769	736688.6174531	100	del	736698.7650186	nan	nan	nan	nan	nan
312.2431640625	0.0	100	639474	18	77	1240	0	0	736682.1942834	736682.1946662	80	736685.3787873	736685.3792735	40	736688.6169769	736688.6174531	100	del	736698.7650186	nan	nan	nan	nan	nan
325.390625	0.0	80	666400	19	63	200	1	1	736701.7650957	736701.7655573	80	736704.7938923	736704.7943892	40	736708.2939619	736708.2944048	100	del	736711.7181776	736712.2302772	736712.2307079	120.0	4.0	736713.5980493
328.41943359375	0.0	40	672603	19	63	200	1	1	736701.7650957	736701.7655573	80	736704.7938923	736704.7943892	40	736708.2939619	736708.2944048	100	del	736711.7181776	736712.2302772	736712.2307079	120.0	4.0	736713.5980493
331.91943359375	0.0	100	679771	19	63	200	1	1	736701.7650957	736701.7655573	80	736704.7938923	736704.7943892	40	736708.2939619	736708.2944048	100	del	736711.7181776	736712.2302772	736712.2307079	120.0	4.0	736713.5980493
335.85546875	0.0	120	687832	19	63	200	1	1	736701.7650957	736701.7655573	80	736704.7938923	736704.7943892	40	736708.2939619	736708.2944048	100	del	736711.7181776	736712.2302772	736712.2307079	120.0	4.0	736713.5980493
339.33447265625	0.0	80	694957	20	50	800	1	0	736715.7089429	736715.7095594	80	736719.0502649	736719.0507231	40	736722.3571546	736722.3576551	100	imm	736727.2926092	736727.805206	736727.805638	120.0	4.0	736729.8291218
342.67529296875	0.0	40	701799	20	50	800	1	0	736715.7089429	736715.7095594	80	736719.0502649	736719.0507231	40	736722.3571546	736722.3576551	100	imm	736727.2926092	736727.805206	736727.805638	120.0	4.0	736729.8291218
345.982421875	0.0	100	708572	20	50	800	1	0	736715.7089429	736715.7095594	80	736719.0502649	736719.0507231	40	736722.3571546	736722.3576551	100	imm	736727.2926092	736727.805206	736727.805638	120.0	4.0	736729.8291218
351.43017578125	0.0	120	719729	20	50	800	1	0	736715.7089429	736715.7095594	80	736719.0502649	736719.0507231	40	736722.3571546	736722.3576551	100	imm	736727.2926092	736727.805206	736727.805638	120.0	4.0	736729.8291218
366.97802734375	0.0	80	751571	21	63	520	0	1	736743.3536238	736743.353983	80	736746.5414909	736746.5420015	40	736749.8648192	736749.8653915	100	del	736756.933218	nan	nan	nan	nan	nan
370.166015625	0.0	40	758100	21	63	520	0	1	736743.3536238	736743.353983	80	736746.5414909	736746.5420015	40	736749.8648192	736749.8653915	100	del	736756.933218	nan	nan	nan	nan	nan
373.4892578125	0.0	100	764906	21	63	520	0	1	736743.3536238	736743.353983	80	736746.5414909	736746.5420015	40	736749.8648192	736749.8653915	100	del	736756.933218	nan	nan	nan	nan	nan
383.47998046875	0.0	80	785367	22	93	800	1	0	736759.8558508	736759.8563249	80	736762.8731249	736762.873624	40	736765.9283992	736765.9288954	100	del	736767.0532266	736767.5654795	736767.5659177	120.0	4.0	736768.8923045
386.4970703125	0.0	40	791546	22	93	800	1	0	736759.8558508	736759.8563249	80	736762.8731249	736762.873624	40	736765.9283992	736765.9288954	100	del	736767.0532266	736767.5654795	736767.5659177	120.0	4.0	736768.8923045
389.55224609375	0.0	100	797803	22	93	800	1	0	736759.8558508	736759.8563249	80	736762.8731249	736762.873624	40	736765.9283992	736765.9288954	100	del	736767.0532266	736767.5654795	736767.5659177	120.0	4.0	736768.8923045
391.189453125	0.0	120	801156	22	93	800	1	0	736759.8558508	736759.8563249	80	736762.8731249	736762.873624	40	736765.9283992	736765.9288954	100	del	736767.0532266	736767.5654795	736767.5659177	120.0	4.0	736768.8923045
395.01953125	0.0	80	809000	23	57	200	1	0	736771.3957936	736771.3961981	80	736774.7295695	736774.7300158	40	736777.8556577	736777.8559448	100	del	736778.7246123	736779.2356314	736779.2360218	120.0	4.0	736781.013904
398.353515625	0.0	40	815828	23	57	200	1	0	736771.3957936	736771.3961981	80	736774.7295695	736774.7300158	40	736777.8556577	736777.8559448	100	del	736778.7246123	736779.2356314	736779.2360218	120.0	4.0	736781.013904
401.4794921875	0.0	100	822230	23	57	200	1	0	736771.3957936	736771.3961981	80	736774.7295695	736774.7300158	40	736777.8556577	736777.8559448	100	del	736778.7246123	736779.2356314	736779.2360218	120.0	4.0	736781.013904
402.859375	0.0	120	825056	23	57	200	1	0	736771.3957936	736771.3961981	80	736774.7295695	736774.7300158	40	736777.8556577	736777.8559448	100	del	736778.7246123	736779.2356314	736779.2360218	120.0	4.0	736781.013904
406.8525390625	0.0	80	833234	24	73	20	0	0	736783.229119	736783.2295638	80	736786.2982494	736786.2987238	40	736789.4457649	736789.4462814	100	del	736790.8298174	nan	nan	nan	nan	nan
409.921875	0.0	40	839520	24	73	20	0	0	736783.229119	736783.2295638	80	736786.2982494	736786.2987238	40	736789.4457649	736789.4462814	100	del	736790.8298174	nan	nan	nan	nan	nan
413.0693359375	0.0	100	845966	24	73	20	0	0	736783.229119	736783.2295638	80	736786.2982494	736786.2987238	40	736789.4457649	736789.4462814	100	del	736790.8298174	nan	nan	nan	nan	nan
417.09765625	0.0	80	854216	25	90	3	1	0	736793.4742198	736793.4746417	80	736796.6468003	736796.6472745	40	736799.7331764	736799.7335776	100	del	736801.5572491	736802.0678677	736802.0682525	120.0	4.0	736803.3566995
420.27001953125	0.0	40	860713	25	90	3	1	0	736793.4742198	736793.4746417	80	736796.6468003	736796.6472745	40	736799.7331764	736799.7335776	100	del	736801.5572491	736802.0678677	736802.0682525	120.0	4.0	736803.3566995
423.3564453125	0.0	100	867034	25	90	3	1	0	736793.4742198	736793.4746417	80	736796.6468003	736796.6472745	40	736799.7331764	736799.7335776	100	del	736801.5572491	736802.0678677	736802.0682525	120.0	4.0	736803.3566995
425.69091796875	0.0	120	871815	25	90	3	1	0	736793.4742198	736793.4746417	80	736796.6468003	736796.6472745	40	736799.7331764	736799.7335776	100	del	736801.5572491	736802.0678677	736802.0682525	120.0	4.0	736803.3566995
429.16552734375	0.0	80	878931	26	97	330	1	0	736805.5426486	736805.542967	80	736808.6121302	736808.6125834	40	736812.0681208	736812.0685671	100	del	736813.2922983	736813.805747	736813.8062735	120.0	4.0	736815.6126634
432.23486328125	0.0	40	885217	26	97	330	1	0	736805.5426486	736805.542967	80	736808.6121302	736808.6125834	40	736812.0681208	736812.0685671	100	del	736813.2922983	736813.805747	736813.8062735	120.0	4.0	736815.6126634
435.69091796875	0.0	100	892295	26	97	330	1	0	736805.5426486	736805.542967	80	736808.6121302	736808.6125834	40	736812.0681208	736812.0685671	100	del	736813.2922983	736813.805747	736813.8062735	120.0	4.0	736815.6126634
437.4287109375	0.0	120	895854	26	97	330	1	0	736805.5426486	736805.542967	80	736808.6121302	736808.6125834	40	736812.0681208	736812.0685671	100	del	736813.2922983	736813.805747	736813.8062735	120.0	4.0	736815.6126634
441.2958984375	0.0	80	903774	27	67	1240	0	0	736817.6733425	736817.6737249	80	736821.1476543	736821.1482533	40	736824.3607571	736824.361235	100	imm	736826.5324703	nan	nan	nan	nan	nan
444.7705078125	0.0	40	910890	27	67	1240	0	0	736817.6733425	736817.6737249	80	736821.1476543	736821.1482533	40	736824.3607571	736824.361235	100	imm	736826.5324703	nan	nan	nan	nan	nan
447.9833984375	0.0	100	917470	27	67	1240	0	0	736817.6733425	736817.6737249	80	736821.1476543	736821.1482533	40	736824.3607571	736824.361235	100	imm	736826.5324703	nan	nan	nan	nan	nan
452.6953125	0.0	80	927120	28	50	50	1	1	736829.0729807	736829.0735573	80	736832.2522907	736832.2527469	40	736835.6338662	736835.6343538	100	del	736837.4682886	736837.9801772	736837.9805887	120.0	4.0	736840.2763341
455.87451171875	0.0	40	933631	28	50	50	1	1	736829.0729807	736829.0735573	80	736832.2522907	736832.2527469	40	736835.6338662	736835.6343538	100	del	736837.4682886	736837.9801772	736837.9805887	120.0	4.0	736840.2763341
459.25634765625	0.0	100	940557	28	50	50	1	1	736829.0729807	736829.0735573	80	736832.2522907	736832.2527469	40	736835.6338662	736835.6343538	100	del	736837.4682886	736837.9801772	736837.9805887	120.0	4.0	736840.2763341
461.6025390625	0.0	120	945362	28	50	50	1	1	736829.0729807	736829.0735573	80	736832.2522907	736832.2527469	40	736835.6338662	736835.6343538	100	del	736837.4682886	736837.9801772	736837.9805887	120.0	4.0	736840.2763341
466.310546875	0.0	80	955004	29	60	200	1	1	736842.6883871	736842.6889211	80	736845.9686472	736845.9690278	40	736849.3252625	736849.3257994	100	del	736854.5964576	736855.1080997	736855.108513	120.0	4.0	736857.1407477
469.5908203125	0.0	40	961722	29	60	200	1	1	736842.6883871	736842.6889211	80	736845.9686472	736845.9690278	40	736849.3252625	736849.3257994	100	del	736854.5964576	736855.1080997	736855.108513	120.0	4.0	736857.1407477
472.947265625	0.0	100	968596	29	60	200	1	1	736842.6883871	736842.6889211	80	736845.9686472	736845.9690278	40	736849.3252625	736849.3257994	100	del	736854.5964576	736855.1080997	736855.108513	120.0	4.0	736857.1407477
478.72998046875	0.0	120	980439	29	60	200	1	1	736842.6883871	736842.6889211	80	736845.9686472	736845.9690278	40	736849.3252625	736849.3257994	100	del	736854.5964576	736855.1080997	736855.108513	120.0	4.0	736857.1407477
483.22314453125	0.0	80	989641	30	50	1240	0	0	736859.6016852	736859.6020911	80	736862.6373307	736862.637816	40	736865.8017324	736865.8022362	100	imm	736868.6701425	nan	nan	nan	nan	nan
486.2587890625	0.0	40	995858	30	50	1240	0	0	736859.6016852	736859.6020911	80	736862.6373307	736862.637816	40	736865.8017324	736865.8022362	100	imm	736868.6701425	nan	nan	nan	nan	nan
489.42333984375	0.0	100	1002339	30	50	1240	0	0	736859.6016852	736859.6020911	80	736862.6373307	736862.637816	40	736865.8017324	736865.8022362	100	imm	736868.6701425	nan	nan	nan	nan	nan
494.83251953125	0.0	80	1013417	31	80	3	1	1	736871.2112887	736871.211847	80	736874.3167548	736874.3172004	40	736877.6912816	736877.6917679	100	del	736879.67798	736880.1914924	736880.1919734	120.0	4.0	736880.9085845
497.93798828125	0.0	40	1019777	31	80	3	1	1	736871.2112887	736871.211847	80	736874.3167548	736874.3172004	40	736877.6912816	736877.6917679	100	del	736879.67798	736880.1914924	736880.1919734	120.0	4.0	736880.9085845
501.3125	0.0	100	1026688	31	80	3	1	1	736871.2112887	736871.211847	80	736874.3167548	736874.3172004	40	736877.6912816	736877.6917679	100	del	736879.67798	736880.1914924	736880.1919734	120.0	4.0	736880.9085845
503.8125	0.0	120	1031808	31	80	3	1	1	736871.2112887	736871.211847	80	736874.3167548	736874.3172004	40	736877.6912816	736877.6917679	100	del	736879.67798	736880.1914924	736880.1919734	120.0	4.0	736880.9085845
506.9072265625	0.0	80	1038146	32	57	800	1	1	736883.2862576	736883.2867396	80	736886.7328307	736886.7333127	40	736890.0382661	736890.0387169	100	del	736895.5560328	736896.06877	736896.0691894	120.0	4.0	736897.2854574
510.35400390625	0.0	40	1045205	32	57	800	1	1	736883.2862576	736883.2867396	80	736886.7328307	736886.7333127	40	736890.0382661	736890.0387169	100	del	736895.5560328	736896.06877	736896.0691894	120.0	4.0	736897.2854574
513.6591796875	0.0	100	1051974	32	57	800	1	1	736883.2862576	736883.2867396	80	736886.7328307	736886.7333127	40	736890.0382661	736890.0387169	100	del	736895.5560328	736896.06877	736896.0691894	120.0	4.0	736897.2854574
519.689453125	0.0	120	1064324	32	57	800	1	1	736883.2862576	736883.2867396	80	736886.7328307	736886.7333127	40	736890.0382661	736890.0387169	100	del	736895.5560328	736896.06877	736896.0691894	120.0	4.0	736897.2854574
522.9580078125	0.0	80	1071018	33	70	1240	0	0	736899.3369503	736899.3375127	80	736902.8060052	736902.8064982	40	736906.2212331	736906.2217243	100	del	736908.0605804	nan	nan	nan	nan	nan
526.4267578125	0.0	40	1078122	33	70	1240	0	0	736899.3369503	736899.3375127	80	736902.8060052	736902.8064982	40	736906.2212331	736906.2217243	100	del	736908.0605804	nan	nan	nan	nan	nan
529.841796875	0.0	100	1085116	33	70	1240	0	0	736899.3369503	736899.3375127	80	736902.8060052	736902.8064982	40	736906.2212331	736906.2217243	100	del	736908.0605804	nan	nan	nan	nan	nan
534.34130859375	0.0	80	1094331	34	63	330	1	0	736910.7209424	736910.7214253	80	736914.000831	736914.0012792	40	736917.5054224	736917.5058722	100	del	736921.5087598	736922.020655	736922.0210438	120.0	4.0	736923.0925296
537.62109375	0.0	40	1101048	34	63	330	1	0	736910.7209424	736910.7214253	80	736914.000831	736914.0012792	40	736917.5054224	736917.5058722	100	del	736921.5087598	736922.020655	736922.0210438	120.0	4.0	736923.0925296
541.12548828125	0.0	100	1108225	34	63	330	1	0	736910.7209424	736910.7214253	80	736914.000831	736914.0012792	40	736917.5054224	736917.5058722	100	del	736921.5087598	736922.020655	736922.0210438	120.0	4.0	736923.0925296
545.640625	0.0	120	1117472	34	63	330	1	0	736910.7209424	736910.7214253	80	736914.000831	736914.0012792	40	736917.5054224	736917.5058722	100	del	736921.5087598	736922.020655	736922.0210438	120.0	4.0	736923.0925296
549.0859375	0.0	80	1124528	35	57	260	0	1	736925.4656585	736925.466087	80	736928.8926076	736928.8930545	40	736932.1224373	736932.1229389	100	del	736937.8205138	nan	nan	nan	nan	nan
552.5126953125	0.0	40	1131546	35	57	260	0	1	736925.4656585	736925.466087	80	736928.8926076	736928.8930545	40	736932.1224373	736932.1229389	100	del	736937.8205138	nan	nan	nan	nan	nan
555.7421875	0.0	100	1138160	35	57	260	0	1	736925.4656585	736925.466087	80	736928.8926076	736928.8930545	40	736932.1224373	736932.1229389	100	del	736937.8205138	nan	nan	nan	nan	nan
564.1923828125	0.0	80	1155466	36	97	3	1	0	736940.5728768	736940.5733852	80	736943.8610339	736943.8616946	40	736947.0093359	736947.0098059	100	del	736949.396663	736949.9068216	736949.9073025	120.0	4.0	736952.0121435
567.48095703125	0.0	40	1162201	36	97	3	1	0	736940.5728768	736940.5733852	80	736943.8610339	736943.8616946	40	736947.0093359	736947.0098059	100	del	736949.396663	736949.9068216	736949.9073025	120.0	4.0	736952.0121435
570.62890625	0.0	100	1168648	36	97	3	1	0	736940.5728768	736940.5733852	80	736943.8610339	736943.8616946	40	736947.0093359	736947.0098059	100	del	736949.396663	736949.9068216	736949.9073025	120.0	4.0	736952.0121435
573.5263671875	0.0	120	1174582	36	97	3	1	0	736940.5728768	736940.5733852	80	736943.8610339	736943.8616946	40	736947.0093359	736947.0098059	100	del	736949.396663	736949.9068216	736949.9073025	120.0	4.0	736952.0121435
578.021484375	0.0	80	1183788	37	67	20	0	0	736954.4020789	736954.4025357	80	736957.6619538	736957.6625596	40	736960.9990286	736960.9995386	100	del	736963.0120705	nan	nan	nan	nan	nan
581.28125	0.0	40	1190464	37	67	20	0	0	736954.4020789	736954.4025357	80	736957.6619538	736957.6625596	40	736960.9990286	736960.9995386	100	del	736963.0120705	nan	nan	nan	nan	nan
584.6181640625	0.0	100	1197298	37	67	20	0	0	736954.4020789	736954.4025357	80	736957.6619538	736957.6625596	40	736960.9990286	736960.9995386	100	del	736963.0120705	nan	nan	nan	nan	nan
589.30078125	0.0	80	1206888	38	87	330	1	1	736965.6816774	736965.6821171	80	736968.7595114	736968.7600378	40	736972.0107244	736972.0112032	100	del	736977.0697202	736977.5819523	736977.5824634	120.0	4.0	736978.4288258
592.37841796875	0.0	40	1213191	38	87	330	1	1	736965.6816774	736965.6821171	80	736968.7595114	736968.7600378	40	736972.0107244	736972.0112032	100	del	736977.0697202	736977.5819523	736977.5824634	120.0	4.0	736978.4288258
595.6298828125	0.0	100	1219850	38	87	330	1	1	736965.6816774	736965.6821171	80	736968.7595114	736968.7600378	40	736972.0107244	736972.0112032	100	del	736977.0697202	736977.5819523	736977.5824634	120.0	4.0	736978.4288258
601.20068359375	0.0	120	1231259	38	87	330	1	1	736965.6816774	736965.6821171	80	736968.7595114	736968.7600378	40	736972.0107244	736972.0112032	100	del	736977.0697202	736977.5819523	736977.5824634	120.0	4.0	736978.4288258
604.244140625	0.0	80	1237492	39	80	100	0	1	736980.6256181	736980.6261077	80	736984.027384	736984.0279517	40	736987.4303337	736987.4307511	100	del	736989.676837	nan	nan	nan	nan	nan
607.64599609375	0.0	40	1244459	39	80	100	0	1	736980.6256181	736980.6261077	80	736984.027384	736984.0279517	40	736987.4303337	736987.4307511	100	del	736989.676837	nan	nan	nan	nan	nan
611.048828125	0.0	100	1251428	39	80	100	0	1	736980.6256181	736980.6261077	80	736984.027384	736984.0279517	40	736987.4303337	736987.4307511	100	del	736989.676837	nan	nan	nan	nan	nan
616.14697265625	0.0	80	1261869	40	93	520	0	1	736992.5284769	736992.5289042	80	736995.6027576	736995.6032537	40	736998.6277773	736998.628259	100	del	737006.7967125	nan	nan	nan	nan	nan
619.22119140625	0.0	40	1268165	40	93	520	0	1	736992.5284769	736992.5289042	80	736995.6027576	736995.6032537	40	736998.6277773	736998.628259	100	del	737006.7967125	nan	nan	nan	nan	nan
622.24609375	0.0	100	1274360	40	93	520	0	1	736992.5284769	736992.5289042	80	736995.6027576	736995.6032537	40	736998.6277773	736998.628259	100	del	737006.7967125	nan	nan	nan	nan	nan
653.3896484375	0.0	80	1338142	41	83	200	1	0	737029.7724131	737029.7728814	80	737032.9304528	737032.9309433	40	737036.4134164	737036.4138508	100	del	737041.8765547	737042.3882546	737042.3886607	120.0	4.0	737043.2124188
656.5478515625	0.0	40	1344610	41	83	200	1	0	737029.7724131	737029.7728814	80	737032.9304528	737032.9309433	40	737036.4134164	737036.4138508	100	del	737041.8765547	737042.3882546	737042.3886607	120.0	4.0	737043.2124188
660.03076171875	0.0	100	1351743	41	83	200	1	0	737029.7724131	737029.7728814	80	737032.9304528	737032.9309433	40	737036.4134164	737036.4138508	100	del	737041.8765547	737042.3882546	737042.3886607	120.0	4.0	737043.2124188
666.00537109375	0.0	120	1363979	41	83	200	1	0	737029.7724131	737029.7728814	80	737032.9304528	737032.9309433	40	737036.4134164	737036.4138508	100	del	737041.8765547	737042.3882546	737042.3886607	120.0	4.0	737043.2124188
669.333984375	0.0	80	1370796	42	77	100	0	1	737045.7169539	737045.7174683	80	737048.8705723	737048.8710868	40	737052.2844976	737052.2849808	100	del	737056.4364816	nan	nan	nan	nan	nan
672.48779296875	0.0	40	1377255	42	77	100	0	1	737045.7169539	737045.7174683	80	737048.8705723	737048.8710868	40	737052.2844976	737052.2849808	100	del	737056.4364816	nan	nan	nan	nan	nan
675.9013671875	0.0	100	1384246	42	77	100	0	1	737045.7169539	737045.7174683	80	737048.8705723	737048.8710868	40	737052.2844976	737052.2849808	100	del	737056.4364816	nan	nan	nan	nan	nan
683.0205078125	0.0	80	1398826	43	93	3	1	1	737059.4036344	737059.4042135	80	737062.7102948	737062.710789	40	737066.1657688	737066.1662554	100	del	737068.836371	737069.3485718	737069.3490033	120.0	4.0	737075.1401973
686.3271484375	0.0	40	1405598	43	93	3	1	1	737059.4036344	737059.4042135	80	737062.7102948	737062.710789	40	737066.1657688	737066.1662554	100	del	737068.836371	737069.3485718	737069.3490033	120.0	4.0	737075.1401973
689.7822265625	0.0	100	1412674	43	93	3	1	1	737059.4036344	737059.4042135	80	737062.7102948	737062.710789	40	737066.1657688	737066.1662554	100	del	737068.836371	737069.3485718	737069.3490033	120.0	4.0	737075.1401973
692.96484375	0.0	120	1419192	43	93	3	1	1	737059.4036344	737059.4042135	80	737062.7102948	737062.710789	40	737066.1657688	737066.1662554	100	del	737068.836371	737069.3485718	737069.3490033	120.0	4.0	737075.1401973
701.2431640625	0.0	80	1436146	44	87	520	0	0	737077.6270256	737077.6275803	80	737080.9099279	737080.9103464	40	737084.2878796	737084.2883788	100	del	737086.5575552	nan	nan	nan	nan	nan
704.52587890625	0.0	40	1442869	44	87	520	0	0	737077.6270256	737077.6275803	80	737080.9099279	737080.9103464	40	737084.2878796	737084.2883788	100	del	737086.5575552	nan	nan	nan	nan	nan
707.90380859375	0.0	100	1449787	44	87	520	0	0	737077.6270256	737077.6275803	80	737080.9099279	737080.9103464	40	737084.2878796	737084.2883788	100	del	737086.5575552	nan	nan	nan	nan	nan
712.97802734375	0.0	80	1460179	45	77	50	1	1	737089.3618599	737089.3622871	80	737092.3825933	737092.3830556	40	737095.6196994	737095.6202144	100	del	737097.3238721	737097.8343957	737097.8346981	120.0	4.0	737101.6684268
715.99853515625	0.0	40	1466365	45	77	50	1	1	737089.3618599	737089.3622871	80	737092.3825933	737092.3830556	40	737095.6196994	737095.6202144	100	del	737097.3238721	737097.8343957	737097.8346981	120.0	4.0	737101.6684268
719.2353515625	0.0	100	1472994	45	77	50	1	1	737089.3618599	737089.3622871	80	737092.3825933	737092.3830556	40	737095.6196994	737095.6202144	100	del	737097.3238721	737097.8343957	737097.8346981	120.0	4.0	737101.6684268
721.4501953125	0.0	120	1477530	45	77	50	1	1	737089.3618599	737089.3622871	80	737092.3825933	737092.3830556	40	737095.6196994	737095.6202144	100	del	737097.3238721	737097.8343957	737097.8346981	120.0	4.0	737101.6684268
727.6220703125	0.0	80	1490170	46	83	260	0	1	737104.0063703	737104.0067831	80	737107.2756396	737107.2761786	40	737110.4752549	737110.4759499	100	del	737114.052032	nan	nan	nan	nan	nan
730.89111328125	0.0	40	1496865	46	83	260	0	1	737104.0063703	737104.0067831	80	737107.2756396	737107.2761786	40	737110.4752549	737110.4759499	100	del	737114.052032	nan	nan	nan	nan	nan
734.0908203125	0.0	100	1503418	46	83	260	0	1	737104.0063703	737104.0067831	80	737107.2756396	737107.2761786	40	737110.4752549	737110.4759499	100	del	737114.052032	nan	nan	nan	nan	nan
740.6552734375	0.0	80	1516862	47	67	330	1	1	737117.040014	737117.0404638	80	737120.4620051	737120.4624624	40	737123.9034105	737123.9038484	100	del	737124.853141	737125.3604797	737125.3606623	120.0	4.0	737128.6524775
744.0771484375	0.0	40	1523870	47	67	330	1	1	737117.040014	737117.0404638	80	737120.4620051	737120.4624624	40	737123.9034105	737123.9038484	100	del	737124.853141	737125.3604797	737125.3606623	120.0	4.0	737128.6524775
747.5185546875	0.0	100	1530918	47	67	330	1	1	737117.040014	737117.0404638	80	737120.4620051	737120.4624624	40	737123.9034105	737123.9038484	100	del	737124.853141	737125.3604797	737125.3606623	120.0	4.0	737128.6524775
748.97607421875	0.0	120	1533903	47	67	330	1	1	737117.040014	737117.0404638	80	737120.4620051	737120.4624624	40	737123.9034105	737123.9038484	100	del	737124.853141	737125.3604797	737125.3606623	120.0	4.0	737128.6524775
754.47021484375	0.0	80	1545155	48	67	800	1	1	737130.8548937	737130.8554669	80	737134.1594784	737134.1599012	40	737137.6096754	737137.6101581	100	del	737143.7559231	737144.2681768	737144.2685632	120.0	4.0	737145.2437846
757.7744140625	0.0	40	1551922	48	67	800	1	1	737130.8548937	737130.8554669	80	737134.1594784	737134.1599012	40	737137.6096754	737137.6101581	100	del	737143.7559231	737144.2681768	737144.2685632	120.0	4.0	737145.2437846
761.224609375	0.0	100	1558988	48	67	800	1	1	737130.8548937	737130.8554669	80	737134.1594784	737134.1599012	40	737137.6096754	737137.6101581	100	del	737143.7559231	737144.2681768	737144.2685632	120.0	4.0	737145.2437846
767.8828125	0.0	120	1572624	48	67	800	1	1	737130.8548937	737130.8554669	80	737134.1594784	737134.1599012	40	737137.6096754	737137.6101581	100	del	737143.7559231	737144.2681768	737144.2685632	120.0	4.0	737145.2437846
771.3408203125	0.0	80	1579706	49	80	200	1	0	737147.7263621	737147.7268995	80	737151.0683433	737151.0687665	40	737154.1849783	737154.1854409	100	del	737156.7574048	737157.2642616	737157.2644216	120.0	4.0	737158.699759
774.6826171875	0.0	40	1586550	49	80	200	1	0	737147.7263621	737147.7268995	80	737151.0683433	737151.0687665	40	737154.1849783	737154.1854409	100	del	737156.7574048	737157.2642616	737157.2644216	120.0	4.0	737158.699759
777.79931640625	0.0	100	1592933	49	80	200	1	0	737147.7263621	737147.7268995	80	737151.0683433	737151.0687665	40	737154.1849783	737154.1854409	100	del	737156.7574048	737157.2642616	737157.2644216	120.0	4.0	737158.699759
780.87890625	0.0	120	1599240	49	80	200	1	0	737147.7263621	737147.7268995	80	737151.0683433	737151.0687665	40	737154.1849783	737154.1854409	100	del	737156.7574048	737157.2642616	737157.2644216	120.0	4.0	737158.699759
784.65625	0.0	80	1606976	50	70	800	1	0	737161.0421923	737161.0426409	80	737164.0862172	737164.0867309	40	737167.3030484	737167.3035566	100	del	737176.0035104	737176.5142492	737176.5146725	120.0	1.0	737180.0209831
787.7001953125	0.0	40	1613210	50	70	800	1	0	737161.0421923	737161.0426409	80	737164.0862172	737164.0867309	40	737167.3030484	737167.3035566	100	del	737176.0035104	737176.5142492	737176.5146725	120.0	1.0	737180.0209831
790.9169921875	0.0	100	1619798	50	70	800	1	0	737161.0421923	737161.0426409	80	737164.0862172	737164.0867309	40	737167.3030484	737167.3035566	100	del	737176.0035104	737176.5142492	737176.5146725	120.0	1.0	737180.0209831
800.1279296875	0.0	120	1638662	50	70	800	1	0	737161.0421923	737161.0426409	80	737164.0862172	737164.0867309	40	737167.3030484	737167.3035566	100	del	737176.0035104	737176.5142492	737176.5146725	120.0	1.0	737180.0209831
805.98291015625	0.0	80	1650653	51	57	330	1	1	737182.3693877	737182.3698873	80	737185.8440249	737185.8445305	40	737189.2625817	737189.2630787	100	imm	737190.6277205	737191.1415495	737191.1420472	120.0	4.0	737194.4517449
809.45751953125	0.0	40	1657769	51	57	330	1	1	737182.3693877	737182.3698873	80	737185.8440249	737185.8445305	40	737189.2625817	737189.2630787	100	imm	737190.6277205	737191.1415495	737191.1420472	120.0	4.0	737194.4517449
812.8759765625	0.0	100	1664770	51	57	330	1	1	737182.3693877	737182.3698873	80	737185.8440249	737185.8445305	40	737189.2625817	737189.2630787	100	imm	737190.6277205	737191.1415495	737191.1420472	120.0	4.0	737194.4517449
814.7548828125	0.0	120	1668618	51	57	330	1	1	737182.3693877	737182.3698873	80	737185.8440249	737185.8445305	40	737189.2625817	737189.2630787	100	imm	737190.6277205	737191.1415495	737191.1420472	120.0	4.0	737194.4517449
820.32275390625	0.0	80	1680021	52	53	100	0	0	737196.7092665	737196.7097357	80	737200.0954702	737200.0959597	40	737203.3180935	737203.3186117	100	imm	737205.0195774	nan	nan	nan	nan	nan
823.70849609375	0.0	40	1686955	52	53	100	0	0	737196.7092665	737196.7097357	80	737200.0954702	737200.0959597	40	737203.3180935	737203.3186117	100	imm	737205.0195774	nan	nan	nan	nan	nan
826.93115234375	0.0	100	1693555	52	53	100	0	0	737196.7092665	737196.7097357	80	737200.0954702	737200.0959597	40	737203.3180935	737203.3186117	100	imm	737205.0195774	nan	nan	nan	nan	nan
831.63623046875	0.0	80	1703191	53	67	260	0	0	737208.023039	737208.02355	80	737211.5248485	737211.5253483	40	737214.9708261	737214.971347	100	del	737223.9718757	nan	nan	nan	nan	nan
835.1376953125	0.0	40	1710362	53	67	260	0	0	737208.023039	737208.02355	80	737211.5248485	737211.5253483	40	737214.9708261	737214.971347	100	del	737223.9718757	nan	nan	nan	nan	nan
838.583984375	0.0	100	1717420	53	67	260	0	0	737208.023039	737208.02355	80	737211.5248485	737211.5253483	40	737214.9708261	737214.971347	100	del	737223.9718757	nan	nan	nan	nan	nan
850.296875	0.0	80	1741408	54	53	330	1	1	737226.6841258	737226.6845347	80	737229.9190261	737229.9195155	40	737233.0554224	737233.0559241	100	del	737238.8290517	737239.3385603	737239.3389258	120.0	4.0	737241.6595899
853.53173828125	0.0	40	1748033	54	53	330	1	1	737226.6841258	737226.6845347	80	737229.9190261	737229.9195155	40	737233.0554224	737233.0559241	100	del	737238.8290517	737239.3385603	737239.3389258	120.0	4.0	737241.6595899
856.66796875	0.0	100	1754456	54	53	330	1	1	737226.6841258	737226.6845347	80	737229.9190261	737229.9195155	40	737233.0554224	737233.0559241	100	del	737238.8290517	737239.3385603	737239.3389258	120.0	4.0	737241.6595899
862.95068359375	0.0	120	1767323	54	53	330	1	1	737226.6841258	737226.6845347	80	737229.9190261	737229.9195155	40	737233.0554224	737233.0559241	100	del	737238.8290517	737239.3385603	737239.3389258	120.0	4.0	737241.6595899
867.68017578125	0.0	80	1777009	55	63	20	0	0	737244.0680203	737244.0685079	80	737247.5169831	737247.5174231	40	737250.9868989	737250.9874354	100	del	737252.5315551	nan	nan	nan	nan	nan
871.12890625	0.0	40	1784072	55	63	20	0	0	737244.0680203	737244.0685079	80	737247.5169831	737247.5174231	40	737250.9868989	737250.9874354	100	del	737252.5315551	nan	nan	nan	nan	nan
874.59912109375	0.0	100	1791179	55	63	20	0	0	737244.0680203	737244.0685079	80	737247.5169831	737247.5174231	40	737250.9868989	737250.9874354	100	del	737252.5315551	nan	nan	nan	nan	nan
878.9404296875	0.0	80	1800070	56	83	3	1	1	737255.3286955	737255.3291603	80	737258.6357315	737258.6361683	40	737261.7232877	737261.7237553	100	del	737263.7722638	737264.2819006	737264.2822818	120.0	4.0	737269.2849977
882.24755859375	0.0	40	1806843	56	83	3	1	1	737255.3286955	737255.3291603	80	737258.6357315	737258.6361683	40	737261.7232877	737261.7237553	100	del	737263.7722638	737264.2819006	737264.2822818	120.0	4.0	737269.2849977
885.3349609375	0.0	100	1813166	56	83	3	1	1	737255.3286955	737255.3291603	80	737258.6357315	737258.6361683	40	737261.7232877	737261.7237553	100	del	737263.7722638	737264.2819006	737264.2822818	120.0	4.0	737269.2849977
887.8935546875	0.0	120	1818406	56	83	3	1	1	737255.3286955	737255.3291603	80	737258.6357315	737258.6361683	40	737261.7232877	737261.7237553	100	del	737263.7722638	737264.2819006	737264.2822818	120.0	4.0	737269.2849977
895.3583984375	0.0	80	1833694	57	97	20	0	1	737271.7465411	737271.7467794	80	737274.9808714	737274.9813499	40	737278.0975236	737278.0980895	100	del	737279.2361091	nan	nan	nan	nan	nan
898.59228515625	0.0	40	1840317	57	97	20	0	1	737271.7465411	737271.7467794	80	737274.9808714	737274.9813499	40	737278.0975236	737278.0980895	100	del	737279.2361091	nan	nan	nan	nan	nan
901.708984375	0.0	100	1846700	57	97	20	0	1	737271.7465411	737271.7467794	80	737274.9808714	737274.9813499	40	737278.0975236	737278.0980895	100	del	737279.2361091	nan	nan	nan	nan	nan
905.81103515625	0.0	80	1855101	58	80	520	0	1	737282.1996794	737282.2000022	80	737285.588722	737285.5891905	40	737289.043081	737289.0435956	100	del	737292.3954388	nan	nan	nan	nan	nan
909.19970703125	0.0	40	1862041	58	80	520	0	1	737282.1996794	737282.2000022	80	737285.588722	737285.5891905	40	737289.043081	737289.0435956	100	del	737292.3954388	nan	nan	nan	nan	nan
912.654296875	0.0	100	1869116	58	80	520	0	1	737282.1996794	737282.2000022	80	737285.588722	737285.5891905	40	737289.043081	737289.0435956	100	del	737292.3954388	nan	nan	nan	nan	nan
918.6669921875	0.0	80	1881430	59	70	50	1	1	737295.0561456	737295.0566353	80	737298.4009018	737298.4013465	40	737301.7462313	737301.7467104	100	del	737305.1398493	737305.6517454	737305.6521829	120.0	4.0	737306.9236346
922.01171875	0.0	40	1888280	59	70	50	1	1	737295.0561456	737295.0566353	80	737298.4009018	737298.4013465	40	737301.7462313	737301.7467104	100	del	737305.1398493	737305.6517454	737305.6521829	120.0	4.0	737306.9236346
925.35693359375	0.0	100	1895131	59	70	50	1	1	737295.0561456	737295.0566353	80	737298.4009018	737298.4013465	40	737301.7462313	737301.7467104	100	del	737305.1398493	737305.6517454	737305.6521829	120.0	4.0	737306.9236346
929.26220703125	0.0	120	1903129	59	70	50	1	1	737295.0561456	737295.0566353	80	737298.4009018	737298.4013465	40	737301.7462313	737301.7467104	100	del	737305.1398493	737305.6517454	737305.6521829	120.0	4.0	737306.9236346
932.609375	0.0	80	1909984	60	57	100	0	1	737308.9988061	737308.9992074	80	737312.2105227	737312.2109871	40	737315.3612502	737315.3616958	100	imm	737317.2757812	nan	nan	nan	nan	nan
935.82080078125	0.0	40	1916561	60	57	100	0	1	737308.9988061	737308.9992074	80	737312.2105227	737312.2109871	40	737315.3612502	737315.3616958	100	imm	737317.2757812	nan	nan	nan	nan	nan
938.9716796875	0.0	100	1923014	60	57	100	0	1	737308.9988061	737308.9992074	80	737312.2105227	737312.2109871	40	737315.3612502	737315.3616958	100	imm	737317.2757812	nan	nan	nan	nan	nan
969.55615234375	0.0	80	1985651	61	73	3	1	0	737345.9464168	737345.9469219	80	737349.0957498	737349.096275	40	737352.5573213	737352.557786	100	del	737354.4839004	737354.9949648	737354.9954987	120.0	4.0	737356.0197153
972.70556640625	0.0	40	1992101	61	73	3	1	0	737345.9464168	737345.9469219	80	737349.0957498	737349.096275	40	737352.5573213	737352.557786	100	del	737354.4839004	737354.9949648	737354.9954987	120.0	4.0	737356.0197153
976.1669921875	0.0	100	1999190	61	73	3	1	0	737345.9464168	737345.9469219	80	737349.0957498	737349.096275	40	737352.5573213	737352.557786	100	del	737354.4839004	737354.9949648	737354.9954987	120.0	4.0	737356.0197153
978.6044921875	0.0	120	2004182	61	73	3	1	0	737345.9464168	737345.9469219	80	737349.0957498	737349.096275	40	737352.5573213	737352.557786	100	del	737354.4839004	737354.9949648	737354.9954987	120.0	4.0	737356.0197153
982.05908203125	0.0	80	2011257	62	93	1240	0	1	737358.4498378	737358.4503185	80	737361.6524643	737361.6529349	40	737364.9157038	737364.9161674	100	del	737366.7799367	nan	nan	nan	nan	nan
985.26171875	0.0	40	2017816	62	93	1240	0	1	737358.4498378	737358.4503185	80	737361.6524643	737361.6529349	40	737364.9157038	737364.9161674	100	del	737366.7799367	nan	nan	nan	nan	nan
988.52490234375	0.0	100	2024499	62	93	1240	0	1	737358.4498378	737358.4503185	80	737361.6524643	737361.6529349	40	737364.9157038	737364.9161674	100	del	737366.7799367	nan	nan	nan	nan	nan
993.2509765625	0.0	80	2034178	63	80	800	1	1	737369.6421468	737369.6425525	80	737373.0673985	737373.0680136	40	737376.387409	737376.3879622	100	del	737378.4838326	737378.9946751	737378.9950824	120.0	4.0	737381.219319
996.67626953125	0.0	40	2041193	63	80	800	1	1	737369.6421468	737369.6425525	80	737373.0673985	737373.0680136	40	737376.387409	737376.3879622	100	del	737378.4838326	737378.9946751	737378.9950824	120.0	4.0	737381.219319
999.99658203125	0.0	100	2047993	63	80	800	1	1	737369.6421468	737369.6425525	80	737373.0673985	737373.0680136	40	737376.387409	737376.3879622	100	del	737378.4838326	737378.9946751	737378.9950824	120.0	4.0	737381.219319
1002.603515625	0.0	120	2053332	63	80	800	1	1	737369.6421468	737369.6425525	80	737373.0673985	737373.0680136	40	737376.387409	737376.3879622	100	del	737378.4838326	737378.9946751	737378.9950824	120.0	4.0	737381.219319
1007.1298828125	0.0	80	2062602	64	70	200	1	1	737383.5213627	737383.5218439	80	737386.69219	737386.6926629	40	737389.9337593	737389.9342562	100	del	737393.4997974	737394.0121675	737394.0125892	120.0	4.0	737395.1969612
1010.30078125	0.0	40	2069096	64	70	200	1	1	737383.5213627	737383.5218439	80	737386.69219	737386.6926629	40	737389.9337593	737389.9342562	100	del	737393.4997974	737394.0121675	737394.0125892	120.0	4.0	737395.1969612
1013.54248046875	0.0	100	2075735	64	70	200	1	1	737383.5213627	737383.5218439	80	737386.69219	737386.6926629	40	737389.9337593	737389.9342562	100	del	737393.4997974	737394.0121675	737394.0125892	120.0	4.0	737395.1969612
1017.62060546875	0.0	120	2084087	64	70	200	1	1	737383.5213627	737383.5218439	80	737386.69219	737386.6926629	40	737389.9337593	737389.9342562	100	del	737393.4997974	737394.0121675	737394.0125892	120.0	4.0	737395.1969612
1021.17724609375	0.0	80	2091371	65	90	200	1	0	737397.5691186	737397.5694074	80	737401.0188408	737401.0193318	40	737404.3927241	737404.3931862	100	del	737405.8676976	737406.3781017	737406.3785776	120.0	4.0	737407.2929673
1024.626953125	0.0	40	2098436	65	90	200	1	0	737397.5691186	737397.5694074	80	737401.0188408	737401.0193318	40	737404.3927241	737404.3931862	100	del	737405.8676976	737406.3781017	737406.3785776	120.0	4.0	737407.2929673
1028.0009765625	0.0	100	2105346	65	90	200	1	0	737397.5691186	737397.5694074	80	737401.0188408	737401.0193318	40	737404.3927241	737404.3931862	100	del	737405.8676976	737406.3781017	737406.3785776	120.0	4.0	737407.2929673
1029.986328125	0.0	120	2109412	65	90	200	1	0	737397.5691186	737397.5694074	80	737401.0188408	737401.0193318	40	737404.3927241	737404.3931862	100	del	737405.8676976	737406.3781017	737406.3785776	120.0	4.0	737407.2929673
1032.92626953125	0.0	80	2115433	66	60	520	0	0	737409.3180149	737409.318512	80	737412.6629489	737412.6634273	40	737415.8954016	737415.8959007	100	imm	737417.6273461	nan	nan	nan	nan	nan
1036.27099609375	0.0	40	2122283	66	60	520	0	0	737409.3180149	737409.318512	80	737412.6629489	737412.6634273	40	737415.8954016	737415.8959007	100	imm	737417.6273461	nan	nan	nan	nan	nan
1039.50341796875	0.0	100	2128903	66	60	520	0	0	737409.3180149	737409.318512	80	737412.6629489	737412.6634273	40	737415.8954016	737415.8959007	100	imm	737417.6273461	nan	nan	nan	nan	nan
1043.97216796875	0.0	80	2138055	67	77	20	0	0	737420.364412	737420.3648556	80	737423.4306175	737423.4310355	40	737426.8510431	737426.8515592	100	del	737428.2991447	nan	nan	nan	nan	nan
1047.03857421875	0.0	40	2144335	67	77	20	0	0	737420.364412	737420.3648556	80	737423.4306175	737423.4310355	40	737426.8510431	737426.8515592	100	del	737428.2991447	nan	nan	nan	nan	nan
1050.45849609375	0.0	100	2151339	67	77	20	0	0	737420.364412	737420.3648556	80	737423.4306175	737423.4310355	40	737426.8510431	737426.8515592	100	del	737428.2991447	nan	nan	nan	nan	nan
1054.58740234375	0.0	80	2159795	68	83	1240	0	1	737430.9797289	737430.9802044	80	737434.1103316	737434.1108291	40	737437.2952016	737437.2957066	100	imm	737438.3551553	nan	nan	nan	nan	nan
1057.7177734375	0.0	40	2166206	68	83	1240	0	1	737430.9797289	737430.9802044	80	737434.1103316	737434.1108291	40	737437.2952016	737437.2957066	100	imm	737438.3551553	nan	nan	nan	nan	nan
1060.90283203125	0.0	100	2172729	68	83	1240	0	1	737430.9797289	737430.9802044	80	737434.1103316	737434.1108291	40	737437.2952016	737437.2957066	100	imm	737438.3551553	nan	nan	nan	nan	nan
1064.66943359375	0.0	80	2180443	69	57	20	0	1	737441.0623549	737441.0627565	80	737444.3431652	737444.3436527	40	737447.6385704	737447.6390899	100	del	737449.8119044	nan	nan	nan	nan	nan
1067.9501953125	0.0	40	2187162	69	57	20	0	1	737441.0623549	737441.0627565	80	737444.3431652	737444.3436527	40	737447.6385704	737447.6390899	100	del	737449.8119044	nan	nan	nan	nan	nan
1071.24560546875	0.0	100	2193911	69	57	20	0	1	737441.0623549	737441.0627565	80	737444.3431652	737444.3436527	40	737447.6385704	737447.6390899	100	del	737449.8119044	nan	nan	nan	nan	nan
1076.1328125	0.0	80	2203920	70	80	50	1	1	737452.5258823	737452.5263657	80	737455.7326004	737455.7331145	40	737459.0018889	737459.0023417	100	del	737460.2838244	737460.7944438	737460.7948138	120.0	4.0	737462.3636935
1079.33935546875	0.0	40	2210487	70	80	50	1	1	737452.5258823	737452.5263657	80	737455.7326004	737455.7331145	40	737459.0018889	737459.0023417	100	del	737460.2838244	737460.7944438	737460.7948138	120.0	4.0	737462.3636935
1082.60888671875	0.0	100	2217183	70	80	50	1	1	737452.5258823	737452.5263657	80	737455.7326004	737455.7331145	40	737459.0018889	737459.0023417	100	del	737460.2838244	737460.7944438	737460.7948138	120.0	4.0	737462.3636935
1084.4013671875	0.0	120	2220854	70	80	50	1	1	737452.5258823	737452.5263657	80	737455.7326004	737455.7331145	40	737459.0018889	737459.0023417	100	del	737460.2838244	737460.7944438	737460.7948138	120.0	4.0	737462.3636935
1088.31396484375	0.0	80	2228867	71	60	330	1	0	737464.707352	737464.7077936	80	737468.1898406	737468.1902087	40	737471.5640254	737471.5645462	100	del	737473.6764686	737474.1893198	737474.1897688	120.0	1.0	737476.5397941
1091.79638671875	0.0	40	2235999	71	60	330	1	0	737464.707352	737464.7077936	80	737468.1898406	737468.1902087	40	737471.5640254	737471.5645462	100	del	737473.6764686	737474.1893198	737474.1897688	120.0	1.0	737476.5397941
1095.17041015625	0.0	100	2242909	71	60	330	1	0	737464.707352	737464.7077936	80	737468.1898406	737468.1902087	40	737471.5640254	737471.5645462	100	del	737473.6764686	737474.1893198	737474.1897688	120.0	1.0	737476.5397941
1097.7958984375	0.0	120	2248286	71	60	330	1	0	737464.707352	737464.7077936	80	737468.1898406	737468.1902087	40	737471.5640254	737471.5645462	100	del	737473.6764686	737474.1893198	737474.1897688	120.0	1.0	737476.5397941
1102.36083984375	0.0	80	2257635	72	90	520	0	0	737478.7543933	737478.7547944	80	737482.1786628	737482.1790994	40	737485.2590272	737485.2594757	100	del	737490.2353962	nan	nan	nan	nan	nan
1105.78515625	0.0	40	2264648	72	90	520	0	0	737478.7543933	737478.7547944	80	737482.1786628	737482.1790994	40	737485.2590272	737485.2594757	100	del	737490.2353962	nan	nan	nan	nan	nan
1108.865234375	0.0	100	2270956	72	90	520	0	0	737478.7543933	737478.7547944	80	737482.1786628	737482.1790994	40	737485.2590272	737485.2594757	100	del	737490.2353962	nan	nan	nan	nan	nan
1116.38916015625	0.0	80	2286365	73	90	800	1	0	737492.7831298	737492.7836398	80	737495.8336242	737495.8341073	40	737498.9288789	737498.9294691	100	del	737500.6277777	737501.1403693	737501.14074	120.0	4.0	737504.4037876
1119.439453125	0.0	40	2292612	73	90	800	1	0	737492.7831298	737492.7836398	80	737495.8336242	737495.8341073	40	737498.9288789	737498.9294691	100	del	737500.6277777	737501.1403693	737501.14074	120.0	4.0	737504.4037876
1122.53466796875	0.0	100	2298951	73	90	800	1	0	737492.7831298	737492.7836398	80	737495.8336242	737495.8341073	40	737498.9288789	737498.9294691	100	del	737500.6277777	737501.1403693	737501.14074	120.0	4.0	737504.4037876
1124.74609375	0.0	120	2303480	73	90	800	1	0	737492.7831298	737492.7836398	80	737495.8336242	737495.8341073	40	737498.9288789	737498.9294691	100	del	737500.6277777	737501.1403693	737501.14074	120.0	4.0	737504.4037876
1130.18603515625	0.0	80	2314621	74	53	1240	0	0	737506.5804328	737506.580939	80	737509.7390583	737509.7395555	40	737512.7583231	737512.7588854	100	del	737514.339801	nan	nan	nan	nan	nan
1133.3447265625	0.0	40	2321090	74	53	1240	0	0	737506.5804328	737506.580939	80	737509.7390583	737509.7395555	40	737512.7583231	737512.7588854	100	del	737514.339801	nan	nan	nan	nan	nan
1136.36376953125	0.0	100	2327273	74	53	1240	0	0	737506.5804328	737506.580939	80	737509.7390583	737509.7395555	40	737512.7583231	737512.7588854	100	del	737514.339801	nan	nan	nan	nan	nan
1140.73193359375	0.0	80	2336219	75	83	800	1	0	737517.1263521	737517.1267702	80	737520.1815273	737520.1819096	40	737523.2680014	737523.2684551	100	imm	737526.2435944	737526.7543215	737526.754807	120.0	1.0	737532.8036769
1143.78662109375	0.0	40	2342475	75	83	800	1	0	737517.1263521	737517.1267702	80	737520.1815273	737520.1819096	40	737523.2680014	737523.2684551	100	imm	737526.2435944	737526.7543215	737526.754807	120.0	1.0	737532.8036769
1146.873046875	0.0	100	2348796	75	83	800	1	0	737517.1263521	737517.1267702	80	737520.1815273	737520.1819096	40	737523.2680014	737523.2684551	100	imm	737526.2435944	737526.7543215	737526.754807	120.0	1.0	737532.8036769
1150.359375	0.0	120	2355936	75	83	800	1	0	737517.1263521	737517.1267702	80	737520.1815273	737520.1819096	40	737523.2680014	737523.2684551	100	imm	737526.2435944	737526.7543215	737526.754807	120.0	1.0	737532.8036769
1158.73974609375	0.0	80	2373099	76	53	3	1	1	737535.1349913	737535.1354736	80	737538.5723749	737538.5728709	40	737542.0733717	737542.0738836	100	del	737543.8992646	737544.412265	737544.4127382	120.0	4.0	737545.5068318
1162.17724609375	0.0	40	2380139	76	53	3	1	1	737535.1349913	737535.1354736	80	737538.5723749	737538.5728709	40	737542.0733717	737542.0738836	100	del	737543.8992646	737544.412265	737544.4127382	120.0	4.0	737545.5068318
1165.67822265625	0.0	100	2387309	76	53	3	1	1	737535.1349913	737535.1354736	80	737538.5723749	737538.5728709	40	737542.0733717	737542.0738836	100	del	737543.8992646	737544.412265	737544.4127382	120.0	4.0	737545.5068318
1168.01708984375	0.0	120	2392099	76	53	3	1	1	737535.1349913	737535.1354736	80	737538.5723749	737538.5728709	40	737542.0733717	737542.0738836	100	del	737543.8992646	737544.412265	737544.4127382	120.0	4.0	737545.5068318
1171.4130859375	0.0	80	2399054	77	73	800	1	1	737547.8082585	737547.8087048	80	737551.3141891	737551.314677	40	737554.6030862	737554.6035512	100	del	737562.5548414	737563.0650562	737563.065404	120.0	1.0	737564.4195265
1174.9189453125	0.0	40	2406234	77	73	800	1	1	737547.8082585	737547.8087048	80	737551.3141891	737551.314677	40	737554.6030862	737554.6035512	100	del	737562.5548414	737563.0650562	737563.065404	120.0	1.0	737564.4195265
1178.20751953125	0.0	100	2412969	77	73	800	1	1	737547.8082585	737547.8087048	80	737551.3141891	737551.314677	40	737554.6030862	737554.6035512	100	del	737562.5548414	737563.0650562	737563.065404	120.0	1.0	737564.4195265
1186.66943359375	0.0	120	2430299	77	73	800	1	1	737547.8082585	737547.8087048	80	737551.3141891	737551.314677	40	737554.6030862	737554.6035512	100	del	737562.5548414	737563.0650562	737563.065404	120.0	1.0	737564.4195265
1190.29736328125	0.0	80	2437729	78	100	200	1	0	737566.6933248	737566.6937132	80	737569.8661079	737569.8665204	40	737573.0947091	737573.0952211	100	del	737574.6274393	737575.1370454	737575.137382	120.0	4.0	737576.1227575
1193.47021484375	0.0	40	2444227	78	100	200	1	0	737566.6933248	737566.6937132	80	737569.8661079	737569.8665204	40	737573.0947091	737573.0952211	100	del	737574.6274393	737575.1370454	737575.137382	120.0	4.0	737576.1227575
1196.69873046875	0.0	100	2450839	78	100	200	1	0	737566.6933248	737566.6937132	80	737569.8661079	737569.8665204	40	737573.0947091	737573.0952211	100	del	737574.6274393	737575.1370454	737575.137382	120.0	4.0	737576.1227575
1198.7412109375	0.0	120	2455022	78	100	200	1	0	737566.6933248	737566.6937132	80	737569.8661079	737569.8665204	40	737573.0947091	737573.0952211	100	del	737574.6274393	737575.1370454	737575.137382	120.0	4.0	737576.1227575
1201.98828125	0.0	80	2461672	79	87	260	0	0	737578.3844443	737578.3849395	80	737581.4280676	737581.428523	40	737584.8851021	737584.885586	100	del	737589.5629532	nan	nan	nan	nan	nan
1205.03173828125	0.0	40	2467905	79	87	260	0	0	737578.3844443	737578.3849395	80	737581.4280676	737581.428523	40	737584.8851021	737584.885586	100	del	737589.5629532	nan	nan	nan	nan	nan
1208.48876953125	0.0	100	2474985	79	87	260	0	0	737578.3844443	737578.3849395	80	737581.4280676	737581.428523	40	737584.8851021	737584.885586	100	del	737589.5629532	nan	nan	nan	nan	nan
1215.716796875	0.0	80	2489788	80	73	100	0	1	737592.1132333	737592.1137584	80	737595.3393393	737595.3398606	40	737598.7659979	737598.7665365	100	del	737601.3965221	nan	nan	nan	nan	nan
1218.94287109375	0.0	40	2496395	80	73	100	0	1	737592.1132333	737592.1137584	80	737595.3393393	737595.3398606	40	737598.7659979	737598.7665365	100	del	737601.3965221	nan	nan	nan	nan	nan
1222.36962890625	0.0	100	2503413	80	73	100	0	1	737592.1132333	737592.1137584	80	737595.3393393	737595.3398606	40	737598.7659979	737598.7665365	100	del	737601.3965221	nan	nan	nan	nan	nan
1254.5869140625	0.0	80	2569394	81	50	200	1	0	737630.9842321	737630.9845225	80	737634.2986469	737634.2991419	40	737637.719821	737637.7202387	100	imm	737639.7550416	737640.2672771	737640.267754	120.0	4.0	737641.8668158
1257.9013671875	0.0	40	2576182	81	50	200	1	0	737630.9842321	737630.9845225	80	737634.2986469	737634.2991419	40	737637.719821	737637.7202387	100	imm	737639.7550416	737640.2672771	737640.267754	120.0	4.0	737641.8668158
1261.322265625	0.0	100	2583188	81	50	200	1	0	737630.9842321	737630.9845225	80	737634.2986469	737634.2991419	40	737637.719821	737637.7202387	100	imm	737639.7550416	737640.2672771	737640.267754	120.0	4.0	737641.8668158
1263.86962890625	0.0	120	2588405	81	50	200	1	0	737630.9842321	737630.9845225	80	737634.2986469	737634.2991419	40	737637.719821	737637.7202387	100	imm	737639.7550416	737640.2672771	737640.267754	120.0	4.0	737641.8668158
1267.927734375	0.0	80	2596716	82	87	100	0	1	737644.3253416	737644.325833	80	737647.7989746	737647.7994151	40	737650.9073758	737650.9078121	100	del	737651.5548329	nan	nan	nan	nan	nan
1271.4013671875	0.0	40	2603830	82	87	100	0	1	737644.3253416	737644.325833	80	737647.7989746	737647.7994151	40	737650.9073758	737650.9078121	100	del	737651.5548329	nan	nan	nan	nan	nan
1274.50927734375	0.0	100	2610195	82	87	100	0	1	737644.3253416	737644.325833	80	737647.7989746	737647.7994151	40	737650.9073758	737650.9078121	100	del	737651.5548329	nan	nan	nan	nan	nan
1277.80224609375	0.0	80	2616939	83	97	200	1	1	737654.2001043	737654.2005499	80	737657.6565615	737657.6570722	40	737660.9667755	737660.9672562	100	del	737663.4203312	737663.9308471	737663.9311857	120.0	4.0	737665.7150014
1281.25830078125	0.0	40	2624017	83	97	200	1	1	737654.2001043	737654.2005499	80	737657.6565615	737657.6570722	40	737660.9667755	737660.9672562	100	del	737663.4203312	737663.9308471	737663.9311857	120.0	4.0	737665.7150014
1284.56884765625	0.0	100	2630797	83	97	200	1	1	737654.2001043	737654.2005499	80	737657.6565615	737657.6570722	40	737660.9667755	737660.9672562	100	del	737663.4203312	737663.9308471	737663.9311857	120.0	4.0	737665.7150014
1287.53271484375	0.0	120	2636867	83	97	200	1	1	737654.2001043	737654.2005499	80	737657.6565615	737657.6570722	40	737660.9667755	737660.9672562	100	del	737663.4203312	737663.9308471	737663.9311857	120.0	4.0	737665.7150014
1291.583984375	0.0	80	2645164	84	63	800	1	1	737667.9822932	737667.9828549	80	737671.2965701	737671.2970395	40	737674.719188	737674.7197028	100	del	737678.491338	737679.0011899	737679.0014676	120.0	4.0	737680.6909536
1294.89794921875	0.0	40	2651951	84	63	800	1	1	737667.9822932	737667.9828549	80	737671.2965701	737671.2970395	40	737674.719188	737674.7197028	100	del	737678.491338	737679.0011899	737679.0014676	120.0	4.0	737680.6909536
1298.32080078125	0.0	100	2658961	84	63	800	1	1	737667.9822932	737667.9828549	80	737671.2965701	737671.2970395	40	737674.719188	737674.7197028	100	del	737678.491338	737679.0011899	737679.0014676	120.0	4.0	737680.6909536
1302.6025390625	0.0	120	2667730	84	63	800	1	1	737667.9822932	737667.9828549	80	737671.2965701	737671.2970395	40	737674.719188	737674.7197028	100	del	737678.491338	737679.0011899	737679.0014676	120.0	4.0	737680.6909536
1306.5712890625	0.0	80	2675858	85	87	20	0	1	737682.9701561	737682.9705428	80	737686.0786543	737686.0791286	40	737689.3189244	737689.3194403	100	del	737692.6512322	nan	nan	nan	nan	nan
1309.6796875	0.0	40	2682224	85	87	20	0	1	737682.9701561	737682.9705428	80	737686.0786543	737686.0791286	40	737689.3189244	737689.3194403	100	del	737692.6512322	nan	nan	nan	nan	nan
1312.919921875	0.0	100	2688860	85	87	20	0	1	737682.9701561	737682.9705428	80	737686.0786543	737686.0791286	40	737689.3189244	737689.3194403	100	del	737692.6512322	nan	nan	nan	nan	nan
1318.98486328125	0.0	80	2701281	86	73	50	1	1	737695.3836404	737695.3841045	80	737698.8753858	737698.8759071	40	737702.1987626	737702.1994306	100	del	737702.8439975	737703.3575318	737703.3580429	120.0	4.0	737704.2750745
1322.47607421875	0.0	40	2708431	86	73	50	1	1	737695.3836404	737695.3841045	80	737698.8753858	737698.8759071	40	737702.1987626	737702.1994306	100	del	737702.8439975	737703.3575318	737703.3580429	120.0	4.0	737704.2750745
1325.7998046875	0.0	100	2715238	86	73	50	1	1	737695.3836404	737695.3841045	80	737698.8753858	737698.8759071	40	737702.1987626	737702.1994306	100	del	737702.8439975	737703.3575318	737703.3580429	120.0	4.0	737704.2750745
1326.95849609375	0.0	120	2717611	86	73	50	1	1	737695.3836404	737695.3841045	80	737698.8753858	737698.8759071	40	737702.1987626	737702.1994306	100	del	737702.8439975	737703.3575318	737703.3580429	120.0	4.0	737704.2750745
1330.2373046875	0.0	80	2724326	87	93	260	0	1	737706.6364934	737706.6369718	80	737710.0042739	737710.004762	40	737713.1908469	737713.1913704	100	del	737715.2274278	nan	nan	nan	nan	nan
1333.60498046875	0.0	40	2731223	87	93	260	0	1	737706.6364934	737706.6369718	80	737710.0042739	737710.004762	40	737713.1908469	737713.1913704	100	del	737715.2274278	nan	nan	nan	nan	nan
1336.79150390625	0.0	100	2737749	87	93	260	0	1	737706.6364934	737706.6369718	80	737710.0042739	737710.004762	40	737713.1908469	737713.1913704	100	del	737715.2274278	nan	nan	nan	nan	nan
1341.60302734375	0.0	80	2747603	88	97	260	0	1	737718.0023864	737718.0028563	80	737721.2889373	737721.2894361	40	737724.3808245	737724.3813127	100	del	737725.7712117	nan	nan	nan	nan	nan
1344.88916015625	0.0	40	2754333	88	97	260	0	1	737718.0023864	737718.0028563	80	737721.2889373	737721.2894361	40	737724.3808245	737724.3813127	100	del	737725.7712117	nan	nan	nan	nan	nan
1347.98095703125	0.0	100	2760665	88	97	260	0	1	737718.0023864	737718.0028563	80	737721.2889373	737721.2894361	40	737724.3808245	737724.3813127	100	del	737725.7712117	nan	nan	nan	nan	nan
1352.17041015625	0.0	80	2769245	89	90	260	0	1	737728.5700802	737728.5705173	80	737731.9250247	737731.9254967	40	737735.151148	737735.1516102	100	del	737736.2505699	nan	nan	nan	nan	nan
1355.52490234375	0.0	40	2776115	89	90	260	0	1	737728.5700802	737728.5705173	80	737731.9250247	737731.9254967	40	737735.151148	737735.1516102	100	del	737736.2505699	nan	nan	nan	nan	nan
1358.7509765625	0.0	100	2782722	89	90	260	0	1	737728.5700802	737728.5705173	80	737731.9250247	737731.9254967	40	737735.151148	737735.1516102	100	del	737736.2505699	nan	nan	nan	nan	nan
1362.78662109375	0.0	80	2790987	90	70	20	0	1	737739.1865499	737739.1871004	80	737742.5598443	737742.5603548	40	737745.7530587	737745.7535717	100	del	737746.6429544	nan	nan	nan	nan	nan
1366.15966796875	0.0	40	2797895	90	70	20	0	1	737739.1865499	737739.1871004	80	737742.5598443	737742.5603548	40	737745.7530587	737745.7535717	100	del	737746.6429544	nan	nan	nan	nan	nan
1369.35302734375	0.0	100	2804435	90	70	20	0	1	737739.1865499	737739.1871004	80	737742.5598443	737742.5603548	40	737745.7530587	737745.7535717	100	del	737746.6429544	nan	nan	nan	nan	nan
1372.9873046875	0.0	80	2811878	91	63	260	0	0	737749.3874991	737749.3880176	80	737752.5886483	737752.5891125	40	737755.9863671	737755.9866588	100	imm	737759.6753466	nan	nan	nan	nan	nan
1376.1884765625	0.0	40	2818434	91	63	260	0	0	737749.3874991	737749.3880176	80	737752.5886483	737752.5891125	40	737755.9863671	737755.9866588	100	imm	737759.6753466	nan	nan	nan	nan	nan
1379.5859375	0.0	100	2825392	91	63	260	0	0	737749.3874991	737749.3880176	80	737752.5886483	737752.5891125	40	737755.9863671	737755.9866588	100	imm	737759.6753466	nan	nan	nan	nan	nan
1386.15625	0.0	80	2838848	92	70	100	0	0	737762.5570278	737762.5575103	80	737765.7774065	737765.7776037	40	737769.1377272	737769.139529	100	del	737770.099256	nan	nan	nan	nan	nan
1389.376953125	0.0	40	2845444	92	70	100	0	0	737762.5570278	737762.5575103	80	737765.7774065	737765.7776037	40	737769.1377272	737769.139529	100	del	737770.099256	nan	nan	nan	nan	nan
1392.73681640625	0.0	100	2852325	92	70	100	0	0	737762.5570278	737762.5575103	80	737765.7774065	737765.7776037	40	737769.1377272	737769.139529	100	del	737770.099256	nan	nan	nan	nan	nan
1396.6884765625	0.0	80	2860418	93	100	1240	0	0	737773.0895472	737773.0899822	80	737776.4895249	737776.4899315	40	737779.8541095	737779.8545431	100	del	737785.7463976	nan	nan	nan	nan	nan
1400.08837890625	0.0	40	2867381	93	100	1240	0	0	737773.0895472	737773.0899822	80	737776.4895249	737776.4899315	40	737779.8541095	737779.8545431	100	del	737785.7463976	nan	nan	nan	nan	nan
1403.453125	0.0	100	2874272	93	100	1240	0	0	737773.0895472	737773.0899822	80	737776.4895249	737776.4899315	40	737779.8541095	737779.8545431	100	del	737785.7463976	nan	nan	nan	nan	nan
1411.9169921875	0.0	80	2891606	94	93	330	1	0	737788.3181397	737788.3186485	80	737791.5206358	737791.5211153	40	737794.8311574	737794.8315798	100	del	737796.8509397	737797.3636777	737797.3641653	120.0	4.0	737798.4664301
1415.119140625	0.0	40	2898164	94	93	330	1	0	737788.3181397	737788.3186485	80	737791.5206358	737791.5211153	40	737794.8311574	737794.8315798	100	del	737796.8509397	737797.3636777	737797.3641653	120.0	4.0	737798.4664301
1418.4296875	0.0	100	2904944	94	93	330	1	0	737788.3181397	737788.3186485	80	737791.5206358	737791.5211153	40	737794.8311574	737794.8315798	100	del	737796.8509397	737797.3636777	737797.3641653	120.0	4.0	737798.4664301
1420.9619140625	0.0	120	2910130	94	93	330	1	0	737788.3181397	737788.3186485	80	737791.5206358	737791.5211153	40	737794.8311574	737794.8315798	100	del	737796.8509397	737797.3636777	737797.3641653	120.0	4.0	737798.4664301
1424.31103515625	0.0	80	2916989	95	53	260	0	0	737800.7126348	737800.7130886	80	737803.7457696	737803.7462571	40	737806.8735423	737806.8740543	100	imm	737809.5066008	nan	nan	nan	nan	nan
1427.34423828125	0.0	40	2923201	95	53	260	0	0	737800.7126348	737800.7130886	80	737803.7457696	737803.7462571	40	737806.8735423	737806.8740543	100	imm	737809.5066008	nan	nan	nan	nan	nan
1430.4716796875	0.0	100	2929606	95	53	260	0	0	737800.7126348	737800.7130886	80	737803.7457696	737803.7462571	40	737806.8735423	737806.8740543	100	imm	737809.5066008	nan	nan	nan	nan	nan
1436.0390625	0.0	80	2941008	96	60	50	1	1	737812.4410402	737812.4416277	80	737815.4571425	737815.4575327	40	737818.9022179	737818.902735	100	del	737820.6422081	737821.1531154	737821.1534347	120.0	4.0	737822.0906387
1439.05517578125	0.0	40	2947185	96	60	50	1	1	737812.4410402	737812.4416277	80	737815.4571425	737815.4575327	40	737818.9022179	737818.902735	100	del	737820.6422081	737821.1531154	737821.1534347	120.0	4.0	737822.0906387
1442.5	0.0	100	2954240	96	60	50	1	1	737812.4410402	737812.4416277	80	737815.4571425	737815.4575327	40	737818.9022179	737818.902735	100	del	737820.6422081	737821.1531154	737821.1534347	120.0	4.0	737822.0906387
1444.7509765625	0.0	120	2958850	96	60	50	1	1	737812.4410402	737812.4416277	80	737815.4571425	737815.4575327	40	737818.9022179	737818.902735	100	del	737820.6422081	737821.1531154	737821.1534347	120.0	4.0	737822.0906387
1447.73974609375	0.0	80	2964971	97	77	800	1	0	737824.1422345	737824.1426265	80	737827.4830232	737827.4833415	40	737830.7467506	737830.7471736	100	imm	737837.6520087	737838.1633642	737838.163735	120.0	4.0	737839.8831058
1451.08056640625	0.0	40	2971813	97	77	800	1	0	737824.1422345	737824.1426265	80	737827.4830232	737827.4833415	40	737830.7467506	737830.7471736	100	imm	737837.6520087	737838.1633642	737838.163735	120.0	4.0	737839.8831058
1454.34423828125	0.0	100	2978497	97	77	800	1	0	737824.1422345	737824.1426265	80	737827.4830232	737827.4833415	40	737830.7467506	737830.7471736	100	imm	737837.6520087	737838.1633642	737838.163735	120.0	4.0	737839.8831058
1461.7607421875	0.0	120	2993686	97	77	800	1	0	737824.1422345	737824.1426265	80	737827.4830232	737827.4833415	40	737830.7467506	737830.7471736	100	imm	737837.6520087	737838.1633642	737838.163735	120.0	4.0	737839.8831058
1465.60498046875	0.0	80	3001559	98	63	3	1	1	737842.0076901	737842.0081617	80	737845.3011398	737845.3016624	40	737848.3758922	737848.3763734	100	del	737851.2346375	737851.7467386	737851.7471277	120.0	1.0	737853.2341956
1468.8984375	0.0	40	3008304	98	63	3	1	1	737842.0076901	737842.0081617	80	737845.3011398	737845.3016624	40	737848.3758922	737848.3763734	100	del	737851.2346375	737851.7467386	737851.7471277	120.0	1.0	737853.2341956
1471.97314453125	0.0	100	3014601	98	63	3	1	1	737842.0076901	737842.0081617	80	737845.3011398	737845.3016624	40	737848.3758922	737848.3763734	100	del	737851.2346375	737851.7467386	737851.7471277	120.0	1.0	737853.2341956
1475.34375	0.0	120	3021504	98	63	3	1	1	737842.0076901	737842.0081617	80	737845.3011398	737845.3016624	40	737848.3758922	737848.3763734	100	del	737851.2346375	737851.7467386	737851.7471277	120.0	1.0	737853.2341956
1479.1826171875	0.0	80	3029366	99	53	20	0	1	737855.5854028	737855.5859403	80	737858.8931481	737858.8935635	40	737861.9342012	737861.93474	100	del	737864.4741759	nan	nan	nan	nan	nan
1482.490234375	0.0	40	3036140	99	53	20	0	1	737855.5854028	737855.5859403	80	737858.8931481	737858.8935635	40	737861.9342012	737861.93474	100	del	737864.4741759	nan	nan	nan	nan	nan
1485.53125	0.0	100	3042368	99	53	20	0	1	737855.5854028	737855.5859403	80	737858.8931481	737858.8935635	40	737861.9342012	737861.93474	100	del	737864.4741759	nan	nan	nan	nan	nan
1490.61669921875	0.0	80	3052783	100	100	20	0	0	737867.0196648	737867.020242	80	737870.1043818	737870.1048145	40	737873.127829	737873.1283563	100	del	737875.6748495	nan	nan	nan	nan	nan
1493.701171875	0.0	40	3059100	100	100	20	0	0	737867.0196648	737867.020242	80	737870.1043818	737870.1048145	40	737873.127829	737873.1283563	100	del	737875.6748495	nan	nan	nan	nan	nan
1496.724609375	0.0	100	3065292	100	100	20	0	0	737867.0196648	737867.020242	80	737870.1043818	737870.1048145	40	737873.127829	737873.1283563	100	del	737875.6748495	nan	nan	nan	nan	nan
1534.39013671875	0.0	80	3142431	101	70	3	1	0	737910.794684	737910.7951613	80	737914.2187367	737914.2192168	40	737917.5405692	737917.5410811	100	del	737918.7708932	737919.2845077	737919.2849902	120.0	4.0	737920.6980441
1537.814453125	0.0	40	3149444	101	70	3	1	0	737910.794684	737910.7951613	80	737914.2187367	737914.2192168	40	737917.5405692	737917.5410811	100	del	737918.7708932	737919.2845077	737919.2849902	120.0	4.0	737920.6980441
1541.13623046875	0.0	100	3156247	101	70	3	1	0	737910.794684	737910.7951613	80	737914.2187367	737914.2192168	40	737917.5405692	737917.5410811	100	del	737918.7708932	737919.2845077	737919.2849902	120.0	4.0	737920.6980441
1542.8798828125	0.0	120	3159818	101	70	3	1	0	737910.794684	737910.7951613	80	737914.2187367	737914.2192168	40	737917.5405692	737917.5410811	100	del	737918.7708932	737919.2845077	737919.2849902	120.0	4.0	737920.6980441
1546.5703125	0.0	80	3167376	102	57	50	1	1	737922.9751032	737922.9759242	80	737926.4154156	737926.415899	40	737929.4771456	737929.477658	100	del	737930.8669243	737931.3809855	737931.381452	120.0	4.0	737932.346324
1550.0107421875	0.0	40	3174422	102	57	50	1	1	737922.9751032	737922.9759242	80	737926.4154156	737926.415899	40	737929.4771456	737929.477658	100	del	737930.8669243	737931.3809855	737931.381452	120.0	4.0	737932.346324
1553.072265625	0.0	100	3180692	102	57	50	1	1	737922.9751032	737922.9759242	80	737926.4154156	737926.415899	40	737929.4771456	737929.477658	100	del	737930.8669243	737931.3809855	737931.381452	120.0	4.0	737932.346324
1554.97607421875	0.0	120	3184591	102	57	50	1	1	737922.9751032	737922.9759242	80	737926.4154156	737926.415899	40	737929.4771456	737929.477658	100	del	737930.8669243	737931.3809855	737931.381452	120.0	4.0	737932.346324
1558.412109375	0.0	80	3191628	103	80	260	0	1	737934.8170672	737934.8175123	80	737937.8789676	737937.8794823	40	737941.1513196	737941.1518555	100	del	737942.3638387	nan	nan	nan	nan	nan
1561.47412109375	0.0	40	3197899	103	80	260	0	1	737934.8170672	737934.8175123	80	737937.8789676	737937.8794823	40	737941.1513196	737941.1518555	100	del	737942.3638387	nan	nan	nan	nan	nan
1564.74609375	0.0	100	3204600	103	80	260	0	1	737934.8170672	737934.8175123	80	737937.8789676	737937.8794823	40	737941.1513196	737941.1518555	100	del	737942.3638387	nan	nan	nan	nan	nan
1568.5458984375	0.0	80	3212382	104	90	330	1	0	737944.9511429	737944.951613	80	737948.2384526	737948.238946	40	737951.25391	737951.2543777	100	del	737954.730083	737955.2430404	737955.2435246	120.0	4.0	737955.8109257
1571.8330078125	0.0	40	3219114	104	90	330	1	0	737944.9511429	737944.951613	80	737948.2384526	737948.238946	40	737951.25391	737951.2543777	100	del	737954.730083	737955.2430404	737955.2435246	120.0	4.0	737955.8109257
1574.8486328125	0.0	100	3225290	104	90	330	1	0	737944.9511429	737944.951613	80	737948.2384526	737948.238946	40	737951.25391	737951.2543777	100	del	737954.730083	737955.2430404	737955.2435246	120.0	4.0	737955.8109257
1578.83740234375	0.0	120	3233459	104	90	330	1	0	737944.9511429	737944.951613	80	737948.2384526	737948.238946	40	737951.25391	737951.2543777	100	del	737954.730083	737955.2430404	737955.2435246	120.0	4.0	737955.8109257
1581.8046875	0.0	80	3239536	105	73	260	0	1	737958.2099636	737958.2104194	80	737961.6421588	737961.6426899	40	737965.1142212	737965.1147247	100	imm	737967.0826055	nan	nan	nan	nan	nan
1585.236328125	0.0	40	3246564	105	73	260	0	1	737958.2099636	737958.2104194	80	737961.6421588	737961.6426899	40	737965.1142212	737965.1147247	100	imm	737967.0826055	nan	nan	nan	nan	nan
1588.70849609375	0.0	100	3253675	105	73	260	0	1	737958.2099636	737958.2104194	80	737961.6421588	737961.6426899	40	737965.1142212	737965.1147247	100	imm	737967.0826055	nan	nan	nan	nan	nan
1593.68994140625	0.0	80	3263877	106	87	200	1	0	737970.0956166	737970.0961783	80	737973.3562783	737973.3567252	40	737976.5047784	737976.5052566	100	del	737978.2585679	737978.7708518	737978.7713198	120.0	4.0	737979.7544394
1596.9501953125	0.0	40	3270554	106	87	200	1	0	737970.0956166	737970.0961783	80	737973.3562783	737973.3567252	40	737976.5047784	737976.5052566	100	del	737978.2585679	737978.7708518	737978.7713198	120.0	4.0	737979.7544394
1600.0986328125	0.0	100	3277002	106	87	200	1	0	737970.0956166	737970.0961783	80	737973.3562783	737973.3567252	40	737976.5047784	737976.5052566	100	del	737978.2585679	737978.7708518	737978.7713198	120.0	4.0	737979.7544394
1602.36474609375	0.0	120	3281643	106	87	200	1	0	737970.0956166	737970.0961783	80	737973.3562783	737973.3567252	40	737976.5047784	737976.5052566	100	del	737978.2585679	737978.7708518	737978.7713198	120.0	4.0	737979.7544394
1605.41259765625	0.0	80	3287885	107	100	50	1	0	737981.8189615	737981.8194971	80	737985.0808062	737985.0813093	40	737988.3862207	737988.3866836	100	del	737990.8420052	737991.3548583	737991.3555677	120.0	4.0	737995.4427267
1608.6748046875	0.0	40	3294566	107	100	50	1	0	737981.8189615	737981.8194971	80	737985.0808062	737985.0813093	40	737988.3862207	737988.3866836	100	del	737990.8420052	737991.3548583	737991.3555677	120.0	4.0	737995.4427267
1611.97998046875	0.0	100	3301335	107	100	50	1	0	737981.8189615	737981.8194971	80	737985.0808062	737985.0813093	40	737988.3862207	737988.3866836	100	del	737990.8420052	737991.3548583	737991.3555677	120.0	4.0	737995.4427267
1614.94873046875	0.0	120	3307415	107	100	50	1	0	737981.8189615	737981.8194971	80	737985.0808062	737985.0813093	40	737988.3862207	737988.3866836	100	del	737990.8420052	737991.3548583	737991.3555677	120.0	4.0	737995.4427267
1621.43310546875	0.0	80	3320695	108	70	520	0	0	737997.8395148	737997.8399999	80	738000.8874817	738000.8878324	40	738004.2323296	738004.232852	100	imm	738005.3947833	nan	nan	nan	nan	nan
1624.48095703125	0.0	40	3326937	108	70	520	0	0	737997.8395148	737997.8399999	80	738000.8874817	738000.8878324	40	738004.2323296	738004.232852	100	imm	738005.3947833	nan	nan	nan	nan	nan
1627.82568359375	0.0	100	3333787	108	70	520	0	0	737997.8395148	737997.8399999	80	738000.8874817	738000.8878324	40	738004.2323296	738004.232852	100	imm	738005.3947833	nan	nan	nan	nan	nan
1631.76171875	0.0	80	3341848	109	83	330	1	0	738008.1686514	738008.1690757	80	738011.2604716	738011.2607935	40	738014.743168	738014.7436816	100	del	738017.5624501	738018.0750476	738018.0755319	120.0	1.0	738018.5857016
1634.853515625	0.0	40	3348180	109	83	330	1	0	738008.1686514	738008.1690757	80	738011.2604716	738011.2607935	40	738014.743168	738014.7436816	100	del	738017.5624501	738018.0750476	738018.0755319	120.0	1.0	738018.5857016
1638.33642578125	0.0	100	3355313	109	83	330	1	0	738008.1686514	738008.1690757	80	738011.2604716	738011.2607935	40	738014.743168	738014.7436816	100	del	738017.5624501	738018.0750476	738018.0755319	120.0	1.0	738018.5857016
1641.66796875	0.0	120	3362136	109	83	330	1	0	738008.1686514	738008.1690757	80	738011.2604716	738011.2607935	40	738014.743168	738014.7436816	100	del	738017.5624501	738018.0750476	738018.0755319	120.0	1.0	738018.5857016
1644.4912109375	0.0	80	3367918	110	100	800	1	1	738020.8983381	738020.8988714	80	738024.1265013	738024.1270097	40	738027.6105689	738027.6110325	100	del	738029.5868037	738030.0987682	738030.0992144	120.0	4.0	738030.8904604
1647.71923828125	0.0	40	3374529	110	100	800	1	1	738020.8983381	738020.8988714	80	738024.1265013	738024.1270097	40	738027.6105689	738027.6110325	100	del	738029.5868037	738030.0987682	738030.0992144	120.0	4.0	738030.8904604
1651.203125	0.0	100	3381664	110	100	800	1	1	738020.8983381	738020.8988714	80	738024.1265013	738024.1270097	40	738027.6105689	738027.6110325	100	del	738029.5868037	738030.0987682	738030.0992144	120.0	4.0	738030.8904604
1653.69140625	0.0	120	3386760	110	100	800	1	1	738020.8983381	738020.8988714	80	738024.1265013	738024.1270097	40	738027.6105689	738027.6110325	100	del	738029.5868037	738030.0987682	738030.0992144	120.0	4.0	738030.8904604
1656.8271484375	0.0	80	3393182	111	50	330	1	1	738033.2344018	738033.2348956	80	738036.4683725	738036.4688222	40	738039.9013328	738039.9018293	100	del	738043.9861285	738044.4972115	738044.4976709	120.0	4.0	738045.4745802
1660.06103515625	0.0	40	3399805	111	50	330	1	1	738033.2344018	738033.2348956	80	738036.4683725	738036.4688222	40	738039.9013328	738039.9018293	100	del	738043.9861285	738044.4972115	738044.4976709	120.0	4.0	738045.4745802
1663.49365234375	0.0	100	3406835	111	50	330	1	1	738033.2344018	738033.2348956	80	738036.4683725	738036.4688222	40	738039.9013328	738039.9018293	100	del	738043.9861285	738044.4972115	738044.4976709	120.0	4.0	738045.4745802
1668.08935546875	0.0	120	3416247	111	50	330	1	1	738033.2344018	738033.2348956	80	738036.4683725	738036.4688222	40	738039.9013328	738039.9018293	100	del	738043.9861285	738044.4972115	738044.4976709	120.0	4.0	738045.4745802
1671.34765625	0.0	80	3422920	112	53	50	1	0	738047.755557	738047.7560405	80	738051.040328	738051.0407756	40	738054.3935464	738054.3940636	100	del	738055.8036234	738056.3130324	738056.3135385	120.0	4.0	738056.7785041
1674.63232421875	0.0	40	3429647	112	53	50	1	0	738047.755557	738047.7560405	80	738051.040328	738051.0407756	40	738054.3935464	738054.3940636	100	del	738055.8036234	738056.3130324	738056.3135385	120.0	4.0	738056.7785041
1677.98583984375	0.0	100	3436515	112	53	50	1	0	738047.755557	738047.7560405	80	738051.040328	738051.0407756	40	738054.3935464	738054.3940636	100	del	738055.8036234	738056.3130324	738056.3135385	120.0	4.0	738056.7785041
1679.90478515625	0.0	120	3440445	112	53	50	1	0	738047.755557	738047.7560405	80	738051.040328	738051.0407756	40	738054.3935464	738054.3940636	100	del	738055.8036234	738056.3130324	738056.3135385	120.0	4.0	738056.7785041
1682.5693359375	0.0	80	3445902	113	80	20	0	0	738058.9772519	738058.9777693	80	738062.1033755	738062.1036856	40	738065.4025749	738065.4029138	100	del	738066.5138041	nan	nan	nan	nan	nan
1685.6953125	0.0	40	3452304	113	80	20	0	0	738058.9772519	738058.9777693	80	738062.1033755	738062.1036856	40	738065.4025749	738065.4029138	100	del	738066.5138041	nan	nan	nan	nan	nan
1688.994140625	0.0	100	3459060	113	80	20	0	0	738058.9772519	738058.9777693	80	738062.1033755	738062.1036856	40	738065.4025749	738065.4029138	100	del	738066.5138041	nan	nan	nan	nan	nan
1693.056640625	0.0	80	3467380	114	67	520	0	0	738069.4650213	738069.4654418	80	738072.6758939	738072.6763648	40	738075.746186	738075.7468034	100	imm	738077.4353591	nan	nan	nan	nan	nan
1696.267578125	0.0	40	3473956	114	67	520	0	0	738069.4650213	738069.4654418	80	738072.6758939	738072.6763648	40	738075.746186	738075.7468034	100	imm	738077.4353591	nan	nan	nan	nan	nan
1699.337890625	0.0	100	3480244	114	67	520	0	0	738069.4650213	738069.4654418	80	738072.6758939	738072.6763648	40	738075.746186	738075.7468034	100	imm	738077.4353591	nan	nan	nan	nan	nan
1703.7646484375	0.0	80	3489310	115	83	520	0	1	738080.1734612	738080.1739728	80	738083.3313772	738083.33189	40	738086.5459679	738086.5464145	100	del	738089.5395306	nan	nan	nan	nan	nan
1706.9228515625	0.0	40	3495778	115	83	520	0	1	738080.1734612	738080.1739728	80	738083.3313772	738083.33189	40	738086.5459679	738086.5464145	100	del	738089.5395306	nan	nan	nan	nan	nan
1710.13720703125	0.0	100	3502361	115	83	520	0	1	738080.1734612	738080.1739728	80	738083.3313772	738083.33189	40	738086.5459679	738086.5464145	100	del	738089.5395306	nan	nan	nan	nan	nan
1716.06396484375	0.0	80	3514499	116	87	3	1	0	738092.4726817	738092.4731888	80	738095.6838371	738095.6843562	40	738098.8923549	738098.8929375	100	del	738100.7379189	738101.2483311	738101.2486824	120.0	4.0	738101.9456088
1719.27490234375	0.0	40	3521075	116	87	3	1	0	738092.4726817	738092.4731888	80	738095.6838371	738095.6843562	40	738098.8923549	738098.8929375	100	del	738100.7379189	738101.2483311	738101.2486824	120.0	4.0	738101.9456088
1722.4833984375	0.0	100	3527646	116	87	3	1	0	738092.4726817	738092.4731888	80	738095.6838371	738095.6843562	40	738098.8923549	738098.8929375	100	del	738100.7379189	738101.2483311	738101.2486824	120.0	4.0	738101.9456088
1724.83935546875	0.0	120	3532471	116	87	3	1	0	738092.4726817	738092.4731888	80	738095.6838371	738095.6843562	40	738098.8923549	738098.8929375	100	del	738100.7379189	738101.2483311	738101.2486824	120.0	4.0	738101.9456088
1727.732421875	0.0	80	3538396	117	67	50	1	0	738104.1416074	738104.1421837	80	738107.2193591	738107.2198474	40	738110.3625983	738110.3631154	100	del	738111.8105739	738112.3215908	738112.3219839	120.0	4.0	738112.6258663
1730.81005859375	0.0	40	3544699	117	67	50	1	0	738104.1416074	738104.1421837	80	738107.2193591	738107.2198474	40	738110.3625983	738110.3631154	100	del	738111.8105739	738112.3215908	738112.3219839	120.0	4.0	738112.6258663
1733.953125	0.0	100	3551136	117	67	50	1	0	738104.1416074	738104.1421837	80	738107.2193591	738107.2198474	40	738110.3625983	738110.3631154	100	del	738111.8105739	738112.3215908	738112.3219839	120.0	4.0	738112.6258663
1735.912109375	0.0	120	3555148	117	67	50	1	0	738104.1416074	738104.1421837	80	738107.2193591	738107.2198474	40	738110.3625983	738110.3631154	100	del	738111.8105739	738112.3215908	738112.3219839	120.0	4.0	738112.6258663
1738.275390625	0.0	80	3559988	118	93	200	1	1	738114.6846449	738114.6851475	80	738117.9058181	738117.9062343	40	738121.0477051	738121.0481716	100	del	738123.1618324	738123.6749046	738123.6754037	120.0	4.0	738124.1064147
1741.49609375	0.0	40	3566584	118	93	200	1	1	738114.6846449	738114.6851475	80	738117.9058181	738117.9062343	40	738121.0477051	738121.0481716	100	del	738123.1618324	738123.6749046	738123.6754037	120.0	4.0	738124.1064147
1744.63818359375	0.0	100	3573019	118	93	200	1	1	738114.6846449	738114.6851475	80	738117.9058181	738117.9062343	40	738121.0477051	738121.0481716	100	del	738123.1618324	738123.6749046	738123.6754037	120.0	4.0	738124.1064147
1747.26513671875	0.0	120	3578399	118	93	200	1	1	738114.6846449	738114.6851475	80	738117.9058181	738117.9062343	40	738121.0477051	738121.0481716	100	del	738123.1618324	738123.6749046	738123.6754037	120.0	4.0	738124.1064147
1749.85888671875	0.0	80	3583711	119	77	260	0	0	738126.2686108	738126.2690049	80	738129.4889727	738129.4894226	40	738132.5622214	738132.5627276	100	del	738134.9148366	nan	nan	nan	nan	nan
1753.0791015625	0.0	40	3590306	119	77	260	0	0	738126.2686108	738126.2690049	80	738129.4889727	738129.4894226	40	738132.5622214	738132.5627276	100	del	738134.9148366	nan	nan	nan	nan	nan
1756.15234375	0.0	100	3596600	119	77	260	0	0	738126.2686108	738126.2690049	80	738129.4889727	738129.4894226	40	738132.5622214	738132.5627276	100	del	738134.9148366	nan	nan	nan	nan	nan
1761.27001953125	0.0	80	3607081	120	100	330	1	0	738137.6798474	738137.6803333	80	738141.040945	738141.0413553	40	738144.1761146	738144.1765418	100	del	738145.0753148	738145.5858946	738145.5863214	120.0	4.0	738146.7070501
1764.630859375	0.0	40	3613964	120	100	330	1	0	738137.6798474	738137.6803333	80	738141.040945	738141.0413553	40	738144.1761146	738144.1765418	100	del	738145.0753148	738145.5858946	738145.5863214	120.0	4.0	738146.7070501
1767.76611328125	0.0	100	3620385	120	100	330	1	0	738137.6798474	738137.6803333	80	738141.040945	738141.0413553	40	738144.1761146	738144.1765418	100	del	738145.0753148	738145.5858946	738145.5863214	120.0	4.0	738146.7070501
1769.17578125	0.0	120	3623272	120	100	330	1	0	738137.6798474	738137.6803333	80	738141.040945	738141.0413553	40	738144.1761146	738144.1765418	100	del	738145.0753148	738145.5858946	738145.5863214	120.0	4.0	738146.7070501
1802.2138671875	0.0	80	3690934	121	77	520	0	1	738178.6246419	738178.6250773	80	738181.6696139	738181.6699997	40	738184.8797506	738184.8801505	100	imm	738186.0258446	nan	nan	nan	nan	nan
1805.25830078125	0.0	40	3697169	121	77	520	0	1	738178.6246419	738178.6250773	80	738181.6696139	738181.6699997	40	738184.8797506	738184.8801505	100	imm	738186.0258446	nan	nan	nan	nan	nan
1808.46875	0.0	100	3703744	121	77	520	0	1	738178.6246419	738178.6250773	80	738181.6696139	738181.6699997	40	738184.8797506	738184.8801505	100	imm	738186.0258446	nan	nan	nan	nan	nan
1812.130859375	0.0	80	3711244	122	63	1240	0	1	738188.5419964	738188.5423433	80	738191.659687	738191.6601737	40	738194.6738005	738194.6743335	100	imm	738199.7456477	nan	nan	nan	nan	nan
1815.24853515625	0.0	40	3717629	122	63	1240	0	1	738188.5419964	738188.5423433	80	738191.659687	738191.6601737	40	738194.6738005	738194.6743335	100	imm	738199.7456477	nan	nan	nan	nan	nan
1818.26220703125	0.0	100	3723801	122	63	1240	0	1	738188.5419964	738188.5423433	80	738191.659687	738191.6601737	40	738194.6738005	738194.6743335	100	imm	738199.7456477	nan	nan	nan	nan	nan
1825.94677734375	0.0	80	3739539	123	70	330	1	0	738202.358163	738202.3586347	80	738205.4365592	738205.4370471	40	738208.5843655	738208.5848342	100	del	738210.8032599	738211.3149978	738211.3154202	120.0	4.0	738212.5620284
1829.02490234375	0.0	40	3745843	123	70	330	1	0	738202.358163	738202.3586347	80	738205.4365592	738205.4370471	40	738208.5843655	738208.5848342	100	del	738210.8032599	738211.3149978	738211.3154202	120.0	4.0	738212.5620284
1832.1728515625	0.0	100	3752290	123	70	330	1	0	738202.358163	738202.3586347	80	738205.4365592	738205.4370471	40	738208.5843655	738208.5848342	100	del	738210.8032599	738211.3149978	738211.3154202	120.0	4.0	738212.5620284
1834.9033203125	0.0	120	3757882	123	70	330	1	0	738202.358163	738202.3586347	80	738205.4365592	738205.4370471	40	738208.5843655	738208.5848342	100	del	738210.8032599	738211.3149978	738211.3154202	120.0	4.0	738212.5620284
1838.25146484375	0.0	80	3764739	124	100	100	0	0	738214.6631799	738214.6635121	80	738217.7389487	738217.7394344	40	738221.0521239	738221.0526175	100	del	738222.6654559	nan	nan	nan	nan	nan
1841.3271484375	0.0	40	3771038	124	100	100	0	0	738214.6631799	738214.6635121	80	738217.7389487	738217.7394344	40	738221.0521239	738221.0526175	100	del	738222.6654559	nan	nan	nan	nan	nan
1844.64013671875	0.0	100	3777823	124	100	100	0	0	738214.6631799	738214.6635121	80	738217.7389487	738217.7394344	40	738221.0521239	738221.0526175	100	del	738222.6654559	nan	nan	nan	nan	nan
1849.22216796875	0.0	80	3787207	125	50	3	1	0	738225.6342181	738225.6346466	80	738229.1114912	738229.1120167	40	738232.2356328	738232.2361594	100	del	738234.2815314	738234.7930293	738234.7933935	120.0	4.0	738236.1300091
1852.69921875	0.0	40	3794328	125	50	3	1	0	738225.6342181	738225.6346466	80	738229.1114912	738229.1120167	40	738232.2356328	738232.2361594	100	del	738234.2815314	738234.7930293	738234.7933935	120.0	4.0	738236.1300091
1855.8232421875	0.0	100	3800726	125	50	3	1	0	738225.6342181	738225.6346466	80	738229.1114912	738229.1120167	40	738232.2356328	738232.2361594	100	del	738234.2815314	738234.7930293	738234.7933935	120.0	4.0	738236.1300091
1858.380859375	0.0	120	3805964	125	50	3	1	0	738225.6342181	738225.6346466	80	738229.1114912	738229.1120167	40	738232.2356328	738232.2361594	100	del	738234.2815314	738234.7930293	738234.7933935	120.0	4.0	738236.1300091
1861.97412109375	0.0	80	3813323	126	63	100	0	0	738238.3867797	738238.3872346	80	738241.5823045	738241.5827569	40	738244.8573079	738244.8578448	100	imm	738247.506316	nan	nan	nan	nan	nan
1865.169921875	0.0	40	3819868	126	63	100	0	0	738238.3867797	738238.3872346	80	738241.5823045	738241.5827569	40	738244.8573079	738244.8578448	100	imm	738247.506316	nan	nan	nan	nan	nan
1868.44482421875	0.0	100	3826575	126	63	100	0	0	738238.3867797	738238.3872346	80	738241.5823045	738241.5827569	40	738244.8573079	738244.8578448	100	imm	738247.506316	nan	nan	nan	nan	nan
1873.74365234375	0.0	80	3837427	127	90	100	0	0	738250.1562825	738250.1567427	80	738253.1987538	738253.199253	40	738256.430614	738256.4311176	100	del	738258.5622339	nan	nan	nan	nan	nan
1876.78564453125	0.0	40	3843657	127	90	100	0	0	738250.1562825	738250.1567427	80	738253.1987538	738253.199253	40	738256.430614	738256.4311176	100	del	738258.5622339	nan	nan	nan	nan	nan
1880.017578125	0.0	100	3850276	127	90	100	0	0	738250.1562825	738250.1567427	80	738253.1987538	738253.199253	40	738256.430614	738256.4311176	100	del	738258.5622339	nan	nan	nan	nan	nan
1884.75390625	0.0	80	3859976	128	83	50	1	1	738261.1669341	738261.1673947	80	738264.1874866	738264.187968	40	738267.6786515	738267.6791693	100	del	738270.0352265	738270.5477114	738270.5481592	120.0	4.0	738271.162855
1887.7744140625	0.0	40	3866162	128	83	50	1	1	738261.1669341	738261.1673947	80	738264.1874866	738264.187968	40	738267.6786515	738267.6791693	100	del	738270.0352265	738270.5477114	738270.5481592	120.0	4.0	738271.162855
1891.265625	0.0	100	3873312	128	83	50	1	1	738261.1669341	738261.1673947	80	738264.1874866	738264.187968	40	738267.6786515	738267.6791693	100	del	738270.0352265	738270.5477114	738270.5481592	120.0	4.0	738271.162855
1894.13427734375	0.0	120	3879187	128	83	50	1	1	738261.1669341	738261.1673947	80	738264.1874866	738264.187968	40	738267.6786515	738267.6791693	100	del	738270.0352265	738270.5477114	738270.5481592	120.0	4.0	738271.162855
1896.98046875	0.0	80	3885016	129	87	1240	0	0	738273.3937915	738273.3943273	80	738276.8821203	738276.8826151	40	738280.2768307	738280.2773556	100	imm	738285.4013435	nan	nan	nan	nan	nan
1900.46875	0.0	40	3892160	129	87	1240	0	0	738273.3937915	738273.3943273	80	738276.8821203	738276.8826151	40	738280.2768307	738280.2773556	100	imm	738285.4013435	nan	nan	nan	nan	nan
1903.86328125	0.0	100	3899112	129	87	1240	0	0	738273.3937915	738273.3943273	80	738276.8821203	738276.8826151	40	738280.2768307	738280.2773556	100	imm	738285.4013435	nan	nan	nan	nan	nan
1911.50830078125	0.0	80	3914769	130	67	100	0	0	738287.9221439	738287.9226225	80	738291.2697872	738291.2703862	40	738294.6359791	738294.6375635	100	del	738298.4573743	nan	nan	nan	nan	nan
1914.85595703125	0.0	40	3921625	130	67	100	0	0	738287.9221439	738287.9226225	80	738291.2697872	738291.2703862	40	738294.6359791	738294.6375635	100	del	738298.4573743	nan	nan	nan	nan	nan
1918.22216796875	0.0	100	3928519	130	67	100	0	0	738287.9221439	738287.9226225	80	738291.2697872	738291.2703862	40	738294.6359791	738294.6375635	100	del	738298.4573743	nan	nan	nan	nan	nan
1924.88134765625	0.0	80	3942157	131	97	520	0	0	738301.2954917	738301.2959714	80	738304.5792911	738304.5797563	40	738307.7026842	738307.7032293	100	del	738309.2097168	nan	nan	nan	nan	nan
1928.1650390625	0.0	40	3948882	131	97	520	0	0	738301.2954917	738301.2959714	80	738304.5792911	738304.5797563	40	738307.7026842	738307.7032293	100	del	738309.2097168	nan	nan	nan	nan	nan
1931.28857421875	0.0	100	3955279	131	97	520	0	0	738301.2954917	738301.2959714	80	738304.5792911	738304.5797563	40	738307.7026842	738307.7032293	100	del	738309.2097168	nan	nan	nan	nan	nan
1935.6982421875	0.0	80	3964310	132	83	20	0	1	738312.1127801	738312.1132814	80	738315.234748	738315.2352271	40	738318.4337249	738318.4342352	100	del	738319.5055507	nan	nan	nan	nan	nan
1938.8203125	0.0	40	3970704	132	83	20	0	1	738312.1127801	738312.1132814	80	738315.234748	738315.2352271	40	738318.4337249	738318.4342352	100	del	738319.5055507	nan	nan	nan	nan	nan
1942.01953125	0.0	100	3977256	132	83	20	0	1	738312.1127801	738312.1132814	80	738315.234748	738315.2352271	40	738318.4337249	738318.4342352	100	del	738319.5055507	nan	nan	nan	nan	nan
1946.05322265625	0.0	80	3985517	133	73	520	0	1	738322.467976	738322.4684097	80	738325.9036201	738325.9043696	40	738329.1188596	738329.119291	100	imm	738330.4822587	nan	nan	nan	nan	nan
1949.48876953125	0.0	40	3992553	133	73	520	0	1	738322.467976	738322.4684097	80	738325.9036201	738325.9043696	40	738329.1188596	738329.119291	100	imm	738330.4822587	nan	nan	nan	nan	nan
1952.7041015625	0.0	100	3999138	133	73	520	0	1	738322.467976	738322.4684097	80	738325.9036201	738325.9043696	40	738329.1188596	738329.119291	100	imm	738330.4822587	nan	nan	nan	nan	nan
1956.744140625	0.0	80	4007412	134	50	20	0	1	738333.1591433	738333.159592	80	738336.4707123	738336.4713263	40	738339.939001	738339.9394777	100	del	738341.5387428	nan	nan	nan	nan	nan
1960.05615234375	0.0	40	4014195	134	50	20	0	1	738333.1591433	738333.159592	80	738336.4707123	738336.4713263	40	738339.939001	738339.9394777	100	del	738341.5387428	nan	nan	nan	nan	nan
1963.52392578125	0.0	100	4021297	134	50	20	0	1	738333.1591433	738333.159592	80	738336.4707123	738336.4713263	40	738339.939001	738339.9394777	100	del	738341.5387428	nan	nan	nan	nan	nan
1968.09521484375	0.0	80	4030659	135	60	20	0	1	738344.5104164	738344.5109254	80	738347.8144523	738347.8149374	40	738350.9937437	738350.9942088	100	del	738351.9853979	nan	nan	nan	nan	nan
1971.3994140625	0.0	40	4037426	135	60	20	0	1	738344.5104164	738344.5109254	80	738347.8144523	738347.8149374	40	738350.9937437	738350.9942088	100	del	738351.9853979	nan	nan	nan	nan	nan
1974.57861328125	0.0	100	4043937	135	60	20	0	1	738344.5104164	738344.5109254	80	738347.8144523	738347.8149374	40	738350.9937437	738350.9942088	100	del	738351.9853979	nan	nan	nan	nan	nan
1978.5146484375	0.0	80	4051998	136	50	260	0	1	738354.9299698	738354.9304386	80	738358.1586936	738358.1591529	40	738361.6240904	738361.6246429	100	imm	738364.4179463	nan	nan	nan	nan	nan
1981.7431640625	0.0	40	4058610	136	50	260	0	1	738354.9299698	738354.9304386	80	738358.1586936	738358.1591529	40	738361.6240904	738361.6246429	100	imm	738364.4179463	nan	nan	nan	nan	nan
1985.20849609375	0.0	100	4065707	136	50	260	0	1	738354.9299698	738354.9304386	80	738358.1586936	738358.1591529	40	738361.6240904	738361.6246429	100	imm	738364.4179463	nan	nan	nan	nan	nan
1990.53662109375	0.0	80	4076619	137	57	520	0	1	738366.9520933	738366.952583	80	738370.22591	738370.226322	40	738373.5979596	738373.5984428	100	imm	738374.4268123	nan	nan	nan	nan	nan
1993.81005859375	0.0	40	4083323	137	57	520	0	1	738366.9520933	738366.952583	80	738370.22591	738370.226322	40	738373.5979596	738373.5984428	100	imm	738374.4268123	nan	nan	nan	nan	nan
1997.18212890625	0.0	100	4090229	137	57	520	0	1	738366.9520933	738366.952583	80	738370.22591	738370.226322	40	738373.5979596	738373.5984428	100	imm	738374.4268123	nan	nan	nan	nan	nan
2000.61865234375	0.0	80	4097267	138	90	1240	0	0	738377.0344117	738377.0348807	80	738380.2102833	738380.210828	40	738383.3180769	738383.3186022	100	del	738385.8420984	nan	nan	nan	nan	nan
2003.79443359375	0.0	40	4103771	138	90	1240	0	0	738377.0344117	738377.0348807	80	738380.2102833	738380.210828	40	738383.3180769	738383.3186022	100	del	738385.8420984	nan	nan	nan	nan	nan
2006.90185546875	0.0	100	4110135	138	90	1240	0	0	738377.0344117	738377.0348807	80	738380.2102833	738380.210828	40	738383.3180769	738383.3186022	100	del	738385.8420984	nan	nan	nan	nan	nan
2012.103515625	0.0	80	4120788	139	57	1240	0	0	738388.5198704	738388.5203167	80	738391.7294834	738391.7299557	40	738395.0171783	738395.0176065	100	imm	738396.9294061	nan	nan	nan	nan	nan
2015.31298828125	0.0	40	4127361	139	57	1240	0	0	738388.5198704	738388.5203167	80	738391.7294834	738391.7299557	40	738395.0171783	738395.0176065	100	imm	738396.9294061	nan	nan	nan	nan	nan
2018.6005859375	0.0	100	4134094	139	57	1240	0	0	738388.5198704	738388.5203167	80	738391.7294834	738391.7299557	40	738395.0171783	738395.0176065	100	imm	738396.9294061	nan	nan	nan	nan	nan
2023.0537109375	0.0	80	4143214	140	53	200	1	1	738399.4700924	738399.4705707	80	738402.7544165	738402.7549031	40	738405.9056458	738405.9062727	100	del	738410.6893839	738411.2004944	738411.2010186	120.0	4.0	738411.5939604
2026.337890625	0.0	40	4149940	140	53	200	1	1	738399.4700924	738399.4705707	80	738402.7544165	738402.7549031	40	738405.9056458	738405.9062727	100	del	738410.6893839	738411.2004944	738411.2010186	120.0	4.0	738411.5939604
2029.4892578125	0.0	100	4156394	140	53	200	1	1	738399.4700924	738399.4705707	80	738402.7544165	738402.7549031	40	738405.9056458	738405.9062727	100	del	738410.6893839	738411.2004944	738411.2010186	120.0	4.0	738411.5939604
2034.78369140625	0.0	120	4167237	140	53	200	1	1	738399.4700924	738399.4705707	80	738402.7544165	738402.7549031	40	738405.9056458	738405.9062727	100	del	738410.6893839	738411.2004944	738411.2010186	120.0	4.0	738411.5939604
