onset	duration	value	sample	trial_idx	val	del	is_cued	rev_opts	del_pres_displaytime	del_pres_triggertime	del_pres_triggercode	val_pres_displaytime	val_pres_triggertime	val_pres_triggercode	choice_displaytime	choice_triggertime	choice_triggercode	choice	choice_time	viv_displaytime	viv_triggertime	viv_triggercode	viv	viv_time
30.55615234375	0.0	80	62579	1	73	365	1	0	74482.936469	74482.9389234	80	74486.1258533	74486.1275675	40	74489.6268267	74489.6287876	100	imm	74491.2129963	74491.7346462	74491.7361653	120.0	4.0	74493.4529526
33.7451171875	0.0	40	69110	1	73	365	1	0	74482.936469	74482.9389234	80	74486.1258533	74486.1275675	40	74489.6268267	74489.6287876	100	imm	74491.2129963	74491.7346462	74491.7361653	120.0	4.0	74493.4529526
37.24609375	0.0	100	76280	1	73	365	1	0	74482.936469	74482.9389234	80	74486.1258533	74486.1275675	40	74489.6268267	74489.6287876	100	imm	74491.2129963	74491.7346462	74491.7361653	120.0	4.0	74493.4529526
39.35400390625	0.0	120	80597	1	73	365	1	0	74482.936469	74482.9389234	80	74486.1258533	74486.1275675	40	74489.6268267	74489.6287876	100	imm	74491.2129963	74491.7346462	74491.7361653	120.0	4.0	74493.4529526
43.15283203125	0.0	80	88377	2	97	110	0	1	74495.5333551	74495.5338348	80	74498.9080433	74498.9085862	40	74502.2454417	74502.2459492	100	imm	74503.517517	nan	nan	nan	nan	nan
46.52734375	0.0	40	95288	2	97	110	0	1	74495.5333551	74495.5338348	80	74498.9080433	74498.9085862	40	74502.2454417	74502.2459492	100	imm	74503.517517	nan	nan	nan	nan	nan
49.86474609375	0.0	100	102123	2	97	110	0	1	74495.5333551	74495.5338348	80	74498.9080433	74498.9085862	40	74502.2454417	74502.2459492	100	imm	74503.517517	nan	nan	nan	nan	nan
54.0712890625	0.0	80	110738	3	60	110	0	1	74506.4520785	74506.4526209	80	74509.6586708	74509.6591638	40	74513.0466263	74513.0470695	100	del	74513.9570299	nan	nan	nan	nan	nan
57.27734375	0.0	40	117304	3	60	110	0	1	74506.4520785	74506.4526209	80	74509.6586708	74509.6591638	40	74513.0466263	74513.0470695	100	del	74513.9570299	nan	nan	nan	nan	nan
60.66552734375	0.0	100	124243	3	60	110	0	1	74506.4520785	74506.4526209	80	74509.6586708	74509.6591638	40	74513.0466263	74513.0470695	100	del	74513.9570299	nan	nan	nan	nan	nan
64.51220703125	0.0	80	132121	4	77	8	1	1	74516.8934903	74516.893964	80	74520.0623895	74520.0628673	40	74523.3524573	74523.3529794	100	imm	74525.0288567	74525.5427594	74525.5432814	120.0	3.0	74526.6693703
67.68115234375	0.0	40	138611	4	77	8	1	1	74516.8934903	74516.893964	80	74520.0623895	74520.0628673	40	74523.3524573	74523.3529794	100	imm	74525.0288567	74525.5427594	74525.5432814	120.0	3.0	74526.6693703
70.97119140625	0.0	100	145349	4	77	8	1	1	74516.8934903	74516.893964	80	74520.0623895	74520.0628673	40	74523.3524573	74523.3529794	100	imm	74525.0288567	74525.5427594	74525.5432814	120.0	3.0	74526.6693703
73.1611328125	0.0	120	149834	4	77	8	1	1	74516.8934903	74516.893964	80	74520.0623895	74520.0628673	40	74523.3524573	74523.3529794	100	imm	74525.0288567	74525.5427594	74525.5432814	120.0	3.0	74526.6693703
76.79345703125	0.0	80	157273	5	87	60	1	1	74529.174983	74529.1754807	80	74532.4574104	74532.4579507	40	74535.6359552	74535.6364788	100	del	74536.7009996	74537.2128445	74537.2132683	120.0	2.0	74538.4052514
80.07568359375	0.0	40	163995	5	87	60	1	1	74529.174983	74529.1754807	80	74532.4574104	74532.4579507	40	74535.6359552	74535.6364788	100	del	74536.7009996	74537.2128445	74537.2132683	120.0	2.0	74538.4052514
83.25390625	0.0	100	170504	5	87	60	1	1	74529.174983	74529.1754807	80	74532.4574104	74532.4579507	40	74535.6359552	74535.6364788	100	del	74536.7009996	74537.2128445	74537.2132683	120.0	2.0	74538.4052514
84.8310546875	0.0	120	173734	5	87	60	1	1	74529.174983	74529.1754807	80	74532.4574104	74532.4579507	40	74535.6359552	74535.6364788	100	del	74536.7009996	74537.2128445	74537.2132683	120.0	2.0	74538.4052514
88.34814453125	0.0	80	180937	6	60	250	0	1	74540.7302418	74540.7307686	80	74543.9195323	74543.9200487	40	74547.3110957	74547.311594	100	imm	74548.1975126	nan	nan	nan	nan	nan
91.53759765625	0.0	40	187469	6	60	250	0	1	74540.7302418	74540.7307686	80	74543.9195323	74543.9200487	40	74547.3110957	74547.311594	100	imm	74548.1975126	nan	nan	nan	nan	nan
94.92919921875	0.0	100	194415	6	60	250	0	1	74540.7302418	74540.7307686	80	74543.9195323	74543.9200487	40	74547.3110957	74547.311594	100	imm	74548.1975126	nan	nan	nan	nan	nan
98.541015625	0.0	80	201812	7	80	365	1	1	74550.9232068	74550.9237593	80	74554.1773787	74554.1778425	40	74557.538572	74557.5391137	100	imm	74559.4703492	74559.9842077	74559.9847404	120.0	1.0	74561.7973182
101.794921875	0.0	40	208476	7	80	365	1	1	74550.9232068	74550.9237593	80	74554.1773787	74554.1778425	40	74557.538572	74557.5391137	100	imm	74559.4703492	74559.9842077	74559.9847404	120.0	1.0	74561.7973182
105.15625	0.0	100	215360	7	80	365	1	1	74550.9232068	74550.9237593	80	74554.1773787	74554.1778425	40	74557.538572	74557.5391137	100	imm	74559.4703492	74559.9842077	74559.9847404	120.0	1.0	74561.7973182
107.6015625	0.0	120	220368	7	80	365	1	1	74550.9232068	74550.9237593	80	74554.1773787	74554.1778425	40	74557.538572	74557.5391137	100	imm	74559.4703492	74559.9842077	74559.9847404	120.0	1.0	74561.7973182
111.91748046875	0.0	80	229207	8	60	770	0	1	74564.2998894	74564.3004092	80	74567.4714134	74567.4718896	40	74570.9038629	74570.9043229	100	imm	74574.485275	nan	nan	nan	nan	nan
115.0888671875	0.0	40	235702	8	60	770	0	1	74564.2998894	74564.3004092	80	74567.4714134	74567.4718896	40	74570.9038629	74570.9043229	100	imm	74574.485275	nan	nan	nan	nan	nan
118.52099609375	0.0	100	242731	8	60	770	0	1	74564.2998894	74564.3004092	80	74567.4714134	74567.4718896	40	74570.9038629	74570.9043229	100	imm	74574.485275	nan	nan	nan	nan	nan
124.990234375	0.0	80	255980	9	50	110	0	1	74577.3732953	74577.3737962	80	74580.8579698	74580.8584443	40	74583.8877131	74583.8882082	100	imm	74584.6706307	nan	nan	nan	nan	nan
128.47509765625	0.0	40	263117	9	50	110	0	1	74577.3732953	74577.3737962	80	74580.8579698	74580.8584443	40	74583.8877131	74583.8882082	100	imm	74584.6706307	nan	nan	nan	nan	nan
131.50439453125	0.0	100	269321	9	50	110	0	1	74577.3732953	74577.3737962	80	74580.8579698	74580.8584443	40	74583.8877131	74583.8882082	100	imm	74584.6706307	nan	nan	nan	nan	nan
134.98486328125	0.0	80	276449	10	80	770	0	1	74587.3681675	74587.3687	80	74590.7072469	74590.7077439	40	74593.861944	74593.8624639	100	imm	74595.4295618	nan	nan	nan	nan	nan
138.32373046875	0.0	40	283287	10	80	770	0	1	74587.3681675	74587.3687	80	74590.7072469	74590.7077439	40	74593.861944	74593.8624639	100	imm	74595.4295618	nan	nan	nan	nan	nan
141.478515625	0.0	100	289748	10	80	770	0	1	74587.3681675	74587.3687	80	74590.7072469	74590.7077439	40	74593.861944	74593.8624639	100	imm	74595.4295618	nan	nan	nan	nan	nan
145.6796875	0.0	80	298352	11	60	8	1	1	74598.0633821	74598.0638503	80	74601.427172	74601.4276695	40	74604.7532774	74604.7537705	100	del	74606.3892355	74606.9029048	74606.9034077	120.0	2.0	74608.2606595
149.04345703125	0.0	40	305241	11	60	8	1	1	74598.0633821	74598.0638503	80	74601.427172	74601.4276695	40	74604.7532774	74604.7537705	100	del	74606.3892355	74606.9029048	74606.9034077	120.0	2.0	74608.2606595
152.36962890625	0.0	100	312053	11	60	8	1	1	74598.0633821	74598.0638503	80	74601.427172	74601.4276695	40	74604.7532774	74604.7537705	100	del	74606.3892355	74606.9029048	74606.9034077	120.0	2.0	74608.2606595
154.51904296875	0.0	120	316455	11	60	8	1	1	74598.0633821	74598.0638503	80	74601.427172	74601.4276695	40	74604.7532774	74604.7537705	100	del	74606.3892355	74606.9029048	74606.9034077	120.0	2.0	74608.2606595
158.18798828125	0.0	80	323969	12	93	110	0	1	74610.5719564	74610.5723688	80	74613.9108044	74613.9112662	40	74616.948398	74616.9489003	100	imm	74621.326529	nan	nan	nan	nan	nan
161.52685546875	0.0	40	330807	12	93	110	0	1	74610.5719564	74610.5723688	80	74613.9108044	74613.9112662	40	74616.948398	74616.9489003	100	imm	74621.326529	nan	nan	nan	nan	nan
164.564453125	0.0	100	337028	12	93	110	0	1	74610.5719564	74610.5723688	80	74613.9108044	74613.9112662	40	74616.948398	74616.9489003	100	imm	74621.326529	nan	nan	nan	nan	nan
171.63525390625	0.0	80	351509	13	100	250	0	0	74624.0197651	74624.0201834	80	74627.2537384	74627.2542606	40	74630.3876212	74630.3882347	100	del	74633.1090931	nan	nan	nan	nan	nan
174.86962890625	0.0	40	358133	13	100	250	0	0	74624.0197651	74624.0201834	80	74627.2537384	74627.2542606	40	74630.3876212	74630.3882347	100	del	74633.1090931	nan	nan	nan	nan	nan
178.00341796875	0.0	100	364551	13	100	250	0	0	74624.0197651	74624.0201834	80	74627.2537384	74627.2542606	40	74630.3876212	74630.3882347	100	del	74633.1090931	nan	nan	nan	nan	nan
183.60009765625	0.0	80	376013	14	90	60	1	0	74635.9845681	74635.9850461	80	74639.4207555	74639.4213741	40	74642.5752126	74642.5757271	100	del	74643.5007483	74644.0141527	74644.0146721	120.0	3.0	74646.0046364
187.0361328125	0.0	40	383050	14	90	60	1	0	74635.9845681	74635.9850461	80	74639.4207555	74639.4213741	40	74642.5752126	74642.5757271	100	del	74643.5007483	74644.0141527	74644.0146721	120.0	3.0	74646.0046364
190.1904296875	0.0	100	389510	14	90	60	1	0	74635.9845681	74635.9850461	80	74639.4207555	74639.4213741	40	74642.5752126	74642.5757271	100	del	74643.5007483	74644.0141527	74644.0146721	120.0	3.0	74646.0046364
191.62939453125	0.0	120	392457	14	90	60	1	0	74635.9845681	74635.9850461	80	74639.4207555	74639.4213741	40	74642.5752126	74642.5757271	100	del	74643.5007483	74644.0141527	74644.0146721	120.0	3.0	74646.0046364
196.0009765625	0.0	80	401410	15	100	8	1	1	74648.38616	74648.3866006	80	74651.4626	74651.4630971	40	74654.8948346	74654.895334	100	del	74656.5652223	74657.0783357	74657.0788279	120.0	2.0	74658.9490235
199.07763671875	0.0	40	407711	15	100	8	1	1	74648.38616	74648.3866006	80	74651.4626	74651.4630971	40	74654.8948346	74654.895334	100	del	74656.5652223	74657.0783357	74657.0788279	120.0	2.0	74658.9490235
202.509765625	0.0	100	414740	15	100	8	1	1	74648.38616	74648.3866006	80	74651.4626	74651.4630971	40	74654.8948346	74654.895334	100	del	74656.5652223	74657.0783357	74657.0788279	120.0	2.0	74658.9490235
204.693359375	0.0	120	419212	15	100	8	1	1	74648.38616	74648.3866006	80	74651.4626	74651.4630971	40	74654.8948346	74654.895334	100	del	74656.5652223	74657.0783357	74657.0788279	120.0	2.0	74658.9490235
208.6494140625	0.0	80	427314	16	60	600	1	1	74661.0346743	74661.035406	80	74664.3372594	74664.3377231	40	74667.5335956	74667.5340924	100	imm	74668.6691009	74669.179307	74669.179715	120.0	1.0	74670.7088888
211.95166015625	0.0	40	434077	16	60	600	1	1	74661.0346743	74661.035406	80	74664.3372594	74664.3377231	40	74667.5335956	74667.5340924	100	imm	74668.6691009	74669.179307	74669.179715	120.0	1.0	74670.7088888
215.14794921875	0.0	100	440623	16	60	600	1	1	74661.0346743	74661.035406	80	74664.3372594	74664.3377231	40	74667.5335956	74667.5340924	100	imm	74668.6691009	74669.179307	74669.179715	120.0	1.0	74670.7088888
216.7939453125	0.0	120	443994	16	60	600	1	1	74661.0346743	74661.035406	80	74664.3372594	74664.3377231	40	74667.5335956	74667.5340924	100	imm	74668.6691009	74669.179307	74669.179715	120.0	1.0	74670.7088888
220.74267578125	0.0	80	452081	17	53	600	1	1	74673.128376	74673.1287739	80	74676.3881484	74676.3886501	40	74679.6466097	74679.6471164	100	imm	74680.3813264	74680.8950727	74680.8955621	120.0	2.0	74682.1574139
224.00244140625	0.0	40	458757	17	53	600	1	1	74673.128376	74673.1287739	80	74676.3881484	74676.3886501	40	74679.6466097	74679.6471164	100	imm	74680.3813264	74680.8950727	74680.8955621	120.0	2.0	74682.1574139
227.2607421875	0.0	100	465430	17	53	600	1	1	74673.128376	74673.1287739	80	74676.3881484	74676.3886501	40	74679.6466097	74679.6471164	100	imm	74680.3813264	74680.8950727	74680.8955621	120.0	2.0	74682.1574139
228.50927734375	0.0	120	467987	17	53	600	1	1	74673.128376	74673.1287739	80	74676.3881484	74676.3886501	40	74679.6466097	74679.6471164	100	imm	74680.3813264	74680.8950727	74680.8955621	120.0	2.0	74682.1574139
232.22607421875	0.0	80	475599	18	77	770	0	0	74684.6119449	74684.6124472	80	74687.7960676	74687.7965418	40	74691.0355526	74691.036055	100	imm	74693.1009559	nan	nan	nan	nan	nan
235.41015625	0.0	40	482120	18	77	770	0	0	74684.6119449	74684.6124472	80	74687.7960676	74687.7965418	40	74691.0355526	74691.036055	100	imm	74693.1009559	nan	nan	nan	nan	nan
238.6494140625	0.0	100	488754	18	77	770	0	0	74684.6119449	74684.6124472	80	74687.7960676	74687.7965418	40	74691.0355526	74691.036055	100	imm	74693.1009559	nan	nan	nan	nan	nan
243.71435546875	0.0	80	499127	19	63	170	1	1	74696.100638	74696.10114	80	74699.1295601	74699.130129	40	74702.6291742	74702.6298291	100	imm	74704.469037	74704.9824554	74704.9829657	120.0	2.0	74706.9493162
246.7431640625	0.0	40	505330	19	63	170	1	1	74696.100638	74696.10114	80	74699.1295601	74699.130129	40	74702.6291742	74702.6298291	100	imm	74704.469037	74704.9824554	74704.9829657	120.0	2.0	74706.9493162
250.24267578125	0.0	100	512497	19	63	170	1	1	74696.100638	74696.10114	80	74699.1295601	74699.130129	40	74702.6291742	74702.6298291	100	imm	74704.469037	74704.9824554	74704.9829657	120.0	2.0	74706.9493162
252.595703125	0.0	120	517316	19	63	170	1	1	74696.100638	74696.10114	80	74699.1295601	74699.130129	40	74702.6291742	74702.6298291	100	imm	74704.469037	74704.9824554	74704.9829657	120.0	2.0	74706.9493162
256.6728515625	0.0	80	525666	20	50	600	1	0	74709.0596319	74709.0600898	80	74712.401096	74712.4016015	40	74715.7072175	74715.707716	100	imm	74716.9734904	74717.4869238	74717.4874419	120.0	3.0	74719.0135755
260.01416015625	0.0	40	532509	20	50	600	1	0	74709.0596319	74709.0600898	80	74712.401096	74712.4016015	40	74715.7072175	74715.707716	100	imm	74716.9734904	74717.4869238	74717.4874419	120.0	3.0	74719.0135755
263.3203125	0.0	100	539280	20	50	600	1	0	74709.0596319	74709.0600898	80	74712.401096	74712.4016015	40	74715.7072175	74715.707716	100	imm	74716.9734904	74717.4869238	74717.4874419	120.0	3.0	74719.0135755
265.10009765625	0.0	120	542925	20	50	600	1	0	74709.0596319	74709.0600898	80	74712.401096	74712.4016015	40	74715.7072175	74715.707716	100	imm	74716.9734904	74717.4869238	74717.4874419	120.0	3.0	74719.0135755
289.69091796875	0.0	80	593287	21	63	470	0	1	74742.0784239	74742.0789548	80	74745.266899	74745.2674076	40	74748.590299	74748.5908745	100	imm	74751.6293164	nan	nan	nan	nan	nan
292.87939453125	0.0	40	599817	21	63	470	0	1	74742.0784239	74742.0789548	80	74745.266899	74745.2674076	40	74748.590299	74748.5908745	100	imm	74751.6293164	nan	nan	nan	nan	nan
296.20263671875	0.0	100	606623	21	63	470	0	1	74742.0784239	74742.0789548	80	74745.266899	74745.2674076	40	74748.590299	74748.5908745	100	imm	74751.6293164	nan	nan	nan	nan	nan
302.1650390625	0.0	80	618834	22	93	600	1	0	74754.5528989	74754.5534151	80	74757.5703422	74757.5708108	40	74760.6260039	74760.6265107	100	imm	74762.093114	74762.6064041	74762.6069338	120.0	1.0	74764.9570103
305.18212890625	0.0	40	625013	22	93	600	1	0	74754.5528989	74754.5534151	80	74757.5703422	74757.5708108	40	74760.6260039	74760.6265107	100	imm	74762.093114	74762.6064041	74762.6069338	120.0	1.0	74764.9570103
308.23779296875	0.0	100	631271	22	93	600	1	0	74754.5528989	74754.5534151	80	74757.5703422	74757.5708108	40	74760.6260039	74760.6265107	100	imm	74762.093114	74762.6064041	74762.6069338	120.0	1.0	74764.9570103
310.21826171875	0.0	120	635327	22	93	600	1	0	74754.5528989	74754.5534151	80	74757.5703422	74757.5708108	40	74760.6260039	74760.6265107	100	imm	74762.093114	74762.6064041	74762.6069338	120.0	1.0	74764.9570103
315.072265625	0.0	80	645268	23	57	170	1	0	74767.4603175	74767.4608671	80	74770.7935749	74770.7940763	40	74773.9235091	74773.9240976	100	imm	74774.5664883	74775.0805643	74775.0811192	120.0	2.0	74777.2532172
318.4052734375	0.0	40	652094	23	57	170	1	0	74767.4603175	74767.4608671	80	74770.7935749	74770.7940763	40	74773.9235091	74773.9240976	100	imm	74774.5664883	74775.0805643	74775.0811192	120.0	2.0	74777.2532172
321.53515625	0.0	100	658504	23	57	170	1	0	74767.4603175	74767.4608671	80	74770.7935749	74770.7940763	40	74773.9235091	74773.9240976	100	imm	74774.5664883	74775.0805643	74775.0811192	120.0	2.0	74777.2532172
322.69189453125	0.0	120	660873	23	57	170	1	0	74767.4603175	74767.4608671	80	74770.7935749	74770.7940763	40	74773.9235091	74773.9240976	100	imm	74774.5664883	74775.0805643	74775.0811192	120.0	2.0	74777.2532172
327.0810546875	0.0	80	669862	24	73	30	0	0	74779.46987	74779.4703833	80	74782.5393236	74782.5398842	40	74785.686819	74785.6872984	100	del	74789.005017	nan	nan	nan	nan	nan
330.15087890625	0.0	40	676149	24	73	30	0	0	74779.46987	74779.4703833	80	74782.5393236	74782.5398842	40	74785.686819	74785.6872984	100	del	74789.005017	nan	nan	nan	nan	nan
333.2978515625	0.0	100	682594	24	73	30	0	0	74779.46987	74779.4703833	80	74782.5393236	74782.5398842	40	74785.686819	74785.6872984	100	del	74789.005017	nan	nan	nan	nan	nan
339.26220703125	0.0	80	694809	25	90	8	1	0	74791.6511126	74791.651619	80	74794.8254065	74794.8259145	40	74797.9145171	74797.9149793	100	del	74798.5892028	74799.1028206	74799.103416	120.0	1.0	74801.837828
342.4365234375	0.0	40	701310	25	90	8	1	0	74791.6511126	74791.651619	80	74794.8254065	74794.8259145	40	74797.9145171	74797.9149793	100	del	74798.5892028	74799.1028206	74799.103416	120.0	1.0	74801.837828
345.525390625	0.0	100	707636	25	90	8	1	0	74791.6511126	74791.651619	80	74794.8254065	74794.8259145	40	74797.9145171	74797.9149793	100	del	74798.5892028	74799.1028206	74799.103416	120.0	1.0	74801.837828
346.7138671875	0.0	120	710070	25	90	8	1	0	74791.6511126	74791.651619	80	74794.8254065	74794.8259145	40	74797.9145171	74797.9149793	100	del	74798.5892028	74799.1028206	74799.103416	120.0	1.0	74801.837828
351.63916015625	0.0	80	720157	26	97	365	1	0	74804.0286687	74804.0291525	80	74807.0970999	74807.0975126	40	74810.55293	74810.5534245	100	imm	74813.0934239	74813.6031672	74813.6035026	120.0	2.0	74814.1820784
354.70751953125	0.0	40	726441	26	97	365	1	0	74804.0286687	74804.0291525	80	74807.0970999	74807.0975126	40	74810.55293	74810.5534245	100	imm	74813.0934239	74813.6031672	74813.6035026	120.0	2.0	74814.1820784
358.16357421875	0.0	100	733519	26	97	365	1	0	74804.0286687	74804.0291525	80	74807.0970999	74807.0975126	40	74810.55293	74810.5534245	100	imm	74813.0934239	74813.6031672	74813.6035026	120.0	2.0	74814.1820784
361.21337890625	0.0	120	739765	26	97	365	1	0	74804.0286687	74804.0291525	80	74807.0970999	74807.0975126	40	74810.55293	74810.5534245	100	imm	74813.0934239	74813.6031672	74813.6035026	120.0	2.0	74814.1820784
363.85595703125	0.0	80	745177	27	67	770	0	0	74816.2457685	74816.2462666	80	74819.7190506	74819.7195469	40	74822.9316828	74822.9323244	100	imm	74824.8294125	nan	nan	nan	nan	nan
367.3291015625	0.0	40	752290	27	67	770	0	0	74816.2457685	74816.2462666	80	74819.7190506	74819.7195469	40	74822.9316828	74822.9323244	100	imm	74824.8294125	nan	nan	nan	nan	nan
370.5419921875	0.0	100	758870	27	67	770	0	0	74816.2457685	74816.2462666	80	74819.7190506	74819.7195469	40	74822.9316828	74822.9323244	100	imm	74824.8294125	nan	nan	nan	nan	nan
374.9814453125	0.0	80	767962	28	50	60	1	1	74827.3715518	74827.37198	80	74830.550859	74830.551377	40	74833.9330679	74833.9336223	100	imm	74835.9587911	74836.4725733	74836.4730928	120.0	1.0	74839.3569047
378.16064453125	0.0	40	774473	28	50	60	1	1	74827.3715518	74827.37198	80	74830.550859	74830.551377	40	74833.9330679	74833.9336223	100	imm	74835.9587911	74836.4725733	74836.4730928	120.0	1.0	74839.3569047
381.54296875	0.0	100	781400	28	50	60	1	1	74827.3715518	74827.37198	80	74830.550859	74830.551377	40	74833.9330679	74833.9336223	100	imm	74835.9587911	74836.4725733	74836.4730928	120.0	1.0	74839.3569047
384.08251953125	0.0	120	786601	28	50	60	1	1	74827.3715518	74827.37198	80	74830.550859	74830.551377	40	74833.9330679	74833.9336223	100	imm	74835.9587911	74836.4725733	74836.4730928	120.0	1.0	74839.3569047
389.3798828125	0.0	80	797450	29	60	170	1	1	74841.7703494	74841.7708409	80	74845.0507616	74845.0512887	40	74848.407439	74848.4079659	100	imm	74850.3413425	74850.8548064	74850.8553113	120.0	1.0	74855.9495409
392.66015625	0.0	40	804168	29	60	170	1	1	74841.7703494	74841.7708409	80	74845.0507616	74845.0512887	40	74848.407439	74848.4079659	100	imm	74850.3413425	74850.8548064	74850.8553113	120.0	1.0	74855.9495409
396.01708984375	0.0	100	811043	29	60	170	1	1	74841.7703494	74841.7708409	80	74845.0507616	74845.0512887	40	74848.407439	74848.4079659	100	imm	74850.3413425	74850.8548064	74850.8553113	120.0	1.0	74855.9495409
398.46435546875	0.0	120	816055	29	60	170	1	1	74841.7703494	74841.7708409	80	74845.0507616	74845.0512887	40	74848.407439	74848.4079659	100	imm	74850.3413425	74850.8548064	74850.8553113	120.0	1.0	74855.9495409
406.0234375	0.0	80	831536	30	50	770	0	0	74858.4140865	74858.4146113	80	74861.4493901	74861.4498081	40	74864.6146319	74864.6151572	100	imm	74867.7265849	nan	nan	nan	nan	nan
409.05859375	0.0	40	837752	30	50	770	0	0	74858.4140865	74858.4146113	80	74861.4493901	74861.4498081	40	74864.6146319	74864.6151572	100	imm	74867.7265849	nan	nan	nan	nan	nan
412.2236328125	0.0	100	844234	30	50	770	0	0	74858.4140865	74858.4146113	80	74861.4493901	74861.4498081	40	74864.6146319	74864.6151572	100	imm	74867.7265849	nan	nan	nan	nan	nan
417.876953125	0.0	80	855812	31	80	8	1	1	74870.2682085	74870.268681	80	74873.3738969	74873.3743379	40	74876.7477681	74876.7482765	100	imm	74877.8776071	74878.3887028	74878.3890811	120.0	1.0	74880.3428623
420.982421875	0.0	40	862172	31	80	8	1	1	74870.2682085	74870.268681	80	74873.3738969	74873.3743379	40	74876.7477681	74876.7482765	100	imm	74877.8776071	74878.3887028	74878.3890811	120.0	1.0	74880.3428623
424.3564453125	0.0	100	869082	31	80	8	1	1	74870.2682085	74870.268681	80	74873.3738969	74873.3743379	40	74876.7477681	74876.7482765	100	imm	74877.8776071	74878.3887028	74878.3890811	120.0	1.0	74880.3428623
425.9970703125	0.0	120	872442	31	80	8	1	1	74870.2682085	74870.268681	80	74873.3738969	74873.3743379	40	74876.7477681	74876.7482765	100	imm	74877.8776071	74878.3887028	74878.3890811	120.0	1.0	74880.3428623
430.32861328125	0.0	80	881313	32	57	600	1	1	74882.7199941	74882.7204724	80	74886.1664059	74886.1668783	40	74889.4705452	74889.4709984	100	imm	74892.0858571	74892.5995259	74892.600116	120.0	2.0	74893.0053065
433.77490234375	0.0	40	888371	32	57	600	1	1	74882.7199941	74882.7204724	80	74886.1664059	74886.1668783	40	74889.4705452	74889.4709984	100	imm	74892.0858571	74892.5995259	74892.600116	120.0	2.0	74893.0053065
437.07861328125	0.0	100	895137	32	57	600	1	1	74882.7199941	74882.7204724	80	74886.1664059	74886.1668783	40	74889.4705452	74889.4709984	100	imm	74892.0858571	74892.5995259	74892.600116	120.0	2.0	74893.0053065
440.2080078125	0.0	120	901546	32	57	600	1	1	74882.7199941	74882.7204724	80	74886.1664059	74886.1668783	40	74889.4705452	74889.4709984	100	imm	74892.0858571	74892.5995259	74892.600116	120.0	2.0	74893.0053065
442.666015625	0.0	80	906580	33	70	770	0	0	74895.0579228	74895.0584741	80	74898.5271953	74898.5276516	40	74901.9407414	74901.94138	100	imm	74902.5497038	nan	nan	nan	nan	nan
446.13525390625	0.0	40	913685	33	70	770	0	0	74895.0579228	74895.0584741	80	74898.5271953	74898.5276516	40	74901.9407414	74901.94138	100	imm	74902.5497038	nan	nan	nan	nan	nan
449.548828125	0.0	100	920676	33	70	770	0	0	74895.0579228	74895.0584741	80	74898.5271953	74898.5276516	40	74901.9407414	74901.94138	100	imm	74902.5497038	nan	nan	nan	nan	nan
452.81884765625	0.0	80	927373	34	63	365	1	0	74905.2109965	74905.2114723	80	74908.4916067	74908.492114	40	74911.9977307	74911.9982486	100	imm	74914.598602	74915.1123607	74915.1128412	120.0	1.0	74916.9897183
456.099609375	0.0	40	934092	34	63	365	1	0	74905.2109965	74905.2114723	80	74908.4916067	74908.492114	40	74911.9977307	74911.9982486	100	imm	74914.598602	74915.1123607	74915.1128412	120.0	1.0	74916.9897183
459.60546875	0.0	100	941272	34	63	365	1	0	74905.2109965	74905.2114723	80	74908.4916067	74908.492114	40	74911.9977307	74911.9982486	100	imm	74914.598602	74915.1123607	74915.1128412	120.0	1.0	74916.9897183
462.7197265625	0.0	120	947650	34	63	365	1	0	74905.2109965	74905.2114723	80	74908.4916067	74908.492114	40	74911.9977307	74911.9982486	100	imm	74914.598602	74915.1123607	74915.1128412	120.0	1.0	74916.9897183
466.9716796875	0.0	80	956358	35	57	250	0	1	74919.3641463	74919.3646631	80	74922.7920528	74922.7925721	40	74926.0233399	74926.0238922	100	imm	74930.3413788	nan	nan	nan	nan	nan
470.3994140625	0.0	40	963378	35	57	250	0	1	74919.3641463	74919.3646631	80	74922.7920528	74922.7925721	40	74926.0233399	74926.0238922	100	imm	74930.3413788	nan	nan	nan	nan	nan
473.630859375	0.0	100	969996	35	57	250	0	1	74919.3641463	74919.3646631	80	74922.7920528	74922.7925721	40	74926.0233399	74926.0238922	100	imm	74930.3413788	nan	nan	nan	nan	nan
480.7021484375	0.0	80	984478	36	97	8	1	0	74933.0950664	74933.0955491	80	74936.3829665	74936.3834355	40	74939.5305285	74939.5310233	100	del	74941.0778873	74941.5918891	74941.5923617	120.0	1.0	74943.1654397
483.98974609375	0.0	40	991211	36	97	8	1	0	74933.0950664	74933.0955491	80	74936.3829665	74936.3834355	40	74939.5305285	74939.5310233	100	del	74941.0778873	74941.5918891	74941.5923617	120.0	1.0	74943.1654397
487.1376953125	0.0	100	997658	36	97	8	1	0	74933.0950664	74933.0955491	80	74936.3829665	74936.3834355	40	74939.5305285	74939.5310233	100	del	74941.0778873	74941.5918891	74941.5923617	120.0	1.0	74943.1654397
489.19873046875	0.0	120	1001879	36	97	8	1	0	74933.0950664	74933.0955491	80	74936.3829665	74936.3834355	40	74939.5305285	74939.5310233	100	del	74941.0778873	74941.5918891	74941.5923617	120.0	1.0	74943.1654397
493.1630859375	0.0	80	1009998	37	67	30	0	0	74945.5562852	74945.5567511	80	74948.8157001	74948.8161301	40	74952.1536825	74952.1541962	100	del	74956.1899042	nan	nan	nan	nan	nan
496.42236328125	0.0	40	1016673	37	67	30	0	0	74945.5562852	74945.5567511	80	74948.8157001	74948.8161301	40	74952.1536825	74952.1541962	100	del	74956.1899042	nan	nan	nan	nan	nan
499.76025390625	0.0	100	1023509	37	67	30	0	0	74945.5562852	74945.5567511	80	74948.8157001	74948.8161301	40	74952.1536825	74952.1541962	100	del	74956.1899042	nan	nan	nan	nan	nan
506.4697265625	0.0	80	1037250	38	87	365	1	1	74958.8633588	74958.8638611	80	74961.9407407	74961.94118	40	74965.1915713	74965.1921094	100	imm	74966.2779235	74966.7914104	74966.7919163	120.0	1.0	74973.2377227
509.546875	0.0	40	1043552	38	87	365	1	1	74958.8633588	74958.8638611	80	74961.9407407	74961.94118	40	74965.1915713	74965.1921094	100	imm	74966.2779235	74966.7914104	74966.7919163	120.0	1.0	74973.2377227
512.7978515625	0.0	100	1050210	38	87	365	1	1	74958.8633588	74958.8638611	80	74961.9407407	74961.94118	40	74965.1915713	74965.1921094	100	imm	74966.2779235	74966.7914104	74966.7919163	120.0	1.0	74973.2377227
514.3974609375	0.0	120	1053486	38	87	365	1	1	74958.8633588	74958.8638611	80	74961.9407407	74961.94118	40	74965.1915713	74965.1921094	100	imm	74966.2779235	74966.7914104	74966.7919163	120.0	1.0	74973.2377227
523.04150390625	0.0	80	1071189	39	80	110	0	1	74975.4355541	74975.4362726	80	74978.8374711	74978.8379855	40	74982.2417648	74982.2421929	100	del	74983.8613302	nan	nan	nan	nan	nan
526.443359375	0.0	40	1078156	39	80	110	0	1	74975.4355541	74975.4362726	80	74978.8374711	74978.8379855	40	74982.2417648	74982.2421929	100	del	74983.8613302	nan	nan	nan	nan	nan
529.84765625	0.0	100	1085128	39	80	110	0	1	74975.4355541	74975.4362726	80	74978.8374711	74978.8379855	40	74982.2417648	74982.2421929	100	del	74983.8613302	nan	nan	nan	nan	nan
534.31982421875	0.0	80	1094287	40	93	470	0	1	74986.7140005	74986.7144696	80	74989.788261	74989.7887289	40	74992.8125473	74992.8131747	100	imm	74994.5413931	nan	nan	nan	nan	nan
537.3935546875	0.0	40	1100582	40	93	470	0	1	74986.7140005	74986.7144696	80	74989.788261	74989.7887289	40	74992.8125473	74992.8131747	100	imm	74994.5413931	nan	nan	nan	nan	nan
540.41796875	0.0	100	1106776	40	93	470	0	1	74986.7140005	74986.7144696	80	74989.788261	74989.7887289	40	74992.8125473	74992.8131747	100	imm	74994.5413931	nan	nan	nan	nan	nan
567.70703125	0.0	80	1162664	41	83	170	1	0	75020.102082	75020.1027163	80	75023.2612429	75023.2617848	40	75026.7410065	75026.7413776	100	imm	75028.7816996	75029.2913172	75029.2916787	120.0	1.0	75030.5174747
570.86572265625	0.0	40	1169133	41	83	170	1	0	75020.102082	75020.1027163	80	75023.2612429	75023.2617848	40	75026.7410065	75026.7413776	100	imm	75028.7816996	75029.2913172	75029.2916787	120.0	1.0	75030.5174747
574.345703125	0.0	100	1176260	41	83	170	1	0	75020.102082	75020.1027163	80	75023.2612429	75023.2617848	40	75026.7410065	75026.7413776	100	imm	75028.7816996	75029.2913172	75029.2916787	120.0	1.0	75030.5174747
576.8955078125	0.0	120	1181482	41	83	170	1	0	75020.102082	75020.1027163	80	75023.2612429	75023.2617848	40	75026.7410065	75026.7413776	100	imm	75028.7816996	75029.2913172	75029.2916787	120.0	1.0	75030.5174747
580.6279296875	0.0	80	1189126	42	77	110	0	1	75033.0237417	75033.0242061	80	75036.1772373	75036.1779398	40	75039.5916942	75039.5921719	100	del	75042.118465	nan	nan	nan	nan	nan
583.78173828125	0.0	40	1195585	42	77	110	0	1	75033.0237417	75033.0242061	80	75036.1772373	75036.1779398	40	75039.5916942	75039.5921719	100	del	75042.118465	nan	nan	nan	nan	nan
587.19580078125	0.0	100	1202577	42	77	110	0	1	75033.0237417	75033.0242061	80	75036.1772373	75036.1779398	40	75039.5916942	75039.5921719	100	del	75042.118465	nan	nan	nan	nan	nan
592.689453125	0.0	80	1213828	43	93	8	1	1	75045.0856278	75045.0861861	80	75048.3922945	75048.3928021	40	75051.8480087	75051.8485335	100	del	75053.6710669	75054.1815249	75054.1819257	120.0	2.0	75054.5577001
595.99609375	0.0	40	1220600	43	93	8	1	1	75045.0856278	75045.0861861	80	75048.3922945	75048.3928021	40	75051.8480087	75051.8485335	100	del	75053.6710669	75054.1815249	75054.1819257	120.0	2.0	75054.5577001
599.45166015625	0.0	100	1227677	43	93	8	1	1	75045.0856278	75045.0861861	80	75048.3922945	75048.3928021	40	75051.8480087	75051.8485335	100	del	75053.6710669	75054.1815249	75054.1819257	120.0	2.0	75054.5577001
601.78515625	0.0	120	1232456	43	93	8	1	1	75045.0856278	75045.0861861	80	75048.3922945	75048.3928021	40	75051.8480087	75051.8485335	100	del	75053.6710669	75054.1815249	75054.1819257	120.0	2.0	75054.5577001
604.64892578125	0.0	80	1238321	44	87	470	0	0	75057.0454469	75057.0459095	80	75060.3276776	75060.3281125	40	75063.7051443	75063.7057827	100	imm	75066.7427311	nan	nan	nan	nan	nan
607.93115234375	0.0	40	1245043	44	87	470	0	0	75057.0454469	75057.0459095	80	75060.3276776	75060.3281125	40	75063.7051443	75063.7057827	100	imm	75066.7427311	nan	nan	nan	nan	nan
611.30859375	0.0	100	1251960	44	87	470	0	0	75057.0454469	75057.0459095	80	75060.3276776	75060.3281125	40	75063.7051443	75063.7057827	100	imm	75066.7427311	nan	nan	nan	nan	nan
617.15283203125	0.0	80	1263929	45	77	60	1	1	75069.5494761	75069.5499712	80	75072.5714042	75072.5719986	40	75075.8088825	75075.809374	100	del	75078.534034	75079.0479839	75079.048489	120.0	2.0	75080.8213542
620.1748046875	0.0	40	1270118	45	77	60	1	1	75069.5494761	75069.5499712	80	75072.5714042	75072.5719986	40	75075.8088825	75075.809374	100	del	75078.534034	75079.0479839	75079.048489	120.0	2.0	75080.8213542
623.412109375	0.0	100	1276748	45	77	60	1	1	75069.5494761	75069.5499712	80	75072.5714042	75072.5719986	40	75075.8088825	75075.809374	100	del	75078.534034	75079.0479839	75079.048489	120.0	2.0	75080.8213542
626.65087890625	0.0	120	1283381	45	77	60	1	1	75069.5494761	75069.5499712	80	75072.5714042	75072.5719986	40	75075.8088825	75075.809374	100	del	75078.534034	75079.0479839	75079.048489	120.0	2.0	75080.8213542
630.763671875	0.0	80	1291804	46	83	250	0	1	75083.1609071	75083.1613676	80	75086.4290159	75086.4294642	40	75089.6286188	75089.6290813	100	imm	75094.1739996	nan	nan	nan	nan	nan
634.03173828125	0.0	40	1298497	46	83	250	0	1	75083.1609071	75083.1613676	80	75086.4290159	75086.4294642	40	75089.6286188	75089.6290813	100	imm	75094.1739996	nan	nan	nan	nan	nan
637.2314453125	0.0	100	1305050	46	83	250	0	1	75083.1609071	75083.1613676	80	75086.4290159	75086.4294642	40	75089.6286188	75089.6290813	100	imm	75094.1739996	nan	nan	nan	nan	nan
644.7646484375	0.0	80	1320478	47	67	365	1	1	75097.1621661	75097.162661	80	75100.5847245	75100.5855118	40	75104.0273945	75104.0278417	100	imm	75105.4055433	75105.9193525	75105.9198644	120.0	1.0	75107.8211916
648.18701171875	0.0	40	1327487	47	67	365	1	1	75097.1621661	75097.162661	80	75100.5847245	75100.5855118	40	75104.0273945	75104.0278417	100	imm	75105.4055433	75105.9193525	75105.9198644	120.0	1.0	75107.8211916
651.6298828125	0.0	100	1334538	47	67	365	1	1	75097.1621661	75097.162661	80	75100.5847245	75100.5855118	40	75104.0273945	75104.0278417	100	imm	75105.4055433	75105.9193525	75105.9198644	120.0	1.0	75107.8211916
653.521484375	0.0	120	1338412	47	67	365	1	1	75097.1621661	75097.162661	80	75100.5847245	75100.5855118	40	75104.0273945	75104.0278417	100	imm	75105.4055433	75105.9193525	75105.9198644	120.0	1.0	75107.8211916
657.6259765625	0.0	80	1346818	48	67	600	1	1	75110.0239077	75110.0244146	80	75113.328285	75113.3287715	40	75116.7783679	75116.7791953	100	del	75117.9094601	75118.4230819	75118.4235557	120.0	2.0	75119.3910357
660.93017578125	0.0	40	1353585	48	67	600	1	1	75110.0239077	75110.0244146	80	75113.328285	75113.3287715	40	75116.7783679	75116.7791953	100	del	75117.9094601	75118.4230819	75118.4235557	120.0	2.0	75119.3910357
664.38037109375	0.0	100	1360651	48	67	600	1	1	75110.0239077	75110.0244146	80	75113.328285	75113.3287715	40	75116.7783679	75116.7791953	100	del	75117.9094601	75118.4230819	75118.4235557	120.0	2.0	75119.3910357
666.02490234375	0.0	120	1364019	48	67	600	1	1	75110.0239077	75110.0244146	80	75113.328285	75113.3287715	40	75116.7783679	75116.7791953	100	del	75117.9094601	75118.4230819	75118.4235557	120.0	2.0	75119.3910357
669.47607421875	0.0	80	1371087	49	80	170	1	0	75121.8743619	75121.8748496	80	75125.2168835	75125.2173606	40	75128.333856	75128.3343817	100	imm	75129.3893767	75129.9029937	75129.903493	120.0	1.0	75130.9591692
672.81884765625	0.0	40	1377933	49	80	170	1	0	75121.8743619	75121.8748496	80	75125.2168835	75125.2173606	40	75128.333856	75128.3343817	100	imm	75129.3893767	75129.9029937	75129.903493	120.0	1.0	75130.9591692
675.935546875	0.0	100	1384316	49	80	170	1	0	75121.8743619	75121.8748496	80	75125.2168835	75125.2173606	40	75128.333856	75128.3343817	100	imm	75129.3893767	75129.9029937	75129.903493	120.0	1.0	75130.9591692
677.50439453125	0.0	120	1387529	49	80	170	1	0	75121.8743619	75121.8748496	80	75125.2168835	75125.2173606	40	75128.333856	75128.3343817	100	imm	75129.3893767	75129.9029937	75129.903493	120.0	1.0	75130.9591692
680.90380859375	0.0	80	1394491	50	70	600	1	0	75133.3024207	75133.3029248	80	75136.3461608	75136.3467341	40	75139.5628778	75139.5633433	100	imm	75144.6054677	75145.1192799	75145.1197784	120.0	1.0	75146.4616539
683.94775390625	0.0	40	1400725	50	70	600	1	0	75133.3024207	75133.3029248	80	75136.3461608	75136.3467341	40	75139.5628778	75139.5633433	100	imm	75144.6054677	75145.1192799	75145.1197784	120.0	1.0	75146.4616539
687.1640625	0.0	100	1407312	50	70	600	1	0	75133.3024207	75133.3029248	80	75136.3461608	75136.3467341	40	75139.5628778	75139.5633433	100	imm	75144.6054677	75145.1192799	75145.1197784	120.0	1.0	75146.4616539
692.720703125	0.0	120	1418692	50	70	600	1	0	75133.3024207	75133.3029248	80	75136.3461608	75136.3467341	40	75139.5628778	75139.5633433	100	imm	75144.6054677	75145.1192799	75145.1197784	120.0	1.0	75146.4616539
696.41259765625	0.0	80	1426253	51	57	365	1	1	75148.8111131	75148.8118026	80	75152.2855902	75152.2860454	40	75155.7043967	75155.7049068	100	na	75159.7178628	75160.2313459	75160.2318283	120.0	1.0	75161.6861425
699.88671875	0.0	40	1433368	51	57	365	1	1	75148.8111131	75148.8118026	80	75152.2855902	75152.2860454	40	75155.7043967	75155.7049068	100	na	75159.7178628	75160.2313459	75160.2318283	120.0	1.0	75161.6861425
703.30517578125	0.0	100	1440369	51	57	365	1	1	75148.8111131	75148.8118026	80	75152.2855902	75152.2860454	40	75155.7043967	75155.7049068	100	na	75159.7178628	75160.2313459	75160.2318283	120.0	1.0	75161.6861425
707.83203125	0.0	120	1449640	51	57	365	1	1	75148.8111131	75148.8118026	80	75152.2855902	75152.2860454	40	75155.7043967	75155.7049068	100	na	75159.7178628	75160.2313459	75160.2318283	120.0	1.0	75161.6861425
711.544921875	0.0	80	1457244	52	53	110	0	0	75163.9439977	75163.9446096	80	75167.3306096	75167.3310997	40	75170.5532774	75170.5537828	100	imm	75175.4778872	nan	nan	nan	nan	nan
714.93115234375	0.0	40	1464179	52	53	110	0	0	75163.9439977	75163.9446096	80	75167.3306096	75167.3310997	40	75170.5532774	75170.5537828	100	imm	75175.4778872	nan	nan	nan	nan	nan
718.15380859375	0.0	100	1470779	52	53	110	0	0	75163.9439977	75163.9446096	80	75167.3306096	75167.3310997	40	75170.5532774	75170.5537828	100	imm	75175.4778872	nan	nan	nan	nan	nan
726.08154296875	0.0	80	1487015	53	67	250	0	0	75178.4813997	75178.481861	80	75181.9828489	75181.9833599	40	75185.4285013	75185.4290465	100	imm	75186.2301477	nan	nan	nan	nan	nan
729.5830078125	0.0	40	1494186	53	67	250	0	0	75178.4813997	75178.481861	80	75181.9828489	75181.9833599	40	75185.4285013	75185.4290465	100	imm	75186.2301477	nan	nan	nan	nan	nan
733.02880859375	0.0	100	1501243	53	67	250	0	0	75178.4813997	75178.481861	80	75181.9828489	75181.9833599	40	75185.4285013	75185.4290465	100	imm	75186.2301477	nan	nan	nan	nan	nan
736.54296875	0.0	80	1508440	54	53	365	1	1	75188.9429742	75188.9434517	80	75192.1799595	75192.1804493	40	75195.3169091	75195.3174224	100	imm	75196.8701177	75197.3836489	75197.3841171	120.0	2.0	75199.3973436
739.77978515625	0.0	40	1515069	54	53	365	1	1	75188.9429742	75188.9434517	80	75192.1799595	75192.1804493	40	75195.3169091	75195.3174224	100	imm	75196.8701177	75197.3836489	75197.3841171	120.0	2.0	75199.3973436
742.91650390625	0.0	100	1521493	54	53	365	1	1	75188.9429742	75188.9434517	80	75192.1799595	75192.1804493	40	75195.3169091	75195.3174224	100	imm	75196.8701177	75197.3836489	75197.3841171	120.0	2.0	75199.3973436
744.9833984375	0.0	120	1525726	54	53	365	1	1	75188.9429742	75188.9434517	80	75192.1799595	75192.1804493	40	75195.3169091	75195.3174224	100	imm	75196.8701177	75197.3836489	75197.3841171	120.0	2.0	75199.3973436
749.4052734375	0.0	80	1534782	55	63	30	0	0	75201.8054413	75201.8059997	80	75205.2545372	75205.2552243	40	75208.7252172	75208.7257009	100	imm	75215.238032	nan	nan	nan	nan	nan
752.85400390625	0.0	40	1541845	55	63	30	0	0	75201.8054413	75201.8059997	80	75205.2545372	75205.2552243	40	75208.7252172	75208.7257009	100	imm	75215.238032	nan	nan	nan	nan	nan
756.32470703125	0.0	100	1548953	55	63	30	0	0	75201.8054413	75201.8059997	80	75205.2545372	75205.2552243	40	75208.7252172	75208.7257009	100	imm	75215.238032	nan	nan	nan	nan	nan
765.63330078125	0.0	80	1568017	56	83	8	1	1	75218.0343761	75218.0348339	80	75221.341952	75221.3424718	40	75224.430387	75224.4309017	100	del	75227.3978407	75227.9112403	75227.9117265	120.0	1.0	75228.541806
768.94091796875	0.0	40	1574791	56	83	8	1	1	75218.0343761	75218.0348339	80	75221.341952	75221.3424718	40	75224.430387	75224.4309017	100	del	75227.3978407	75227.9112403	75227.9117265	120.0	1.0	75228.541806
772.029296875	0.0	100	1581116	56	83	8	1	1	75218.0343761	75218.0348339	80	75221.341952	75221.3424718	40	75224.430387	75224.4309017	100	del	75227.3978407	75227.9112403	75227.9117265	120.0	1.0	75228.541806
775.51025390625	0.0	120	1588245	56	83	8	1	1	75218.0343761	75218.0348339	80	75221.341952	75221.3424718	40	75224.430387	75224.4309017	100	del	75227.3978407	75227.9112403	75227.9117265	120.0	1.0	75228.541806
778.60693359375	0.0	80	1594587	57	97	30	0	1	75231.0079647	75231.0084482	80	75234.2410368	75234.2415352	40	75237.3576814	75237.3581628	100	na	75242.4939585	nan	nan	nan	nan	nan
781.83984375	0.0	40	1601208	57	97	30	0	1	75231.0079647	75231.0084482	80	75234.2410368	75234.2415352	40	75237.3576814	75237.3581628	100	na	75242.4939585	nan	nan	nan	nan	nan
784.95654296875	0.0	100	1607591	57	97	30	0	1	75231.0079647	75231.0084482	80	75234.2410368	75234.2415352	40	75237.3576814	75237.3581628	100	na	75242.4939585	nan	nan	nan	nan	nan
793.060546875	0.0	80	1624188	58	80	470	0	1	75245.4620147	75245.4625002	80	75248.8511312	75248.8517784	40	75252.305907	75252.3063927	100	imm	75253.36592	nan	nan	nan	nan	nan
796.44970703125	0.0	40	1631129	58	80	470	0	1	75245.4620147	75245.4625002	80	75248.8511312	75248.8517784	40	75252.305907	75252.3063927	100	imm	75253.36592	nan	nan	nan	nan	nan
799.904296875	0.0	100	1638204	58	80	470	0	1	75245.4620147	75245.4625002	80	75248.8511312	75248.8517784	40	75252.305907	75252.3063927	100	imm	75253.36592	nan	nan	nan	nan	nan
803.625	0.0	80	1645824	59	70	60	1	1	75256.0267388	75256.0271522	80	75259.3715165	75259.3720275	40	75262.7141834	75262.7145431	100	del	75263.3578783	75263.8715392	75263.8720089	120.0	2.0	75264.975075
806.9697265625	0.0	40	1652674	59	70	60	1	1	75256.0267388	75256.0271522	80	75259.3715165	75259.3720275	40	75262.7141834	75262.7145431	100	del	75263.3578783	75263.8715392	75263.8720089	120.0	2.0	75264.975075
810.31201171875	0.0	100	1659519	59	70	60	1	1	75256.0267388	75256.0271522	80	75259.3715165	75259.3720275	40	75262.7141834	75262.7145431	100	del	75263.3578783	75263.8715392	75263.8720089	120.0	2.0	75264.975075
811.46923828125	0.0	120	1661889	59	70	60	1	1	75256.0267388	75256.0271522	80	75259.3715165	75259.3720275	40	75262.7141834	75262.7145431	100	del	75263.3578783	75263.8715392	75263.8720089	120.0	2.0	75264.975075
814.64990234375	0.0	80	1668403	60	57	110	0	1	75267.0521522	75267.052673	80	75270.2643502	75270.2649142	40	75273.4162544	75273.4168432	100	na	75274.1093539	nan	nan	nan	nan	nan
817.8623046875	0.0	40	1674982	60	57	110	0	1	75267.0521522	75267.052673	80	75270.2643502	75270.2649142	40	75273.4162544	75273.4168432	100	na	75274.1093539	nan	nan	nan	nan	nan
821.01416015625	0.0	100	1681437	60	57	110	0	1	75267.0521522	75267.052673	80	75270.2643502	75270.2649142	40	75273.4162544	75273.4168432	100	na	75274.1093539	nan	nan	nan	nan	nan
852.37939453125	0.0	80	1745673	61	73	8	1	0	75304.7824088	75304.7829068	80	75307.931711	75307.9322143	40	75311.3927488	75311.3932692	100	del	75312.5815008	75313.0957211	75313.096202	120.0	2.0	75314.5270185
855.5283203125	0.0	40	1752122	61	73	8	1	0	75304.7824088	75304.7829068	80	75307.931711	75307.9322143	40	75311.3927488	75311.3932692	100	del	75312.5815008	75313.0957211	75313.096202	120.0	2.0	75314.5270185
858.9892578125	0.0	100	1759210	61	73	8	1	0	75304.7824088	75304.7829068	80	75307.931711	75307.9322143	40	75311.3927488	75311.3932692	100	del	75312.5815008	75313.0957211	75313.096202	120.0	2.0	75314.5270185
860.6923828125	0.0	120	1762698	61	73	8	1	0	75304.7824088	75304.7829068	80	75307.931711	75307.9322143	40	75311.3927488	75311.3932692	100	del	75312.5815008	75313.0957211	75313.096202	120.0	2.0	75314.5270185
864.55029296875	0.0	80	1770599	62	93	770	0	1	75316.9536526	75316.9541956	80	75320.1566226	75320.1570461	40	75323.4191207	75323.4196175	100	imm	75324.7902378	nan	nan	nan	nan	nan
867.7529296875	0.0	40	1777158	62	93	770	0	1	75316.9536526	75316.9541956	80	75320.1566226	75320.1570461	40	75323.4191207	75323.4196175	100	imm	75324.7902378	nan	nan	nan	nan	nan
871.01513671875	0.0	100	1783839	62	93	770	0	1	75316.9536526	75316.9541956	80	75320.1566226	75320.1570461	40	75323.4191207	75323.4196175	100	imm	75324.7902378	nan	nan	nan	nan	nan
875.25146484375	0.0	80	1792515	63	80	600	1	1	75327.655502	75327.6559665	80	75331.0810424	75331.081481	40	75334.4018491	75334.4023378	100	imm	75335.6781906	75336.1914979	75336.1920192	120.0	2.0	75340.3974503
878.67724609375	0.0	40	1799531	63	80	600	1	1	75327.655502	75327.6559665	80	75331.0810424	75331.081481	40	75334.4018491	75334.4023378	100	imm	75335.6781906	75336.1914979	75336.1920192	120.0	2.0	75340.3974503
881.99755859375	0.0	100	1806331	63	80	600	1	1	75327.655502	75327.6559665	80	75331.0810424	75331.081481	40	75334.4018491	75334.4023378	100	imm	75335.6781906	75336.1914979	75336.1920192	120.0	2.0	75340.3974503
883.78759765625	0.0	120	1809997	63	80	600	1	1	75327.655502	75327.6559665	80	75331.0810424	75331.081481	40	75334.4018491	75334.4023378	100	imm	75335.6781906	75336.1914979	75336.1920192	120.0	2.0	75340.3974503
890.2978515625	0.0	80	1823330	64	70	170	1	1	75342.701992	75342.7024709	80	75345.8727525	75345.8731969	40	75349.1152821	75349.115777	100	imm	75350.1419797	75350.6553093	75350.6557693	120.0	3.0	75354.7023477
893.46826171875	0.0	40	1829823	64	70	170	1	1	75342.701992	75342.7024709	80	75345.8727525	75345.8731969	40	75349.1152821	75349.115777	100	imm	75350.1419797	75350.6553093	75350.6557693	120.0	3.0	75354.7023477
896.7109375	0.0	100	1836464	64	70	170	1	1	75342.701992	75342.7024709	80	75345.8727525	75345.8731969	40	75349.1152821	75349.115777	100	imm	75350.1419797	75350.6553093	75350.6557693	120.0	3.0	75354.7023477
898.2509765625	0.0	120	1839618	64	70	170	1	1	75342.701992	75342.7024709	80	75345.8727525	75345.8731969	40	75349.1152821	75349.115777	100	imm	75350.1419797	75350.6553093	75350.6557693	120.0	3.0	75354.7023477
904.67236328125	0.0	80	1852769	65	90	170	1	0	75357.0770021	75357.0775135	80	75360.5267607	75360.5272533	40	75363.900721	75363.9011953	100	na	75365.7743047	75366.2873691	75366.2878573	120.0	1.0	75367.5673988
908.1220703125	0.0	40	1859834	65	90	170	1	0	75357.0770021	75357.0775135	80	75360.5267607	75360.5272533	40	75363.900721	75363.9011953	100	na	75365.7743047	75366.2873691	75366.2878573	120.0	1.0	75367.5673988
911.49560546875	0.0	100	1866743	65	90	170	1	0	75357.0770021	75357.0775135	80	75360.5267607	75360.5272533	40	75363.900721	75363.9011953	100	na	75365.7743047	75366.2873691	75366.2878573	120.0	1.0	75367.5673988
913.88232421875	0.0	120	1871631	65	90	170	1	0	75357.0770021	75357.0775135	80	75360.5267607	75360.5272533	40	75363.900721	75363.9011953	100	na	75365.7743047	75366.2873691	75366.2878573	120.0	1.0	75367.5673988
917.18798828125	0.0	80	1878401	66	60	470	0	0	75369.5930925	75369.5935218	80	75372.9386079	75372.939084	40	75376.1718248	75376.1723534	100	imm	75377.0776646	nan	nan	nan	nan	nan
920.53369140625	0.0	40	1885253	66	60	470	0	0	75369.5930925	75369.5935218	80	75372.9386079	75372.939084	40	75376.1718248	75376.1723534	100	imm	75377.0776646	nan	nan	nan	nan	nan
923.7666015625	0.0	100	1891874	66	60	470	0	0	75369.5930925	75369.5935218	80	75372.9386079	75372.939084	40	75376.1718248	75376.1723534	100	imm	75377.0776646	nan	nan	nan	nan	nan
927.40966796875	0.0	80	1899335	67	77	30	0	0	75379.8147826	75379.8154584	80	75382.881479	75382.881987	40	75386.3033655	75386.3039847	100	del	75389.1992488	nan	nan	nan	nan	nan
930.47607421875	0.0	40	1905615	67	77	30	0	0	75379.8147826	75379.8154584	80	75382.881479	75382.881987	40	75386.3033655	75386.3039847	100	del	75389.1992488	nan	nan	nan	nan	nan
933.89794921875	0.0	100	1912623	67	77	30	0	0	75379.8147826	75379.8154584	80	75382.881479	75382.881987	40	75386.3033655	75386.3039847	100	del	75389.1992488	nan	nan	nan	nan	nan
939.4736328125	0.0	80	1924042	68	83	770	0	1	75391.8792599	75391.8797579	80	75395.0102674	75395.0107501	40	75398.194542	75398.1950212	100	imm	75399.8538978	nan	nan	nan	nan	nan
942.6044921875	0.0	40	1930454	68	83	770	0	1	75391.8792599	75391.8797579	80	75395.0102674	75395.0107501	40	75398.194542	75398.1950212	100	imm	75399.8538978	nan	nan	nan	nan	nan
945.78857421875	0.0	100	1936975	68	83	770	0	1	75391.8792599	75391.8797579	80	75395.0102674	75395.0107501	40	75398.194542	75398.1950212	100	imm	75399.8538978	nan	nan	nan	nan	nan
950.154296875	0.0	80	1945916	69	57	30	0	1	75402.5601153	75402.5605739	80	75405.8409234	75405.8413918	40	75409.1357562	75409.136288	100	del	75411.1896618	nan	nan	nan	nan	nan
953.43505859375	0.0	40	1952635	69	57	30	0	1	75402.5601153	75402.5605739	80	75405.8409234	75405.8413918	40	75409.1357562	75409.136288	100	del	75411.1896618	nan	nan	nan	nan	nan
956.7294921875	0.0	100	1959382	69	57	30	0	1	75402.5601153	75402.5605739	80	75405.8409234	75405.8413918	40	75409.1357562	75409.136288	100	del	75411.1896618	nan	nan	nan	nan	nan
961.4990234375	0.0	80	1969150	70	80	60	1	1	75413.9055556	75413.9060222	80	75417.1122435	75417.1127424	40	75420.3845125	75420.3850131	100	del	75422.4702995	75422.9836692	75422.9842332	120.0	2.0	75425.1656938
964.7060546875	0.0	40	1975718	70	80	60	1	1	75413.9055556	75413.9060222	80	75417.1122435	75417.1127424	40	75420.3845125	75420.3850131	100	del	75422.4702995	75422.9836692	75422.9842332	120.0	2.0	75425.1656938
967.97802734375	0.0	100	1982419	70	80	60	1	1	75413.9055556	75413.9060222	80	75417.1122435	75417.1127424	40	75420.3845125	75420.3850131	100	del	75422.4702995	75422.9836692	75422.9842332	120.0	2.0	75425.1656938
970.5771484375	0.0	120	1987742	70	80	60	1	1	75413.9055556	75413.9060222	80	75417.1122435	75417.1127424	40	75420.3845125	75420.3850131	100	del	75422.4702995	75422.9836692	75422.9842332	120.0	2.0	75425.1656938
975.10302734375	0.0	80	1997011	71	60	365	1	0	75427.5097147	75427.510188	80	75430.993466	75430.9939725	40	75434.3682853	75434.3688177	100	na	75439.9741134	75440.4843656	75440.4847514	120.0	1.0	75441.7019607
978.5869140625	0.0	40	2004146	71	60	365	1	0	75427.5097147	75427.510188	80	75430.993466	75430.9939725	40	75434.3682853	75434.3688177	100	na	75439.9741134	75440.4843656	75440.4847514	120.0	1.0	75441.7019607
981.96142578125	0.0	100	2011057	71	60	365	1	0	75427.5097147	75427.510188	80	75430.993466	75430.9939725	40	75434.3682853	75434.3688177	100	na	75439.9741134	75440.4843656	75440.4847514	120.0	1.0	75441.7019607
988.0771484375	0.0	120	2023582	71	60	365	1	0	75427.5097147	75427.510188	80	75430.993466	75430.9939725	40	75434.3682853	75434.3688177	100	na	75439.9741134	75440.4843656	75440.4847514	120.0	1.0	75441.7019607
991.51123046875	0.0	80	2030615	72	90	470	0	0	75443.9185762	75443.9190208	80	75447.3421953	75447.3426895	40	75450.4235144	75450.4239887	100	imm	75453.0951145	nan	nan	nan	nan	nan
994.93505859375	0.0	40	2037627	72	90	470	0	0	75443.9185762	75443.9190208	80	75447.3421953	75447.3426895	40	75450.4235144	75450.4239887	100	imm	75453.0951145	nan	nan	nan	nan	nan
998.01611328125	0.0	100	2043937	72	90	470	0	0	75443.9185762	75443.9190208	80	75447.3421953	75447.3426895	40	75450.4235144	75450.4239887	100	imm	75453.0951145	nan	nan	nan	nan	nan
1003.23486328125	0.0	80	2054625	73	90	600	1	0	75455.6422764	75455.6428563	80	75458.6919112	75458.6922177	40	75461.78054	75461.7807845	100	imm	75463.022405	75463.5298579	75463.5301132	120.0	1.0	75465.1340462
1006.2841796875	0.0	40	2060870	73	90	600	1	0	75455.6422764	75455.6428563	80	75458.6919112	75458.6922177	40	75461.78054	75461.7807845	100	imm	75463.022405	75463.5298579	75463.5301132	120.0	1.0	75465.1340462
1009.37255859375	0.0	100	2067195	73	90	600	1	0	75455.6422764	75455.6428563	80	75458.6919112	75458.6922177	40	75461.78054	75461.7807845	100	imm	75463.022405	75463.5298579	75463.5301132	120.0	1.0	75465.1340462
1011.1220703125	0.0	120	2070778	73	90	600	1	0	75455.6422764	75455.6428563	80	75458.6919112	75458.6922177	40	75461.78054	75461.7807845	100	imm	75463.022405	75463.5298579	75463.5301132	120.0	1.0	75465.1340462
1014.904296875	0.0	80	2078524	74	53	770	0	0	75467.3119563	75467.3124272	80	75470.4704449	75470.4709187	40	75473.4889351	75473.4894167	100	imm	75474.3818741	nan	nan	nan	nan	nan
1018.0625	0.0	40	2084992	74	53	770	0	0	75467.3119563	75467.3124272	80	75470.4704449	75470.4709187	40	75473.4889351	75473.4894167	100	imm	75474.3818741	nan	nan	nan	nan	nan
1021.0810546875	0.0	100	2091174	74	53	770	0	0	75467.3119563	75467.3124272	80	75470.4704449	75470.4709187	40	75473.4889351	75473.4894167	100	imm	75474.3818741	nan	nan	nan	nan	nan
1024.76171875	0.0	80	2098712	75	83	600	1	0	75477.1699246	75477.1703957	80	75480.226267	75480.2267877	40	75483.313468	75483.3139458	100	imm	75483.9020591	75484.4136169	75484.4140245	120.0	2.0	75487.6379944
1027.818359375	0.0	40	2104972	75	83	600	1	0	75477.1699246	75477.1703957	80	75480.226267	75480.2267877	40	75483.313468	75483.3139458	100	imm	75483.9020591	75484.4136169	75484.4140245	120.0	2.0	75487.6379944
1030.9052734375	0.0	100	2111294	75	83	600	1	0	75477.1699246	75477.1703957	80	75480.226267	75480.2267877	40	75483.313468	75483.3139458	100	imm	75483.9020591	75484.4136169	75484.4140245	120.0	2.0	75487.6379944
1032.00537109375	0.0	120	2113547	75	83	600	1	0	75477.1699246	75477.1703957	80	75480.226267	75480.2267877	40	75483.313468	75483.3139458	100	imm	75483.9020591	75484.4136169	75484.4140245	120.0	2.0	75487.6379944
1037.56103515625	0.0	80	2124925	76	53	8	1	1	75489.9695849	75489.9700659	80	75493.4082204	75493.4087396	40	75496.9088512	75496.909367	100	del	75499.9746948	75500.4879503	75500.488427	120.0	2.0	75502.4300595
1040.99951171875	0.0	40	2131967	76	53	8	1	1	75489.9695849	75489.9700659	80	75493.4082204	75493.4087396	40	75496.9088512	75496.909367	100	del	75499.9746948	75500.4879503	75500.488427	120.0	2.0	75502.4300595
1044.50048828125	0.0	100	2139137	76	53	8	1	1	75489.9695849	75489.9700659	80	75493.4082204	75493.4087396	40	75496.9088512	75496.909367	100	del	75499.9746948	75500.4879503	75500.488427	120.0	2.0	75502.4300595
1048.0791015625	0.0	120	2146466	76	53	8	1	1	75489.9695849	75489.9700659	80	75493.4082204	75493.4087396	40	75496.9088512	75496.909367	100	del	75499.9746948	75500.4879503	75500.488427	120.0	2.0	75502.4300595
1052.32275390625	0.0	80	2155157	77	73	600	1	1	75504.7316074	75504.7321064	80	75508.2376547	75508.2382419	40	75511.528004	75511.5285099	100	imm	75514.4701786	75514.9804283	75514.9807657	120.0	3.0	75515.422161
1055.82861328125	0.0	40	2162337	77	73	600	1	1	75504.7316074	75504.7321064	80	75508.2376547	75508.2382419	40	75511.528004	75511.5285099	100	imm	75514.4701786	75514.9804283	75514.9807657	120.0	3.0	75515.422161
1059.119140625	0.0	100	2169076	77	73	600	1	1	75504.7316074	75504.7321064	80	75508.2376547	75508.2382419	40	75511.528004	75511.5285099	100	imm	75514.4701786	75514.9804283	75514.9807657	120.0	3.0	75515.422161
1062.5712890625	0.0	120	2176146	77	73	600	1	1	75504.7316074	75504.7321064	80	75508.2376547	75508.2382419	40	75511.528004	75511.5285099	100	imm	75514.4701786	75514.9804283	75514.9807657	120.0	3.0	75515.422161
1065.28662109375	0.0	80	2181707	78	100	170	1	0	75517.695811	75517.696279	80	75520.8679137	75520.868308	40	75524.0962985	75524.0967941	100	imm	75526.3823297	75526.8957587	75526.8962094	120.0	1.0	75529.42994
1068.45849609375	0.0	40	2188203	78	100	170	1	0	75517.695811	75517.696279	80	75520.8679137	75520.868308	40	75524.0962985	75524.0967941	100	imm	75526.3823297	75526.8957587	75526.8962094	120.0	1.0	75529.42994
1071.68701171875	0.0	100	2194815	78	100	170	1	0	75517.695811	75517.696279	80	75520.8679137	75520.868308	40	75524.0962985	75524.0967941	100	imm	75526.3823297	75526.8957587	75526.8962094	120.0	1.0	75529.42994
1074.486328125	0.0	120	2200548	78	100	170	1	0	75517.695811	75517.696279	80	75520.8679137	75520.868308	40	75524.0962985	75524.0967941	100	imm	75526.3823297	75526.8957587	75526.8962094	120.0	1.0	75529.42994
1079.2822265625	0.0	80	2210370	79	87	250	0	0	75531.691777	75531.6922802	80	75534.7358068	75534.7363283	40	75538.1938738	75538.1943293	100	imm	75539.2856224	nan	nan	nan	nan	nan
1082.326171875	0.0	40	2216604	79	87	250	0	0	75531.691777	75531.6922802	80	75534.7358068	75534.7363283	40	75538.1938738	75538.1943293	100	imm	75539.2856224	nan	nan	nan	nan	nan
1085.7841796875	0.0	100	2223686	79	87	250	0	0	75531.691777	75531.6922802	80	75534.7358068	75534.7363283	40	75538.1938738	75538.1943293	100	imm	75539.2856224	nan	nan	nan	nan	nan
1089.42626953125	0.0	80	2231145	80	73	110	0	1	75541.836121	75541.8366262	80	75545.0622762	75545.0628089	40	75548.4889049	75548.4893855	100	del	75549.5180756	nan	nan	nan	nan	nan
1092.65234375	0.0	40	2237752	80	73	110	0	1	75541.836121	75541.8366262	80	75545.0622762	75545.0628089	40	75548.4889049	75548.4893855	100	del	75549.5180756	nan	nan	nan	nan	nan
1096.0791015625	0.0	100	2244770	80	73	110	0	1	75541.836121	75541.8366262	80	75545.0622762	75545.0628089	40	75548.4889049	75548.4893855	100	del	75549.5180756	nan	nan	nan	nan	nan
1126.30712890625	0.0	80	2306677	81	50	170	1	0	75578.7182348	75578.7187142	80	75582.0334617	75582.033971	40	75585.4557816	75585.4562685	100	imm	75586.158368	75586.6720792	75586.6726118	120.0	2.0	75588.13389
1129.62255859375	0.0	40	2313467	81	50	170	1	0	75578.7182348	75578.7187142	80	75582.0334617	75582.033971	40	75585.4557816	75585.4562685	100	imm	75586.158368	75586.6720792	75586.6726118	120.0	2.0	75588.13389
1133.044921875	0.0	100	2320476	81	50	170	1	0	75578.7182348	75578.7187142	80	75582.0334617	75582.033971	40	75585.4557816	75585.4562685	100	imm	75586.158368	75586.6720792	75586.6726118	120.0	2.0	75588.13389
1134.26123046875	0.0	120	2322967	81	50	170	1	0	75578.7182348	75578.7187142	80	75582.0334617	75582.033971	40	75585.4557816	75585.4562685	100	imm	75586.158368	75586.6720792	75586.6726118	120.0	2.0	75588.13389
1138.18115234375	0.0	80	2330995	82	87	110	0	1	75590.592573	75590.5930695	80	75594.0664439	75594.0670173	40	75597.1747594	75597.1752382	100	del	75598.7419796	nan	nan	nan	nan	nan
1141.6552734375	0.0	40	2338110	82	87	110	0	1	75590.592573	75590.5930695	80	75594.0664439	75594.0670173	40	75597.1747594	75597.1752382	100	del	75598.7419796	nan	nan	nan	nan	nan
1144.76318359375	0.0	100	2344475	82	87	110	0	1	75590.592573	75590.5930695	80	75594.0664439	75594.0670173	40	75597.1747594	75597.1752382	100	del	75598.7419796	nan	nan	nan	nan	nan
1148.97705078125	0.0	80	2353105	83	97	170	1	1	75601.3887846	75601.389278	80	75604.8455104	75604.8459961	40	75608.1552148	75608.1557225	100	imm	75609.4786832	75609.9915947	75609.9920714	120.0	2.0	75612.2705855
1152.43408203125	0.0	40	2360185	83	97	170	1	1	75601.3887846	75601.389278	80	75604.8455104	75604.8459961	40	75608.1552148	75608.1557225	100	imm	75609.4786832	75609.9915947	75609.9920714	120.0	2.0	75612.2705855
1155.74365234375	0.0	100	2366963	83	97	170	1	1	75601.3887846	75601.389278	80	75604.8455104	75604.8459961	40	75608.1552148	75608.1557225	100	imm	75609.4786832	75609.9915947	75609.9920714	120.0	2.0	75612.2705855
1157.580078125	0.0	120	2370724	83	97	170	1	1	75601.3887846	75601.389278	80	75604.8455104	75604.8459961	40	75608.1552148	75608.1557225	100	imm	75609.4786832	75609.9915947	75609.9920714	120.0	2.0	75612.2705855
1162.12646484375	0.0	80	2380035	84	63	600	1	1	75614.5383898	75614.5388635	80	75617.8525224	75617.8530071	40	75621.2752077	75621.2758544	100	imm	75623.333883	75623.8478478	75623.8483462	120.0	3.0	75627.0061842
1165.4404296875	0.0	40	2386822	84	63	600	1	1	75614.5383898	75614.5388635	80	75617.8525224	75617.8530071	40	75621.2752077	75621.2758544	100	imm	75623.333883	75623.8478478	75623.8483462	120.0	3.0	75627.0061842
1168.86328125	0.0	100	2393832	84	63	600	1	1	75614.5383898	75614.5388635	80	75617.8525224	75617.8530071	40	75621.2752077	75621.2758544	100	imm	75623.333883	75623.8478478	75623.8483462	120.0	3.0	75627.0061842
1171.435546875	0.0	120	2399100	84	63	600	1	1	75614.5383898	75614.5388635	80	75617.8525224	75617.8530071	40	75621.2752077	75621.2758544	100	imm	75623.333883	75623.8478478	75623.8483462	120.0	3.0	75627.0061842
1176.8759765625	0.0	80	2410242	85	87	30	0	1	75629.2881902	75629.2887261	80	75632.39713	75632.3975515	40	75635.6373799	75635.637918	100	del	75636.9825555	nan	nan	nan	nan	nan
1179.98486328125	0.0	40	2416609	85	87	30	0	1	75629.2881902	75629.2887261	80	75632.39713	75632.3975515	40	75635.6373799	75635.637918	100	del	75636.9825555	nan	nan	nan	nan	nan
1183.22509765625	0.0	100	2423245	85	87	30	0	1	75629.2881902	75629.2887261	80	75632.39713	75632.3975515	40	75635.6373799	75635.637918	100	del	75636.9825555	nan	nan	nan	nan	nan
1187.302734375	0.0	80	2431596	86	73	60	1	1	75639.7155032	75639.7160077	80	75643.2080038	75643.2084393	40	75646.5314596	75646.5320114	100	del	75649.2307485	75649.7449538	75649.7454336	120.0	2.0	75651.390097
1190.79541015625	0.0	40	2438749	86	73	60	1	1	75639.7155032	75639.7160077	80	75643.2080038	75643.2084393	40	75646.5314596	75646.5320114	100	del	75649.2307485	75649.7449538	75649.7454336	120.0	2.0	75651.390097
1194.11865234375	0.0	100	2445555	86	73	60	1	1	75639.7155032	75639.7160077	80	75643.2080038	75643.2084393	40	75646.5314596	75646.5320114	100	del	75649.2307485	75649.7449538	75649.7454336	120.0	2.0	75651.390097
1197.33203125	0.0	120	2452136	86	73	60	1	1	75639.7155032	75639.7160077	80	75643.2080038	75643.2084393	40	75646.5314596	75646.5320114	100	del	75649.2307485	75649.7449538	75649.7454336	120.0	2.0	75651.390097
1201.33984375	0.0	80	2460344	87	93	250	0	1	75653.7529713	75653.7535545	80	75657.1222384	75657.1228215	40	75660.3092906	75660.309796	100	imm	75661.4226089	nan	nan	nan	nan	nan
1204.70947265625	0.0	40	2467245	87	93	250	0	1	75653.7529713	75653.7535545	80	75657.1222384	75657.1228215	40	75660.3092906	75660.309796	100	imm	75661.4226089	nan	nan	nan	nan	nan
1207.89599609375	0.0	100	2473771	87	93	250	0	1	75653.7529713	75653.7535545	80	75657.1222384	75657.1228215	40	75660.3092906	75660.309796	100	imm	75661.4226089	nan	nan	nan	nan	nan
1211.78515625	0.0	80	2481736	88	97	250	0	1	75664.1986198	75664.1991557	80	75667.484571	75667.4850328	40	75670.5778246	75670.5783412	100	imm	75672.1180193	nan	nan	nan	nan	nan
1215.0712890625	0.0	40	2488466	88	97	250	0	1	75664.1986198	75664.1991557	80	75667.484571	75667.4850328	40	75670.5778246	75670.5783412	100	imm	75672.1180193	nan	nan	nan	nan	nan
1218.16455078125	0.0	100	2494801	88	97	250	0	1	75664.1986198	75664.1991557	80	75667.484571	75667.4850328	40	75670.5778246	75670.5783412	100	imm	75672.1180193	nan	nan	nan	nan	nan
1222.50390625	0.0	80	2503688	89	90	250	0	1	75674.9173824	75674.917933	80	75678.273205	75678.2737124	40	75681.4994045	75681.4999098	100	imm	75684.1099906	nan	nan	nan	nan	nan
1225.859375	0.0	40	2510560	89	90	250	0	1	75674.9173824	75674.917933	80	75678.273205	75678.2737124	40	75681.4994045	75681.4999098	100	imm	75684.1099906	nan	nan	nan	nan	nan
1229.08544921875	0.0	100	2517167	89	90	250	0	1	75674.9173824	75674.917933	80	75678.273205	75678.2737124	40	75681.4994045	75681.4999098	100	imm	75684.1099906	nan	nan	nan	nan	nan
1234.6318359375	0.0	80	2528526	90	70	30	0	1	75687.045716	75687.0461871	80	75690.4195648	75690.420037	40	75693.6126089	75693.6130851	100	del	75695.1579292	nan	nan	nan	nan	nan
1238.00537109375	0.0	40	2535435	90	70	30	0	1	75687.045716	75687.0461871	80	75690.4195648	75690.420037	40	75693.6126089	75693.6130851	100	del	75695.1579292	nan	nan	nan	nan	nan
1241.19873046875	0.0	100	2541975	90	70	30	0	1	75687.045716	75687.0461871	80	75690.4195648	75690.420037	40	75693.6126089	75693.6130851	100	del	75695.1579292	nan	nan	nan	nan	nan
1245.4892578125	0.0	80	2550762	91	63	250	0	0	75697.9036131	75697.9040387	80	75701.1045097	75701.1049693	40	75704.5057312	75704.506219	100	na	75707.5584316	nan	nan	nan	nan	nan
1248.6904296875	0.0	40	2557318	91	63	250	0	0	75697.9036131	75697.9040387	80	75701.1045097	75701.1049693	40	75704.5057312	75704.506219	100	na	75707.5584316	nan	nan	nan	nan	nan
1252.09130859375	0.0	100	2564283	91	63	250	0	0	75697.9036131	75697.9040387	80	75701.1045097	75701.1049693	40	75704.5057312	75704.506219	100	na	75707.5584316	nan	nan	nan	nan	nan
1258.02880859375	0.0	80	2576443	92	70	110	0	0	75710.4433628	75710.4437915	80	75713.6664894	75713.6669963	40	75717.0278997	75717.0284103	100	imm	75719.0227422	nan	nan	nan	nan	nan
1261.251953125	0.0	40	2583044	92	70	110	0	0	75710.4433628	75710.4437915	80	75713.6664894	75713.6669963	40	75717.0278997	75717.0284103	100	imm	75719.0227422	nan	nan	nan	nan	nan
1264.61328125	0.0	100	2589928	92	70	110	0	0	75710.4433628	75710.4437915	80	75713.6664894	75713.6669963	40	75717.0278997	75717.0284103	100	imm	75719.0227422	nan	nan	nan	nan	nan
1269.59814453125	0.0	80	2600137	93	100	770	0	0	75722.0130674	75722.0135448	80	75725.4134192	75725.4138384	40	75728.7790648	75728.7800339	100	imm	75730.3501288	nan	nan	nan	nan	nan
1272.99853515625	0.0	40	2607101	93	100	770	0	0	75722.0130674	75722.0135448	80	75725.4134192	75725.4138384	40	75728.7790648	75728.7800339	100	imm	75730.3501288	nan	nan	nan	nan	nan
1276.36376953125	0.0	100	2613993	93	100	770	0	0	75722.0130674	75722.0135448	80	75725.4134192	75725.4138384	40	75728.7790648	75728.7800339	100	imm	75730.3501288	nan	nan	nan	nan	nan
1280.5087890625	0.0	80	2622482	94	93	365	1	0	75732.923853	75732.924378	80	75736.1265501	75736.1270416	40	75739.4381052	75739.4386358	100	na	75741.3026672	75741.814176	75741.8145835	120.0	1.0	75743.055483
1283.71142578125	0.0	40	2629041	94	93	365	1	0	75732.923853	75732.924378	80	75736.1265501	75736.1270416	40	75739.4381052	75739.4386358	100	na	75741.3026672	75741.814176	75741.8145835	120.0	1.0	75743.055483
1287.02294921875	0.0	100	2635823	94	93	365	1	0	75732.923853	75732.924378	80	75736.1265501	75736.1270416	40	75739.4381052	75739.4386358	100	na	75741.3026672	75741.814176	75741.8145835	120.0	1.0	75743.055483
1289.39892578125	0.0	120	2640689	94	93	365	1	0	75732.923853	75732.924378	80	75736.1265501	75736.1270416	40	75739.4381052	75739.4386358	100	na	75741.3026672	75741.814176	75741.8145835	120.0	1.0	75743.055483
1292.8857421875	0.0	80	2647830	95	53	250	0	0	75745.3013405	75745.3018674	80	75748.3352153	75748.3357017	40	75751.4631332	75751.4636512	100	imm	75752.5261237	nan	nan	nan	nan	nan
1295.91943359375	0.0	40	2654043	95	53	250	0	0	75745.3013405	75745.3018674	80	75748.3352153	75748.3357017	40	75751.4631332	75751.4636512	100	imm	75752.5261237	nan	nan	nan	nan	nan
1299.04736328125	0.0	100	2660449	95	53	250	0	0	75745.3013405	75745.3018674	80	75748.3352153	75748.3357017	40	75751.4631332	75751.4636512	100	imm	75752.5261237	nan	nan	nan	nan	nan
1303.0458984375	0.0	80	2668638	96	60	60	1	1	75755.461826	75755.4623324	80	75758.4780146	75758.4785038	40	75761.9228289	75761.9233393	100	del	75763.1106736	75763.6197491	75763.6200262	120.0	2.0	75764.6467392
1306.06201171875	0.0	40	2674815	96	60	60	1	1	75755.461826	75755.4623324	80	75758.4780146	75758.4785038	40	75761.9228289	75761.9233393	100	del	75763.1106736	75763.6197491	75763.6200262	120.0	2.0	75764.6467392
1309.5068359375	0.0	100	2681870	96	60	60	1	1	75755.461826	75755.4623324	80	75758.4780146	75758.4785038	40	75761.9228289	75761.9233393	100	del	75763.1106736	75763.6197491	75763.6200262	120.0	2.0	75764.6467392
1311.20361328125	0.0	120	2685345	96	60	60	1	1	75755.461826	75755.4623324	80	75758.4780146	75758.4785038	40	75761.9228289	75761.9233393	100	del	75763.1106736	75763.6197491	75763.6200262	120.0	2.0	75764.6467392
1314.28662109375	0.0	80	2691659	97	77	600	1	0	75766.7024919	75766.7030005	80	75770.0451368	75770.0456513	40	75773.3092942	75773.3098718	100	imm	75774.9037445	75775.4169414	75775.4174644	120.0	2.0	75776.9898749
1317.62890625	0.0	40	2698504	97	77	600	1	0	75766.7024919	75766.7030005	80	75770.0451368	75770.0456513	40	75773.3092942	75773.3098718	100	imm	75774.9037445	75775.4169414	75775.4174644	120.0	2.0	75776.9898749
1320.89306640625	0.0	100	2705189	97	77	600	1	0	75766.7024919	75766.7030005	80	75770.0451368	75770.0456513	40	75773.3092942	75773.3098718	100	imm	75774.9037445	75775.4169414	75775.4174644	120.0	2.0	75776.9898749
1323.00048828125	0.0	120	2709505	97	77	600	1	0	75766.7024919	75766.7030005	80	75770.0451368	75770.0456513	40	75773.3092942	75773.3098718	100	imm	75774.9037445	75775.4169414	75775.4174644	120.0	2.0	75776.9898749
1326.69921875	0.0	80	2717080	98	63	8	1	1	75779.1157286	75779.116192	80	75782.4095325	75782.4100193	40	75785.4836125	75785.4841317	100	del	75786.8958912	75787.4098664	75787.4103661	120.0	3.0	75787.8861331
1329.9931640625	0.0	40	2723826	98	63	8	1	1	75779.1157286	75779.116192	80	75782.4095325	75782.4100193	40	75785.4836125	75785.4841317	100	del	75786.8958912	75787.4098664	75787.4103661	120.0	3.0	75787.8861331
1333.06689453125	0.0	100	2730121	98	63	8	1	1	75779.1157286	75779.116192	80	75782.4095325	75782.4100193	40	75785.4836125	75785.4841317	100	del	75786.8958912	75787.4098664	75787.4103661	120.0	3.0	75787.8861331
1334.9931640625	0.0	120	2734066	98	63	8	1	1	75779.1157286	75779.116192	80	75782.4095325	75782.4100193	40	75785.4836125	75785.4841317	100	del	75786.8958912	75787.4098664	75787.4103661	120.0	3.0	75787.8861331
1337.8212890625	0.0	80	2739858	99	53	30	0	1	75790.2378435	75790.2384289	80	75793.5439578	75793.5443091	40	75796.584762	75796.5852701	100	na	75798.7421788	nan	nan	nan	nan	nan
1341.126953125	0.0	40	2746628	99	53	30	0	1	75790.2378435	75790.2384289	80	75793.5439578	75793.5443091	40	75796.584762	75796.5852701	100	na	75798.7421788	nan	nan	nan	nan	nan
1344.16796875	0.0	100	2752856	99	53	30	0	1	75790.2378435	75790.2384289	80	75793.5439578	75793.5443091	40	75796.584762	75796.5852701	100	na	75798.7421788	nan	nan	nan	nan	nan
1348.87109375	0.0	80	2762488	100	100	30	0	0	75801.2878284	75801.2883842	80	75804.3727396	75804.3732134	40	75807.3959964	75807.3964773	100	del	75808.5979042	nan	nan	nan	nan	nan
1351.95556640625	0.0	40	2768805	100	100	30	0	0	75801.2878284	75801.2883842	80	75804.3727396	75804.3732134	40	75807.3959964	75807.3964773	100	del	75808.5979042	nan	nan	nan	nan	nan
1354.97900390625	0.0	100	2774997	100	100	30	0	0	75801.2878284	75801.2883842	80	75804.3727396	75804.3732134	40	75807.3959964	75807.3964773	100	del	75808.5979042	nan	nan	nan	nan	nan
1377.892578125	0.0	80	2821924	101	70	8	1	0	75830.3102777	75830.3107448	80	75833.7339895	75833.7344832	40	75837.0564043	75837.0569582	100	del	75837.9585511	75838.4696134	75838.4700069	120.0	2.0	75839.6306558
1381.31591796875	0.0	40	2828935	101	70	8	1	0	75830.3102777	75830.3107448	80	75833.7339895	75833.7344832	40	75837.0564043	75837.0569582	100	del	75837.9585511	75838.4696134	75838.4700069	120.0	2.0	75839.6306558
1384.63818359375	0.0	100	2835739	101	70	8	1	0	75830.3102777	75830.3107448	80	75833.7339895	75833.7344832	40	75837.0564043	75837.0569582	100	del	75837.9585511	75838.4696134	75838.4700069	120.0	2.0	75839.6306558
1386.05126953125	0.0	120	2838633	101	70	8	1	0	75830.3102777	75830.3107448	80	75833.7339895	75833.7344832	40	75837.0564043	75837.0569582	100	del	75837.9585511	75838.4696134	75838.4700069	120.0	2.0	75839.6306558
1389.49169921875	0.0	80	2845679	102	57	60	1	1	75841.9100268	75841.9104978	80	75845.3498408	75845.350459	40	75848.4117132	75848.4122174	100	del	75849.9037834	75850.417737	75850.4182355	120.0	3.0	75850.7988264
1392.931640625	0.0	40	2852724	102	57	60	1	1	75841.9100268	75841.9104978	80	75845.3498408	75845.350459	40	75848.4117132	75848.4122174	100	del	75849.9037834	75850.417737	75850.4182355	120.0	3.0	75850.7988264
1395.9931640625	0.0	100	2858994	102	57	60	1	1	75841.9100268	75841.9104978	80	75845.3498408	75845.350459	40	75848.4117132	75848.4122174	100	del	75849.9037834	75850.417737	75850.4182355	120.0	3.0	75850.7988264
1397.99951171875	0.0	120	2863103	102	57	60	1	1	75841.9100268	75841.9104978	80	75845.3498408	75845.350459	40	75848.4117132	75848.4122174	100	del	75849.9037834	75850.417737	75850.4182355	120.0	3.0	75850.7988264
1400.85009765625	0.0	80	2868941	103	80	250	0	1	75853.2687106	75853.2692273	80	75856.3306916	75856.3314004	40	75859.6030656	75859.6036452	100	imm	75861.1667368	nan	nan	nan	nan	nan
1403.912109375	0.0	40	2875212	103	80	250	0	1	75853.2687106	75853.2692273	80	75856.3306916	75856.3314004	40	75859.6030656	75859.6036452	100	imm	75861.1667368	nan	nan	nan	nan	nan
1407.1845703125	0.0	100	2881914	103	80	250	0	1	75853.2687106	75853.2692273	80	75856.3306916	75856.3314004	40	75859.6030656	75859.6036452	100	imm	75861.1667368	nan	nan	nan	nan	nan
1411.33740234375	0.0	80	2890419	104	90	365	1	0	75863.7562598	75863.7567497	80	75867.0435008	75867.0439821	40	75870.0588519	75870.059379	100	na	75871.9669536	75872.4803278	75872.4807967	120.0	1.0	75873.7995943
1414.62451171875	0.0	40	2897151	104	90	365	1	0	75863.7562598	75863.7567497	80	75867.0435008	75867.0439821	40	75870.0588519	75870.059379	100	na	75871.9669536	75872.4803278	75872.4807967	120.0	1.0	75873.7995943
1417.6396484375	0.0	100	2903326	104	90	365	1	0	75863.7562598	75863.7567497	80	75867.0435008	75867.0439821	40	75870.0588519	75870.059379	100	na	75871.9669536	75872.4803278	75872.4807967	120.0	1.0	75873.7995943
1420.0615234375	0.0	120	2908286	104	90	365	1	0	75863.7562598	75863.7567497	80	75867.0435008	75867.0439821	40	75870.0588519	75870.059379	100	na	75871.9669536	75872.4803278	75872.4807967	120.0	1.0	75873.7995943
1423.7802734375	0.0	80	2915902	105	73	250	0	1	75876.1993278	75876.1998168	80	75879.6315163	75879.6320345	40	75883.1039709	75883.1045057	100	imm	75883.9660897	nan	nan	nan	nan	nan
1427.21240234375	0.0	40	2922931	105	73	250	0	1	75876.1993278	75876.1998168	80	75879.6315163	75879.6320345	40	75883.1039709	75883.1045057	100	imm	75883.9660897	nan	nan	nan	nan	nan
1430.6845703125	0.0	100	2930042	105	73	250	0	1	75876.1993278	75876.1998168	80	75879.6315163	75879.6320345	40	75883.1039709	75883.1045057	100	imm	75883.9660897	nan	nan	nan	nan	nan
1434.56005859375	0.0	80	2937979	106	87	170	1	0	75886.9795413	75886.9801602	80	75890.2398629	75890.2403532	40	75893.3888002	75893.3893111	100	imm	75894.3664778	75894.8795919	75894.8800895	120.0	1.0	75898.5904474
1437.8203125	0.0	40	2944656	106	87	170	1	0	75886.9795413	75886.9801602	80	75890.2398629	75890.2403532	40	75893.3888002	75893.3893111	100	imm	75894.3664778	75894.8795919	75894.8800895	120.0	1.0	75898.5904474
1440.96923828125	0.0	100	2951105	106	87	170	1	0	75886.9795413	75886.9801602	80	75890.2398629	75890.2403532	40	75893.3888002	75893.3893111	100	imm	75894.3664778	75894.8795919	75894.8800895	120.0	1.0	75898.5904474
1442.4599609375	0.0	120	2954158	106	87	170	1	0	75886.9795413	75886.9801602	80	75890.2398629	75890.2403532	40	75893.3888002	75893.3893111	100	imm	75894.3664778	75894.8795919	75894.8800895	120.0	1.0	75898.5904474
1448.23681640625	0.0	80	2965989	107	100	60	1	0	75900.6565766	75900.6570414	80	75903.9182116	75903.918639	40	75907.2241692	75907.2247107	100	na	75911.4229693	75911.9363947	75911.9368792	120.0	1.0	75912.9102632
1451.498046875	0.0	40	2972668	107	100	60	1	0	75900.6565766	75900.6570414	80	75903.9182116	75903.918639	40	75907.2241692	75907.2247107	100	na	75911.4229693	75911.9363947	75911.9368792	120.0	1.0	75912.9102632
1454.80419921875	0.0	100	2979439	107	100	60	1	0	75900.6565766	75900.6570414	80	75903.9182116	75903.918639	40	75907.2241692	75907.2247107	100	na	75911.4229693	75911.9363947	75911.9368792	120.0	1.0	75912.9102632
1459.51611328125	0.0	120	2989089	107	100	60	1	0	75900.6565766	75900.6570414	80	75903.9182116	75903.918639	40	75907.2241692	75907.2247107	100	na	75911.4229693	75911.9363947	75911.9368792	120.0	1.0	75912.9102632
1462.88720703125	0.0	80	2995993	108	70	470	0	0	75915.3073022	75915.3077607	80	75918.356055	75918.3565375	40	75921.7007032	75921.7011802	100	imm	75922.6628679	nan	nan	nan	nan	nan
1465.935546875	0.0	40	3002236	108	70	470	0	0	75915.3073022	75915.3077607	80	75918.356055	75918.3565375	40	75921.7007032	75921.7011802	100	imm	75922.6628679	nan	nan	nan	nan	nan
1469.2802734375	0.0	100	3009086	108	70	470	0	0	75915.3073022	75915.3077607	80	75918.356055	75918.3565375	40	75921.7007032	75921.7011802	100	imm	75922.6628679	nan	nan	nan	nan	nan
1473.0185546875	0.0	80	3016742	109	83	365	1	0	75925.4390706	75925.4396483	80	75928.5324476	75928.5328949	40	75932.0152336	75932.0157106	100	imm	75933.5505484	75934.0645429	75934.0650327	120.0	1.0	75935.2238869
1476.11181640625	0.0	40	3023077	109	83	365	1	0	75925.4390706	75925.4396483	80	75928.5324476	75928.5328949	40	75932.0152336	75932.0157106	100	imm	75933.5505484	75934.0645429	75934.0650327	120.0	1.0	75935.2238869
1479.5947265625	0.0	100	3030210	109	83	365	1	0	75925.4390706	75925.4396483	80	75928.5324476	75928.5328949	40	75932.0152336	75932.0157106	100	imm	75933.5505484	75934.0645429	75934.0650327	120.0	1.0	75935.2238869
1481.64404296875	0.0	120	3034407	109	83	365	1	0	75925.4390706	75925.4396483	80	75928.5324476	75928.5328949	40	75932.0152336	75932.0157106	100	imm	75933.5505484	75934.0645429	75934.0650327	120.0	1.0	75935.2238869
1485.11181640625	0.0	80	3041509	110	100	600	1	1	75937.532672	75937.5331659	80	75940.7605646	75940.761051	40	75944.2449696	75944.2454833	100	imm	75946.3345701	75946.8482507	75946.8487264	120.0	2.0	75947.6220628
1488.33984375	0.0	40	3048120	110	100	600	1	1	75937.532672	75937.5331659	80	75940.7605646	75940.761051	40	75944.2449696	75944.2454833	100	imm	75946.3345701	75946.8482507	75946.8487264	120.0	2.0	75947.6220628
1491.82373046875	0.0	100	3055255	110	100	600	1	1	75937.532672	75937.5331659	80	75940.7605646	75940.761051	40	75944.2449696	75944.2454833	100	imm	75946.3345701	75946.8482507	75946.8487264	120.0	2.0	75947.6220628
1494.42724609375	0.0	120	3060587	110	100	600	1	1	75937.532672	75937.5331659	80	75940.7605646	75940.761051	40	75944.2449696	75944.2454833	100	imm	75946.3345701	75946.8482507	75946.8487264	120.0	2.0	75947.6220628
1497.54541015625	0.0	80	3066973	111	50	365	1	1	75949.9663822	75949.9668152	80	75953.2000949	75953.2006043	40	75956.6336752	75956.6342107	100	imm	75958.3583149	75958.8720149	75958.8725414	120.0	2.0	75961.1677344
1500.77880859375	0.0	40	3073595	111	50	365	1	1	75949.9663822	75949.9668152	80	75953.2000949	75953.2006043	40	75956.6336752	75956.6342107	100	imm	75958.3583149	75958.8720149	75958.8725414	120.0	2.0	75961.1677344
1504.21240234375	0.0	100	3080627	111	50	365	1	1	75949.9663822	75949.9668152	80	75953.2000949	75953.2006043	40	75956.6336752	75956.6342107	100	imm	75958.3583149	75958.8720149	75958.8725414	120.0	2.0	75961.1677344
1506.45068359375	0.0	120	3085211	111	50	365	1	1	75949.9663822	75949.9668152	80	75953.2000949	75953.2006043	40	75956.6336752	75956.6342107	100	imm	75958.3583149	75958.8720149	75958.8725414	120.0	2.0	75961.1677344
1511.02880859375	0.0	80	3094587	112	53	60	1	0	75963.4503845	75963.4508948	80	75966.735858	75966.7362812	40	75970.0894294	75970.0899349	100	del	75971.1428791	75971.6568647	75971.6573648	120.0	1.0	75973.6620401
1514.31396484375	0.0	40	3101315	112	53	60	1	0	75963.4503845	75963.4508948	80	75966.735858	75966.7362812	40	75970.0894294	75970.0899349	100	del	75971.1428791	75971.6568647	75971.6573648	120.0	1.0	75973.6620401
1517.66748046875	0.0	100	3108183	112	53	60	1	0	75963.4503845	75963.4508948	80	75966.735858	75966.7362812	40	75970.0894294	75970.0899349	100	del	75971.1428791	75971.6568647	75971.6573648	120.0	1.0	75973.6620401
1519.23486328125	0.0	120	3111393	112	53	60	1	0	75963.4503845	75963.4508948	80	75966.735858	75966.7362812	40	75970.0894294	75970.0899349	100	del	75971.1428791	75971.6568647	75971.6573648	120.0	1.0	75973.6620401
1523.43994140625	0.0	80	3120005	113	80	30	0	0	75975.8620401	75975.8624983	80	75978.9891658	75978.9896794	40	75982.2935803	75982.294088	100	imm	75984.9110188	nan	nan	nan	nan	nan
1526.5673828125	0.0	40	3126410	113	80	30	0	0	75975.8620401	75975.8624983	80	75978.9891658	75978.9896794	40	75982.2935803	75982.294088	100	imm	75984.9110188	nan	nan	nan	nan	nan
1529.87158203125	0.0	100	3133177	113	80	30	0	0	75975.8620401	75975.8624983	80	75978.9891658	75978.9896794	40	75982.2935803	75982.294088	100	imm	75984.9110188	nan	nan	nan	nan	nan
1535.43994140625	0.0	80	3144581	114	67	470	0	0	75987.8620577	75987.8624996	80	75991.0732144	75991.0736622	40	75994.1425422	75994.1431264	100	imm	75994.6949325	nan	nan	nan	nan	nan
1538.65087890625	0.0	40	3151157	114	67	470	0	0	75987.8620577	75987.8624996	80	75991.0732144	75991.0736622	40	75994.1425422	75994.1431264	100	imm	75994.6949325	nan	nan	nan	nan	nan
1541.72021484375	0.0	100	3157443	114	67	470	0	0	75987.8620577	75987.8624996	80	75991.0732144	75991.0736622	40	75994.1425422	75994.1431264	100	imm	75994.6949325	nan	nan	nan	nan	nan
1545.01220703125	0.0	80	3164185	115	83	470	0	1	75997.4347031	75997.435197	80	76000.5921533	76000.5926307	40	76003.8063954	76003.8071535	100	imm	76007.3904636	nan	nan	nan	nan	nan
1548.16943359375	0.0	40	3170651	115	83	470	0	1	75997.4347031	75997.435197	80	76000.5921533	76000.5926307	40	76003.8063954	76003.8071535	100	imm	76007.3904636	nan	nan	nan	nan	nan
1551.38330078125	0.0	100	3177233	115	83	470	0	1	75997.4347031	75997.435197	80	76000.5921533	76000.5926307	40	76003.8063954	76003.8071535	100	imm	76007.3904636	nan	nan	nan	nan	nan
1557.90234375	0.0	80	3190584	116	87	8	1	0	76010.3253918	76010.3258732	80	76013.5351599	76013.5356623	40	76016.7434159	76016.7439324	100	del	76018.3741414	76018.8841825	76018.8843649	120.0	2.0	76019.5671113
1561.1123046875	0.0	40	3197158	116	87	8	1	0	76010.3253918	76010.3258732	80	76013.5351599	76013.5356623	40	76016.7434159	76016.7439324	100	del	76018.3741414	76018.8841825	76018.8843649	120.0	2.0	76019.5671113
1564.3203125	0.0	100	3203728	116	87	8	1	0	76010.3253918	76010.3258732	80	76013.5351599	76013.5356623	40	76016.7434159	76016.7439324	100	del	76018.3741414	76018.8841825	76018.8843649	120.0	2.0	76019.5671113
1566.46142578125	0.0	120	3208113	116	87	8	1	0	76010.3253918	76010.3258732	80	76013.5351599	76013.5356623	40	76016.7434159	76016.7439324	100	del	76018.3741414	76018.8841825	76018.8843649	120.0	2.0	76019.5671113
1569.33935546875	0.0	80	3214007	117	67	60	1	0	76021.7624935	76021.7629883	80	76024.8398292	76024.8402762	40	76027.9838945	76027.9843937	100	del	76030.1664858	76030.6803332	76030.680805	120.0	2.0	76032.0626354
1572.41650390625	0.0	40	3220309	117	67	60	1	0	76021.7624935	76021.7629883	80	76024.8398292	76024.8402762	40	76027.9838945	76027.9843937	100	del	76030.1664858	76030.6803332	76030.680805	120.0	2.0	76032.0626354
1575.560546875	0.0	100	3226748	117	67	60	1	0	76021.7624935	76021.7629883	80	76024.8398292	76024.8402762	40	76027.9838945	76027.9843937	100	del	76030.1664858	76030.6803332	76030.680805	120.0	2.0	76032.0626354
1578.2568359375	0.0	120	3232270	117	67	60	1	0	76021.7624935	76021.7629883	80	76024.8398292	76024.8402762	40	76027.9838945	76027.9843937	100	del	76030.1664858	76030.6803332	76030.680805	120.0	2.0	76032.0626354
1581.69921875	0.0	80	3239320	118	93	170	1	1	76034.1229838	76034.1234407	80	76037.3461049	76037.3467417	40	76040.4879797	76040.4885635	100	imm	76041.9185874	76042.4322196	76042.4329468	120.0	3.0	76042.8236554
1584.9228515625	0.0	40	3245922	118	93	170	1	1	76034.1229838	76034.1234407	80	76037.3461049	76037.3467417	40	76040.4879797	76040.4885635	100	imm	76041.9185874	76042.4322196	76042.4329468	120.0	3.0	76042.8236554
1588.064453125	0.0	100	3252356	118	93	170	1	1	76034.1229838	76034.1234407	80	76037.3461049	76037.3467417	40	76040.4879797	76040.4885635	100	imm	76041.9185874	76042.4322196	76042.4329468	120.0	3.0	76042.8236554
1590.0087890625	0.0	120	3256338	118	93	170	1	1	76034.1229838	76034.1234407	80	76037.3461049	76037.3467417	40	76040.4879797	76040.4885635	100	imm	76041.9185874	76042.4322196	76042.4329468	120.0	3.0	76042.8236554
1592.56494140625	0.0	80	3261573	119	77	250	0	0	76044.9888783	76044.9893894	80	76048.208794	76048.2093854	40	76051.2820539	76051.2826144	100	imm	76051.8869927	nan	nan	nan	nan	nan
1595.78515625	0.0	40	3268168	119	77	250	0	0	76044.9888783	76044.9893894	80	76048.208794	76048.2093854	40	76051.2820539	76051.2826144	100	imm	76051.8869927	nan	nan	nan	nan	nan
1598.85791015625	0.0	100	3274461	119	77	250	0	0	76044.9888783	76044.9893894	80	76048.208794	76048.2093854	40	76051.2820539	76051.2826144	100	imm	76051.8869927	nan	nan	nan	nan	nan
1602.2294921875	0.0	80	3281366	120	100	365	1	0	76054.6534233	76054.6539182	80	76058.0141292	76058.0146271	40	76061.1491586	76061.1496663	100	imm	76062.7031665	76063.2168331	76063.2173448	120.0	2.0	76064.5265578
1605.58984375	0.0	40	3288248	120	100	365	1	0	76054.6534233	76054.6539182	80	76058.0141292	76058.0146271	40	76061.1491586	76061.1496663	100	imm	76062.7031665	76063.2168331	76063.2173448	120.0	2.0	76064.5265578
1608.72509765625	0.0	100	3294669	120	100	365	1	0	76054.6534233	76054.6539182	80	76058.0141292	76058.0146271	40	76061.1491586	76061.1496663	100	imm	76062.7031665	76063.2168331	76063.2173448	120.0	2.0	76064.5265578
1610.79248046875	0.0	120	3298903	120	100	365	1	0	76054.6534233	76054.6539182	80	76058.0141292	76058.0146271	40	76061.1491586	76061.1496663	100	imm	76062.7031665	76063.2168331	76063.2173448	120.0	2.0	76064.5265578
1634.66259765625	0.0	80	3347789	121	77	470	0	1	76087.0877279	76087.0882343	80	76090.132243	76090.1327615	40	76093.343276	76093.343792	100	imm	76094.094647	nan	nan	nan	nan	nan
1637.70703125	0.0	40	3354024	121	77	470	0	1	76087.0877279	76087.0882343	80	76090.132243	76090.1327615	40	76093.343276	76093.343792	100	imm	76094.094647	nan	nan	nan	nan	nan
1640.91796875	0.0	100	3360600	121	77	470	0	1	76087.0877279	76087.0882343	80	76090.132243	76090.1327615	40	76093.343276	76093.343792	100	imm	76094.094647	nan	nan	nan	nan	nan
1644.189453125	0.0	80	3367300	122	63	770	0	1	76096.6146302	76096.6151409	80	76099.7327925	76099.733272	40	76102.746774	76102.7472851	100	imm	76103.5026007	nan	nan	nan	nan	nan
1647.3076171875	0.0	40	3373686	122	63	770	0	1	76096.6146302	76096.6151409	80	76099.7327925	76099.733272	40	76102.746774	76102.7472851	100	imm	76103.5026007	nan	nan	nan	nan	nan
1650.3212890625	0.0	100	3379858	122	63	770	0	1	76096.6146302	76096.6151409	80	76099.7327925	76099.733272	40	76102.746774	76102.7472851	100	imm	76103.5026007	nan	nan	nan	nan	nan
1653.6904296875	0.0	80	3386758	123	70	365	1	0	76106.1159314	76106.1164219	80	76109.1947849	76109.1952589	40	76112.3423566	76112.3428458	100	imm	76115.2626078	76115.7719281	76115.7722284	120.0	1.0	76117.4224099
1656.76904296875	0.0	40	3393063	123	70	365	1	0	76106.1159314	76106.1164219	80	76109.1947849	76109.1952589	40	76112.3423566	76112.3428458	100	imm	76115.2626078	76115.7719281	76115.7722284	120.0	1.0	76117.4224099
1659.91650390625	0.0	100	3399509	123	70	365	1	0	76106.1159314	76106.1164219	80	76109.1947849	76109.1952589	40	76112.3423566	76112.3428458	100	imm	76115.2626078	76115.7719281	76115.7722284	120.0	1.0	76117.4224099
1663.34619140625	0.0	120	3406533	123	70	365	1	0	76106.1159314	76106.1164219	80	76109.1947849	76109.1952589	40	76112.3423566	76112.3428458	100	imm	76115.2626078	76115.7719281	76115.7722284	120.0	1.0	76117.4224099
1667.10009765625	0.0	80	3414221	124	100	110	0	0	76119.5261314	76119.5265441	80	76122.6034064	76122.6039027	40	76125.9155311	76125.9160469	100	del	76127.2950622	nan	nan	nan	nan	nan
1670.17724609375	0.0	40	3420523	124	100	110	0	0	76119.5261314	76119.5265441	80	76122.6034064	76122.6039027	40	76125.9155311	76125.9160469	100	del	76127.2950622	nan	nan	nan	nan	nan
1673.4892578125	0.0	100	3427306	124	100	110	0	0	76119.5261314	76119.5265441	80	76122.6034064	76122.6039027	40	76125.9155311	76125.9160469	100	del	76127.2950622	nan	nan	nan	nan	nan
1677.8369140625	0.0	80	3436210	125	50	8	1	0	76130.2631439	76130.2636447	80	76133.740622	76133.7410211	40	76136.86389	76136.8643336	100	del	76137.7759699	76138.289456	76138.2899769	120.0	2.0	76140.2626188
1681.314453125	0.0	40	3443332	125	50	8	1	0	76130.2631439	76130.2636447	80	76133.740622	76133.7410211	40	76136.86389	76136.8643336	100	del	76137.7759699	76138.289456	76138.2899769	120.0	2.0	76140.2626188
1684.4375	0.0	100	3449728	125	50	8	1	0	76130.2631439	76130.2636447	80	76133.740622	76133.7410211	40	76136.86389	76136.8643336	100	del	76137.7759699	76138.289456	76138.2899769	120.0	2.0	76140.2626188
1685.86279296875	0.0	120	3452647	125	50	8	1	0	76130.2631439	76130.2636447	80	76133.740622	76133.7410211	40	76136.86389	76136.8643336	100	del	76137.7759699	76138.289456	76138.2899769	120.0	2.0	76140.2626188
1690.09326171875	0.0	80	3461311	126	63	110	0	0	76142.519737	76142.5202812	80	76145.7152782	76145.7158284	40	76148.9903017	76148.9908407	100	na	76149.4310278	nan	nan	nan	nan	nan
1693.28857421875	0.0	40	3467855	126	63	110	0	0	76142.519737	76142.5202812	80	76145.7152782	76145.7158284	40	76148.9903017	76148.9908407	100	na	76149.4310278	nan	nan	nan	nan	nan
1696.5634765625	0.0	100	3474562	126	63	110	0	0	76142.519737	76142.5202812	80	76145.7152782	76145.7158284	40	76148.9903017	76148.9908407	100	na	76149.4310278	nan	nan	nan	nan	nan
1699.65380859375	0.0	80	3480891	127	90	110	0	0	76152.0806977	76152.0812292	80	76155.1223219	76155.1228049	40	76158.354127	76158.3546134	100	na	76160.2708258	nan	nan	nan	nan	nan
1702.6953125	0.0	40	3487120	127	90	110	0	0	76152.0806977	76152.0812292	80	76155.1223219	76155.1228049	40	76158.354127	76158.3546134	100	na	76160.2708258	nan	nan	nan	nan	nan
1705.92724609375	0.0	100	3493739	127	90	110	0	0	76152.0806977	76152.0812292	80	76155.1223219	76155.1228049	40	76158.354127	76158.3546134	100	na	76160.2708258	nan	nan	nan	nan	nan
1710.44775390625	0.0	80	3502997	128	83	60	1	1	76162.8748593	76162.8753362	80	76165.8953973	76165.895828	40	76169.3860518	76169.3865592	100	del	76170.4470988	76170.9570246	76170.9573967	120.0	2.0	76171.3277957
1713.46826171875	0.0	40	3509183	128	83	60	1	1	76162.8748593	76162.8753362	80	76165.8953973	76165.895828	40	76169.3860518	76169.3865592	100	del	76170.4470988	76170.9570246	76170.9573967	120.0	2.0	76171.3277957
1716.958984375	0.0	100	3516332	128	83	60	1	1	76162.8748593	76162.8753362	80	76165.8953973	76165.895828	40	76169.3860518	76169.3865592	100	del	76170.4470988	76170.9570246	76170.9573967	120.0	2.0	76171.3277957
1718.52978515625	0.0	120	3519549	128	83	60	1	1	76162.8748593	76162.8753362	80	76165.8953973	76165.895828	40	76169.3860518	76169.3865592	100	del	76170.4470988	76170.9570246	76170.9573967	120.0	2.0	76171.3277957
1721.13134765625	0.0	80	3524877	129	87	770	0	0	76173.5585582	76173.5590402	80	76177.0475147	76177.0479822	40	76180.441357	76180.4419407	100	imm	76182.1198649	nan	nan	nan	nan	nan
1724.6201171875	0.0	40	3532022	129	87	770	0	0	76173.5585582	76173.5590402	80	76177.0475147	76177.0479822	40	76180.441357	76180.4419407	100	imm	76182.1198649	nan	nan	nan	nan	nan
1728.013671875	0.0	100	3538972	129	87	770	0	0	76173.5585582	76173.5590402	80	76177.0475147	76177.0479822	40	76180.441357	76180.4419407	100	imm	76182.1198649	nan	nan	nan	nan	nan
1732.212890625	0.0	80	3547572	130	67	110	0	0	76184.640684	76184.6410909	80	76187.9883482	76187.9888074	40	76191.3543949	76191.3548396	100	na	76193.6711539	nan	nan	nan	nan	nan
1735.560546875	0.0	40	3554428	130	67	110	0	0	76184.640684	76184.6410909	80	76187.9883482	76187.9888074	40	76191.3543949	76191.3548396	100	na	76193.6711539	nan	nan	nan	nan	nan
1738.92626953125	0.0	100	3561321	130	67	110	0	0	76184.640684	76184.6410909	80	76187.9883482	76187.9888074	40	76191.3543949	76191.3548396	100	na	76193.6711539	nan	nan	nan	nan	nan
1744.08349609375	0.0	80	3571883	131	97	470	0	0	76196.5115095	76196.512046	80	76199.7958133	76199.796361	40	76202.9185824	76202.9191336	100	imm	76203.4707876	nan	nan	nan	nan	nan
1747.36767578125	0.0	40	3578609	131	97	470	0	0	76196.5115095	76196.512046	80	76199.7958133	76199.796361	40	76202.9185824	76202.9191336	100	imm	76203.4707876	nan	nan	nan	nan	nan
1750.490234375	0.0	100	3585004	131	97	470	0	0	76196.5115095	76196.512046	80	76199.7958133	76199.796361	40	76202.9185824	76202.9191336	100	imm	76203.4707876	nan	nan	nan	nan	nan
1753.94873046875	0.0	80	3592087	132	83	30	0	1	76206.3769829	76206.3775132	80	76209.4996058	76209.5000675	40	76212.698465	76212.6989619	100	del	76213.8549787	nan	nan	nan	nan	nan
1757.0712890625	0.0	40	3598482	132	83	30	0	1	76206.3769829	76206.3775132	80	76209.4996058	76209.5000675	40	76212.698465	76212.6989619	100	del	76213.8549787	nan	nan	nan	nan	nan
1760.27001953125	0.0	100	3605033	132	83	30	0	1	76206.3769829	76206.3775132	80	76209.4996058	76209.5000675	40	76212.698465	76212.6989619	100	del	76213.8549787	nan	nan	nan	nan	nan
1764.390625	0.0	80	3613472	133	73	470	0	1	76216.8191324	76216.8196327	80	76220.2548163	76220.2552918	40	76223.4692264	76223.4697241	100	na	76225.4627458	nan	nan	nan	nan	nan
1767.826171875	0.0	40	3620508	133	73	470	0	1	76216.8191324	76216.8196327	80	76220.2548163	76220.2552918	40	76223.4692264	76223.4697241	100	na	76225.4627458	nan	nan	nan	nan	nan
1771.04052734375	0.0	100	3627091	133	73	470	0	1	76216.8191324	76216.8196327	80	76220.2548163	76220.2552918	40	76223.4692264	76223.4697241	100	na	76225.4627458	nan	nan	nan	nan	nan
1775.70849609375	0.0	80	3636651	134	50	30	0	1	76228.1373406	76228.1378549	80	76231.4498939	76231.4503806	40	76234.91805	76234.9185429	100	del	76236.6627587	nan	nan	nan	nan	nan
1779.02099609375	0.0	40	3643435	134	50	30	0	1	76228.1373406	76228.1378549	80	76231.4498939	76231.4503806	40	76234.91805	76234.9185429	100	del	76236.6627587	nan	nan	nan	nan	nan
1782.48876953125	0.0	100	3650537	134	50	30	0	1	76228.1373406	76228.1378549	80	76231.4498939	76231.4503806	40	76234.91805	76234.9185429	100	del	76236.6627587	nan	nan	nan	nan	nan
1787.2060546875	0.0	80	3660198	135	60	30	0	1	76239.6350933	76239.6355747	80	76242.9402996	76242.9407701	40	76246.1193511	76246.1199615	100	del	76247.0561753	nan	nan	nan	nan	nan
1790.5107421875	0.0	40	3666966	135	60	30	0	1	76239.6350933	76239.6355747	80	76242.9402996	76242.9407701	40	76246.1193511	76246.1199615	100	del	76247.0561753	nan	nan	nan	nan	nan
1793.68994140625	0.0	100	3673477	135	60	30	0	1	76239.6350933	76239.6355747	80	76242.9402996	76242.9407701	40	76246.1193511	76246.1199615	100	del	76247.0561753	nan	nan	nan	nan	nan
1797.5703125	0.0	80	3681424	136	50	250	0	1	76250.0000255	76250.0005054	80	76253.22893	76253.2293768	40	76256.6946276	76256.6951447	100	imm	76259.1203122	nan	nan	nan	nan	nan
1800.79931640625	0.0	40	3688037	136	50	250	0	1	76250.0000255	76250.0005054	80	76253.22893	76253.2293768	40	76256.6946276	76256.6951447	100	imm	76259.1203122	nan	nan	nan	nan	nan
1804.26513671875	0.0	100	3695135	136	50	250	0	1	76250.0000255	76250.0005054	80	76253.22893	76253.2293768	40	76256.6946276	76256.6951447	100	imm	76259.1203122	nan	nan	nan	nan	nan
1809.224609375	0.0	80	3705292	137	57	470	0	1	76261.6547043	76261.6552173	80	76264.9284528	76264.9289558	40	76268.2998368	76268.3004445	100	imm	76268.9363089	nan	nan	nan	nan	nan
1812.49853515625	0.0	40	3711997	137	57	470	0	1	76261.6547043	76261.6552173	80	76264.9284528	76264.9289558	40	76268.2998368	76268.3004445	100	imm	76268.9363089	nan	nan	nan	nan	nan
1815.86962890625	0.0	100	3718901	137	57	470	0	1	76261.6547043	76261.6552173	80	76264.9284528	76264.9289558	40	76268.2998368	76268.3004445	100	imm	76268.9363089	nan	nan	nan	nan	nan
1819.11474609375	0.0	80	3725547	138	90	770	0	0	76271.5448323	76271.5453366	80	76274.7213009	76274.7217573	40	76277.828445	76277.828938	100	imm	76278.7111831	nan	nan	nan	nan	nan
1822.291015625	0.0	40	3732052	138	90	770	0	0	76271.5448323	76271.5453366	80	76274.7213009	76274.7217573	40	76277.828445	76277.828938	100	imm	76278.7111831	nan	nan	nan	nan	nan
1825.39794921875	0.0	100	3738415	138	90	770	0	0	76271.5448323	76271.5453366	80	76274.7213009	76274.7217573	40	76277.828445	76277.828938	100	imm	76278.7111831	nan	nan	nan	nan	nan
1828.9599609375	0.0	80	3745710	139	57	770	0	0	76281.3904944	76281.3909143	80	76284.6010967	76284.60163	40	76287.8889449	76287.8894082	100	del	76288.5824828	nan	nan	nan	nan	nan
1832.17041015625	0.0	40	3752285	139	57	770	0	0	76281.3904944	76281.3909143	80	76284.6010967	76284.60163	40	76287.8889449	76287.8894082	100	del	76288.5824828	nan	nan	nan	nan	nan
1835.45849609375	0.0	100	3759019	139	57	770	0	0	76281.3904944	76281.3909143	80	76284.6010967	76284.60163	40	76287.8889449	76287.8894082	100	del	76288.5824828	nan	nan	nan	nan	nan
1838.6953125	0.0	80	3765648	140	53	170	1	1	76291.1261673	76291.126667	80	76294.4101705	76294.4106584	40	76297.5612164	76297.5617481	100	imm	76298.295298	76298.8030411	76298.8033702	120.0	3.0	76300.1442538
1841.9794921875	0.0	40	3772374	140	53	170	1	1	76291.1261673	76291.126667	80	76294.4101705	76294.4106584	40	76297.5612164	76297.5617481	100	imm	76298.295298	76298.8030411	76298.8033702	120.0	3.0	76300.1442538
1845.13037109375	0.0	100	3778827	140	53	170	1	1	76291.1261673	76291.126667	80	76294.4101705	76294.4106584	40	76297.5612164	76297.5617481	100	imm	76298.295298	76298.8030411	76298.8033702	120.0	3.0	76300.1442538
1846.3720703125	0.0	120	3781370	140	53	170	1	1	76291.1261673	76291.126667	80	76294.4101705	76294.4106584	40	76297.5612164	76297.5617481	100	imm	76298.295298	76298.8030411	76298.8033702	120.0	3.0	76300.1442538
1880.60009765625	0.0	80	3851469	141	73	770	0	0	76333.031866	76333.0323421	80	76336.1618375	76336.1623373	40	76339.2520692	76339.2525452	100	del	76340.4864777	nan	nan	nan	nan	nan
1883.72998046875	0.0	40	3857879	141	73	770	0	0	76333.031866	76333.0323421	80	76336.1618375	76336.1623373	40	76339.2520692	76339.2525452	100	del	76340.4864777	nan	nan	nan	nan	nan
1886.81982421875	0.0	100	3864207	141	73	770	0	0	76333.031866	76333.0323421	80	76336.1618375	76336.1623373	40	76339.2520692	76339.2525452	100	del	76340.4864777	nan	nan	nan	nan	nan
1891.052734375	0.0	80	3872876	142	63	60	1	1	76343.4846732	76343.4851836	80	76346.9608802	76346.9613059	40	76350.3840268	76350.3845535	100	del	76351.7672776	76352.281218	76352.2816201	120.0	2.0	76352.9584256
1894.52880859375	0.0	40	3879995	142	63	60	1	1	76343.4846732	76343.4851836	80	76346.9608802	76346.9613059	40	76350.3840268	76350.3845535	100	del	76351.7672776	76352.281218	76352.2816201	120.0	2.0	76352.9584256
1897.95166015625	0.0	100	3887005	142	63	60	1	1	76343.4846732	76343.4851836	80	76346.9608802	76346.9613059	40	76350.3840268	76350.3845535	100	del	76351.7672776	76352.281218	76352.2816201	120.0	2.0	76352.9584256
1899.8486328125	0.0	120	3890890	142	63	60	1	1	76343.4846732	76343.4851836	80	76346.9608802	76346.9613059	40	76350.3840268	76350.3845535	100	del	76351.7672776	76352.281218	76352.2816201	120.0	2.0	76352.9584256
1902.90576171875	0.0	80	3897151	143	97	770	0	0	76355.3381891	76355.3386549	80	76358.4339041	76358.4343237	40	76361.6273104	76361.6278159	100	del	76363.4948027	nan	nan	nan	nan	nan
1906.00146484375	0.0	40	3903491	143	97	770	0	0	76355.3381891	76355.3386549	80	76358.4339041	76358.4343237	40	76361.6273104	76361.6278159	100	del	76363.4948027	nan	nan	nan	nan	nan
1909.19482421875	0.0	100	3910031	143	97	770	0	0	76355.3381891	76355.3386549	80	76358.4339041	76358.4343237	40	76361.6273104	76361.6278159	100	del	76363.4948027	nan	nan	nan	nan	nan
1913.67431640625	0.0	80	3919205	144	77	365	1	0	76366.1069301	76366.1075566	80	76369.1156134	76369.1161183	40	76372.2868039	76372.2873333	100	imm	76374.1753352	76374.6881942	76374.6887129	120.0	2.0	76375.1192128
1916.6826171875	0.0	40	3925366	144	77	365	1	0	76366.1069301	76366.1075566	80	76369.1156134	76369.1161183	40	76372.2868039	76372.2873333	100	imm	76374.1753352	76374.6881942	76374.6887129	120.0	2.0	76375.1192128
1919.85400390625	0.0	100	3931861	144	77	365	1	0	76366.1069301	76366.1075566	80	76369.1156134	76369.1161183	40	76372.2868039	76372.2873333	100	imm	76374.1753352	76374.6881942	76374.6887129	120.0	2.0	76375.1192128
1922.25537109375	0.0	120	3936779	144	77	365	1	0	76366.1069301	76366.1075566	80	76369.1156134	76369.1161183	40	76372.2868039	76372.2873333	100	imm	76374.1753352	76374.6881942	76374.6887129	120.0	2.0	76375.1192128
1925.05224609375	0.0	80	3942507	145	93	30	0	1	76377.4852996	76377.4857847	80	76380.8069138	76380.8073529	40	76384.0924065	76384.0928433	100	na	76384.0952772	nan	nan	nan	nan	nan
1928.37353515625	0.0	40	3949309	145	93	30	0	1	76377.4852996	76377.4857847	80	76380.8069138	76380.8073529	40	76384.0924065	76384.0928433	100	na	76384.0952772	nan	nan	nan	nan	nan
1931.6591796875	0.0	100	3956038	145	93	30	0	1	76377.4852996	76377.4857847	80	76380.8069138	76380.8073529	40	76384.0924065	76384.0928433	100	na	76384.0952772	nan	nan	nan	nan	nan
1934.40380859375	0.0	80	3961659	146	97	600	1	1	76386.836891	76386.8375026	80	76389.9891096	76389.9895261	40	76393.2529276	76393.2534013	100	imm	76394.8310678	76395.3449792	76395.3454988	120.0	2.0	76397.2468985
1937.5556640625	0.0	40	3968114	146	97	600	1	1	76386.836891	76386.8375026	80	76389.9891096	76389.9895261	40	76393.2529276	76393.2534013	100	imm	76394.8310678	76395.3449792	76395.3454988	120.0	2.0	76397.2468985
1940.8193359375	0.0	100	3974798	146	97	600	1	1	76386.836891	76386.8375026	80	76389.9891096	76389.9895261	40	76393.2529276	76393.2534013	100	imm	76394.8310678	76395.3449792	76395.3454988	120.0	2.0	76397.2468985
1942.91162109375	0.0	120	3979083	146	97	600	1	1	76386.836891	76386.8375026	80	76389.9891096	76389.9895261	40	76393.2529276	76393.2534013	100	imm	76394.8310678	76395.3449792	76395.3454988	120.0	2.0	76397.2468985
1947.21142578125	0.0	80	3987889	147	100	470	0	1	76399.6452277	76399.6457211	80	76403.0326169	76403.0330092	40	76406.3338802	76406.3343884	100	na	76409.9521001	nan	nan	nan	nan	nan
1950.5986328125	0.0	40	3994826	147	100	470	0	1	76399.6452277	76399.6457211	80	76403.0326169	76403.0330092	40	76406.3338802	76406.3343884	100	na	76409.9521001	nan	nan	nan	nan	nan
