onset	duration	value	sample	trial_idx	val	del	is_cued	rev_opts	del_pres_displaytime	del_pres_triggertime	del_pres_triggercode	val_pres_displaytime	val_pres_triggertime	val_pres_triggercode	choice_displaytime	choice_triggertime	choice_triggercode	choice	choice_time	viv_displaytime	viv_triggertime	viv_triggercode	viv	viv_time
28.03564453125	0.0	80	57417	1	67	600	1	0	1536740.9948338	1536740.9951918	80	1536744.4683851	1536744.4688904	40	1536747.7920133	1536747.7924609	100	imm	1536751.5727905	1536752.0889739	1536752.0894041	120.0	3.0	1536753.6133819
31.5087890625	0.0	40	64530	1	67	600	1	0	1536740.9948338	1536740.9951918	80	1536744.4683851	1536744.4688904	40	1536747.7920133	1536747.7924609	100	imm	1536751.5727905	1536752.0889739	1536752.0894041	120.0	3.0	1536753.6133819
34.83251953125	0.0	100	71337	1	67	600	1	0	1536740.9948338	1536740.9951918	80	1536744.4683851	1536744.4688904	40	1536747.7920133	1536747.7924609	100	imm	1536751.5727905	1536752.0889739	1536752.0894041	120.0	3.0	1536753.6133819
39.12939453125	0.0	120	80137	1	67	600	1	0	1536740.9948338	1536740.9951918	80	1536744.4683851	1536744.4688904	40	1536747.7920133	1536747.7924609	100	imm	1536751.5727905	1536752.0889739	1536752.0894041	120.0	3.0	1536753.6133819
43.0234375	0.0	80	88112	2	57	240	0	1	1536755.9830649	1536755.9834861	80	1536759.3633224	1536759.3638344	40	1536762.5698827	1536762.5703631	100	imm	1536763.8304864	nan	nan	nan	nan	nan
46.4033203125	0.0	40	95034	2	57	240	0	1	1536755.9830649	1536755.9834861	80	1536759.3633224	1536759.3638344	40	1536762.5698827	1536762.5703631	100	imm	1536763.8304864	nan	nan	nan	nan	nan
49.60986328125	0.0	100	101601	2	57	240	0	1	1536755.9830649	1536755.9834861	80	1536759.3633224	1536759.3638344	40	1536762.5698827	1536762.5703631	100	imm	1536763.8304864	nan	nan	nan	nan	nan
53.51318359375	0.0	80	109595	3	97	20	0	0	1536766.4734424	1536766.4739178	80	1536769.4983094	1536769.4986314	40	1536772.7470146	1536772.747529	100	del	1536774.1808685	nan	nan	nan	nan	nan
56.5380859375	0.0	40	115790	3	97	20	0	0	1536766.4734424	1536766.4739178	80	1536769.4983094	1536769.4986314	40	1536772.7470146	1536772.747529	100	del	1536774.1808685	nan	nan	nan	nan	nan
59.78662109375	0.0	100	122443	3	97	20	0	0	1536766.4734424	1536766.4739178	80	1536769.4983094	1536769.4986314	40	1536772.7470146	1536772.747529	100	del	1536774.1808685	nan	nan	nan	nan	nan
64.05908203125	0.0	80	131193	4	70	240	0	1	1536777.0194267	1536777.0199218	80	1536780.1663644	1536780.1668935	40	1536783.4385543	1536783.4390618	100	imm	1536785.8697432	nan	nan	nan	nan	nan
67.2060546875	0.0	40	137638	4	70	240	0	1	1536777.0194267	1536777.0199218	80	1536780.1663644	1536780.1668935	40	1536783.4385543	1536783.4390618	100	imm	1536785.8697432	nan	nan	nan	nan	nan
70.47802734375	0.0	100	144339	4	70	240	0	1	1536777.0194267	1536777.0199218	80	1536780.1663644	1536780.1668935	40	1536783.4385543	1536783.4390618	100	imm	1536785.8697432	nan	nan	nan	nan	nan
75.55029296875	0.0	80	154727	5	67	13	1	0	1536788.5109895	1536788.5114784	80	1536791.6671715	1536791.6676147	40	1536795.0055687	1536795.0061309	100	del	1536797.4450717	1536797.954494	1536797.9548027	120.0	2.0	1536798.6693807
78.70654296875	0.0	40	161191	5	67	13	1	0	1536788.5109895	1536788.5114784	80	1536791.6671715	1536791.6676147	40	1536795.0055687	1536795.0061309	100	del	1536797.4450717	1536797.954494	1536797.9548027	120.0	2.0	1536798.6693807
82.044921875	0.0	100	168028	5	67	13	1	0	1536788.5109895	1536788.5114784	80	1536791.6671715	1536791.6676147	40	1536795.0055687	1536795.0061309	100	del	1536797.4450717	1536797.954494	1536797.9548027	120.0	2.0	1536798.6693807
84.99365234375	0.0	120	174067	5	67	13	1	0	1536788.5109895	1536788.5114784	80	1536791.6671715	1536791.6676147	40	1536795.0055687	1536795.0061309	100	del	1536797.4450717	1536797.954494	1536797.9548027	120.0	2.0	1536798.6693807
88.1650390625	0.0	80	180562	6	53	80	0	1	1536801.1260884	1536801.1264055	80	1536804.5620253	1536804.5623007	40	1536807.6799191	1536807.6804072	100	imm	1536809.0853812	nan	nan	nan	nan	nan
91.6005859375	0.0	40	187598	6	53	80	0	1	1536801.1260884	1536801.1264055	80	1536804.5620253	1536804.5623007	40	1536807.6799191	1536807.6804072	100	imm	1536809.0853812	nan	nan	nan	nan	nan
94.71875	0.0	100	193984	6	53	80	0	1	1536801.1260884	1536801.1264055	80	1536804.5620253	1536804.5623007	40	1536807.6799191	1536807.6804072	100	imm	1536809.0853812	nan	nan	nan	nan	nan
98.84130859375	0.0	80	202427	7	80	410	0	1	1536811.8026283	1536811.8031504	80	1536815.2561001	1536815.2566408	40	1536818.3974717	1536818.3979147	100	imm	1536819.3258717	nan	nan	nan	nan	nan
102.29443359375	0.0	40	209499	7	80	410	0	1	1536811.8026283	1536811.8031504	80	1536815.2561001	1536815.2566408	40	1536818.3974717	1536818.3979147	100	imm	1536819.3258717	nan	nan	nan	nan	nan
105.43603515625	0.0	100	215933	7	80	410	0	1	1536811.8026283	1536811.8031504	80	1536815.2561001	1536815.2566408	40	1536818.3974717	1536818.3979147	100	imm	1536819.3258717	nan	nan	nan	nan	nan
109.36572265625	0.0	80	223981	8	83	20	0	1	1536822.3273955	1536822.3278719	80	1536825.6442317	1536825.6446602	40	1536828.7404823	1536828.7409914	100	del	1536829.501908	nan	nan	nan	nan	nan
112.6826171875	0.0	40	230774	8	83	20	0	1	1536822.3273955	1536822.3278719	80	1536825.6442317	1536825.6446602	40	1536828.7404823	1536828.7409914	100	del	1536829.501908	nan	nan	nan	nan	nan
115.77880859375	0.0	100	237115	8	83	20	0	1	1536822.3273955	1536822.3278719	80	1536825.6442317	1536825.6446602	40	1536828.7404823	1536828.7409914	100	del	1536829.501908	nan	nan	nan	nan	nan
119.47021484375	0.0	80	244675	9	83	600	1	0	1536832.4322731	1536832.4328822	80	1536835.7681292	1536835.7685896	40	1536839.0544889	1536839.0550088	100	imm	1536842.3336586	1536842.8455018	1536842.8459595	120.0	2.0	1536844.4531574
122.80615234375	0.0	40	251507	9	83	600	1	0	1536832.4322731	1536832.4328822	80	1536835.7681292	1536835.7685896	40	1536839.0544889	1536839.0550088	100	imm	1536842.3336586	1536842.8455018	1536842.8459595	120.0	2.0	1536844.4531574
126.09228515625	0.0	100	258237	9	83	600	1	0	1536832.4322731	1536832.4328822	80	1536835.7681292	1536835.7685896	40	1536839.0544889	1536839.0550088	100	imm	1536842.3336586	1536842.8455018	1536842.8459595	120.0	2.0	1536844.4531574
129.88330078125	0.0	120	266001	9	83	600	1	0	1536832.4322731	1536832.4328822	80	1536835.7681292	1536835.7685896	40	1536839.0544889	1536839.0550088	100	imm	1536842.3336586	1536842.8455018	1536842.8459595	120.0	2.0	1536844.4531574
133.6328125	0.0	80	273680	10	50	80	0	1	1536846.5950529	1536846.5955297	80	1536849.6226173	1536849.6231362	40	1536852.7527568	1536852.7532559	100	imm	1536854.4210262	nan	nan	nan	nan	nan
136.66015625	0.0	40	279880	10	50	80	0	1	1536846.5950529	1536846.5955297	80	1536849.6226173	1536849.6231362	40	1536852.7527568	1536852.7532559	100	imm	1536854.4210262	nan	nan	nan	nan	nan
139.7900390625	0.0	100	286290	10	50	80	0	1	1536846.5950529	1536846.5955297	80	1536849.6226173	1536849.6231362	40	1536852.7527568	1536852.7532559	100	imm	1536854.4210262	nan	nan	nan	nan	nan
144.1552734375	0.0	80	295230	11	77	880	0	1	1536857.1180136	1536857.1185427	80	1536860.4423016	1536860.4427899	40	1536863.9485638	1536863.9492323	100	imm	1536865.0707215	nan	nan	nan	nan	nan
147.4794921875	0.0	40	302038	11	77	880	0	1	1536857.1180136	1536857.1185427	80	1536860.4423016	1536860.4427899	40	1536863.9485638	1536863.9492323	100	imm	1536865.0707215	nan	nan	nan	nan	nan
150.98583984375	0.0	100	309219	11	77	880	0	1	1536857.1180136	1536857.1185427	80	1536860.4423016	1536860.4427899	40	1536863.9485638	1536863.9492323	100	imm	1536865.0707215	nan	nan	nan	nan	nan
154.72802734375	0.0	80	316883	12	93	210	1	1	1536867.6910269	1536867.69143	80	1536871.0768177	1536871.0777729	40	1536874.5338452	1536874.5343428	100	del	1536875.3267475	1536875.8405815	1536875.8410952	120.0	3.0	1536876.5809689
158.11376953125	0.0	40	323817	12	93	210	1	1	1536867.6910269	1536867.69143	80	1536871.0768177	1536871.0777729	40	1536874.5338452	1536874.5343428	100	del	1536875.3267475	1536875.8405815	1536875.8410952	120.0	3.0	1536876.5809689
161.57080078125	0.0	100	330897	12	93	210	1	1	1536867.6910269	1536867.69143	80	1536871.0768177	1536871.0777729	40	1536874.5338452	1536874.5343428	100	del	1536875.3267475	1536875.8405815	1536875.8410952	120.0	3.0	1536876.5809689
162.87744140625	0.0	120	333573	12	93	210	1	1	1536867.6910269	1536867.69143	80	1536871.0768177	1536871.0777729	40	1536874.5338452	1536874.5343428	100	del	1536875.3267475	1536875.8405815	1536875.8410952	120.0	3.0	1536876.5809689
165.869140625	0.0	80	339700	13	83	13	1	0	1536878.8322941	1536878.8328333	80	1536881.919261	1536881.9196548	40	1536885.3377718	1536885.3382893	100	del	1536886.86974	1536887.3798158	1536887.3804288	120.0	4.0	1536888.7329041
168.9560546875	0.0	40	346022	13	83	13	1	0	1536878.8322941	1536878.8328333	80	1536881.919261	1536881.9196548	40	1536885.3377718	1536885.3382893	100	del	1536886.86974	1536887.3798158	1536887.3804288	120.0	4.0	1536888.7329041
172.37451171875	0.0	100	353023	13	83	13	1	0	1536878.8322941	1536878.8328333	80	1536881.919261	1536881.9196548	40	1536885.3377718	1536885.3382893	100	del	1536886.86974	1536887.3798158	1536887.3804288	120.0	4.0	1536888.7329041
174.41650390625	0.0	120	357205	13	83	13	1	0	1536878.8322941	1536878.8328333	80	1536881.919261	1536881.9196548	40	1536885.3377718	1536885.3382893	100	del	1536886.86974	1536887.3798158	1536887.3804288	120.0	4.0	1536888.7329041
178.02294921875	0.0	80	364591	14	97	270	1	0	1536890.9865469	1536890.987048	80	1536894.0516761	1536894.052102	40	1536897.5034061	1536897.5039334	100	imm	1536898.9172346	1536899.4304556	1536899.43096	120.0	3.0	1536900.6454509
181.087890625	0.0	40	370868	14	97	270	1	0	1536890.9865469	1536890.987048	80	1536894.0516761	1536894.052102	40	1536897.5034061	1536897.5039334	100	imm	1536898.9172346	1536899.4304556	1536899.43096	120.0	3.0	1536900.6454509
184.53955078125	0.0	100	377937	14	97	270	1	0	1536890.9865469	1536890.987048	80	1536894.0516761	1536894.052102	40	1536897.5034061	1536897.5039334	100	imm	1536898.9172346	1536899.4304556	1536899.43096	120.0	3.0	1536900.6454509
186.466796875	0.0	120	381884	14	97	270	1	0	1536890.9865469	1536890.987048	80	1536894.0516761	1536894.052102	40	1536897.5034061	1536897.5039334	100	imm	1536898.9172346	1536899.4304556	1536899.43096	120.0	3.0	1536900.6454509
190.0146484375	0.0	80	389150	15	67	80	0	0	1536902.978513	1536902.9790532	80	1536906.0331576	1536906.0335086	40	1536909.5006969	1536909.5012448	100	imm	1536910.3653697	nan	nan	nan	nan	nan
193.0693359375	0.0	40	395406	15	67	80	0	0	1536902.978513	1536902.9790532	80	1536906.0331576	1536906.0335086	40	1536909.5006969	1536909.5012448	100	imm	1536910.3653697	nan	nan	nan	nan	nan
196.53662109375	0.0	100	402507	15	67	80	0	0	1536902.978513	1536902.9790532	80	1536906.0331576	1536906.0335086	40	1536909.5006969	1536909.5012448	100	imm	1536910.3653697	nan	nan	nan	nan	nan
199.93603515625	0.0	80	409469	16	97	80	0	0	1536912.9003037	1536912.9009081	80	1536915.9282028	1536915.928671	40	1536919.4358814	1536919.4363786	100	del	1536920.9016389	nan	nan	nan	nan	nan
202.9638671875	0.0	40	415670	16	97	80	0	0	1536912.9003037	1536912.9009081	80	1536915.9282028	1536915.928671	40	1536919.4358814	1536919.4363786	100	del	1536920.9016389	nan	nan	nan	nan	nan
206.4716796875	0.0	100	422854	16	97	80	0	0	1536912.9003037	1536912.9009081	80	1536915.9282028	1536915.928671	40	1536919.4358814	1536919.4363786	100	del	1536920.9016389	nan	nan	nan	nan	nan
210.7978515625	0.0	80	431714	17	53	13	1	0	1536923.7620862	1536923.7625965	80	1536926.9581468	1536926.9586739	40	1536930.2234407	1536930.2240823	100	del	1536931.4055004	1536931.9180652	1536931.9185602	120.0	2.0	1536934.078851
213.99365234375	0.0	40	438259	17	53	13	1	0	1536923.7620862	1536923.7625965	80	1536926.9581468	1536926.9586739	40	1536930.2234407	1536930.2240823	100	del	1536931.4055004	1536931.9180652	1536931.9185602	120.0	2.0	1536934.078851
217.2587890625	0.0	100	444946	17	53	13	1	0	1536923.7620862	1536923.7625965	80	1536926.9581468	1536926.9586739	40	1536930.2234407	1536930.2240823	100	del	1536931.4055004	1536931.9180652	1536931.9185602	120.0	2.0	1536934.078851
218.95361328125	0.0	120	448417	17	53	13	1	0	1536923.7620862	1536923.7625965	80	1536926.9581468	1536926.9586739	40	1536930.2234407	1536930.2240823	100	del	1536931.4055004	1536931.9180652	1536931.9185602	120.0	2.0	1536934.078851
223.51171875	0.0	80	457752	18	53	20	0	0	1536936.4765842	1536936.4770939	80	1536939.5088294	1536939.509336	40	1536942.8848345	1536942.8853338	100	imm	1536945.3254785	nan	nan	nan	nan	nan
226.5439453125	0.0	40	463962	18	53	20	0	0	1536936.4765842	1536936.4770939	80	1536939.5088294	1536939.509336	40	1536942.8848345	1536942.8853338	100	imm	1536945.3254785	nan	nan	nan	nan	nan
229.919921875	0.0	100	470876	18	53	20	0	0	1536936.4765842	1536936.4770939	80	1536939.5088294	1536939.509336	40	1536942.8848345	1536942.8853338	100	imm	1536945.3254785	nan	nan	nan	nan	nan
235.22509765625	0.0	80	481741	19	83	270	1	0	1536948.1902207	1536948.1905835	80	1536951.4269777	1536951.427461	40	1536954.7315047	1536954.73203	100	imm	1536956.733753	1536957.2438564	1536957.2441674	120.0	2.0	1536957.5653035
238.4619140625	0.0	40	488370	19	83	270	1	0	1536948.1902207	1536948.1905835	80	1536951.4269777	1536951.427461	40	1536954.7315047	1536954.73203	100	imm	1536956.733753	1536957.2438564	1536957.2441674	120.0	2.0	1536957.5653035
241.76611328125	0.0	100	495137	19	83	270	1	0	1536948.1902207	1536948.1905835	80	1536951.4269777	1536951.427461	40	1536954.7315047	1536954.73203	100	imm	1536956.733753	1536957.2438564	1536957.2441674	120.0	2.0	1536957.5653035
244.2783203125	0.0	120	500282	19	83	270	1	0	1536948.1902207	1536948.1905835	80	1536951.4269777	1536951.427461	40	1536954.7315047	1536954.73203	100	imm	1536956.733753	1536957.2438564	1536957.2441674	120.0	2.0	1536957.5653035
246.78564453125	0.0	80	505417	20	70	270	1	1	1536959.7508841	1536959.7514205	80	1536962.8442059	1536962.8446676	40	1536966.0586126	1536966.0591206	100	imm	1536966.8851909	1536967.394488	1536967.3947957	120.0	3.0	1536968.2771924
249.87841796875	0.0	40	511751	20	70	270	1	1	1536959.7508841	1536959.7514205	80	1536962.8442059	1536962.8446676	40	1536966.0586126	1536966.0591206	100	imm	1536966.8851909	1536967.394488	1536967.3947957	120.0	3.0	1536968.2771924
253.0927734375	0.0	100	518334	20	70	270	1	1	1536959.7508841	1536959.7514205	80	1536962.8442059	1536962.8446676	40	1536966.0586126	1536966.0591206	100	imm	1536966.8851909	1536967.394488	1536967.3947957	120.0	3.0	1536968.2771924
254.4287109375	0.0	120	521070	20	70	270	1	1	1536959.7508841	1536959.7514205	80	1536962.8442059	1536962.8446676	40	1536966.0586126	1536966.0591206	100	imm	1536966.8851909	1536967.394488	1536967.3947957	120.0	3.0	1536968.2771924
275.27783203125	0.0	80	563769	21	80	880	0	0	1536988.2440006	1536988.2443487	80	1536991.364458	1536991.3649508	40	1536994.5591713	1536994.5597022	100	imm	1536995.5100154	nan	nan	nan	nan	nan
278.39794921875	0.0	40	570159	21	80	880	0	0	1536988.2440006	1536988.2443487	80	1536991.364458	1536991.3649508	40	1536994.5591713	1536994.5597022	100	imm	1536995.5100154	nan	nan	nan	nan	nan
281.5927734375	0.0	100	576702	21	80	880	0	0	1536988.2440006	1536988.2443487	80	1536991.364458	1536991.3649508	40	1536994.5591713	1536994.5597022	100	imm	1536995.5100154	nan	nan	nan	nan	nan
285.22314453125	0.0	80	584137	22	100	30	1	1	1536998.1898986	1536998.1903818	80	1537001.2391505	1537001.2395978	40	1537004.5100013	1537004.5104848	100	del	1537005.7653259	1537006.2778358	1537006.2783257	120.0	3.0	1537007.3011341
288.2724609375	0.0	40	590382	22	100	30	1	1	1536998.1898986	1536998.1903818	80	1537001.2391505	1537001.2395978	40	1537004.5100013	1537004.5104848	100	del	1537005.7653259	1537006.2778358	1537006.2783257	120.0	3.0	1537007.3011341
291.54345703125	0.0	100	597081	22	100	30	1	1	1536998.1898986	1536998.1903818	80	1537001.2391505	1537001.2395978	40	1537004.5100013	1537004.5104848	100	del	1537005.7653259	1537006.2778358	1537006.2783257	120.0	3.0	1537007.3011341
293.31103515625	0.0	120	600701	22	100	30	1	1	1536998.1898986	1536998.1903818	80	1537001.2391505	1537001.2395978	40	1537004.5100013	1537004.5104848	100	del	1537005.7653259	1537006.2778358	1537006.2783257	120.0	3.0	1537007.3011341
296.76318359375	0.0	80	607771	23	93	80	0	0	1537009.7300152	1537009.7303447	80	1537013.1910966	1537013.19152	40	1537016.5667982	1537016.5673145	100	imm	1537017.909295	nan	nan	nan	nan	nan
300.22412109375	0.0	40	614859	23	93	80	0	0	1537009.7300152	1537009.7303447	80	1537013.1910966	1537013.19152	40	1537016.5667982	1537016.5673145	100	imm	1537017.909295	nan	nan	nan	nan	nan
303.599609375	0.0	100	621772	23	93	80	0	0	1537009.7300152	1537009.7303447	80	1537013.1910966	1537013.19152	40	1537016.5667982	1537016.5673145	100	imm	1537017.909295	nan	nan	nan	nan	nan
307.65234375	0.0	80	630072	24	73	210	1	0	1537020.6192941	1537020.6197477	80	1537023.7758191	1537023.7763327	40	1537027.1353033	1537027.135794	100	imm	1537028.8610586	1537029.3730699	1537029.3734843	120.0	2.0	1537030.4453575
310.80859375	0.0	40	636536	24	73	210	1	0	1537020.6192941	1537020.6197477	80	1537023.7758191	1537023.7763327	40	1537027.1353033	1537027.135794	100	imm	1537028.8610586	1537029.3730699	1537029.3734843	120.0	2.0	1537030.4453575
314.16796875	0.0	100	643416	24	73	210	1	0	1537020.6192941	1537020.6197477	80	1537023.7758191	1537023.7763327	40	1537027.1353033	1537027.135794	100	imm	1537028.8610586	1537029.3730699	1537029.3734843	120.0	2.0	1537030.4453575
316.40576171875	0.0	120	647999	24	73	210	1	0	1537020.6192941	1537020.6197477	80	1537023.7758191	1537023.7763327	40	1537027.1353033	1537027.135794	100	imm	1537028.8610586	1537029.3730699	1537029.3734843	120.0	2.0	1537030.4453575
319.9365234375	0.0	80	655230	25	90	13	1	0	1537032.9041076	1537032.904624	80	1537036.3739512	1537036.3744574	40	1537039.4274153	1537039.4278807	100	del	1537040.4070822	1537040.9160743	1537040.9163633	120.0	1.0	1537043.1100253
323.40625	0.0	40	662336	25	90	13	1	0	1537032.9041076	1537032.904624	80	1537036.3739512	1537036.3744574	40	1537039.4274153	1537039.4278807	100	del	1537040.4070822	1537040.9160743	1537040.9163633	120.0	1.0	1537043.1100253
326.4599609375	0.0	100	668590	25	90	13	1	0	1537032.9041076	1537032.904624	80	1537036.3739512	1537036.3744574	40	1537039.4274153	1537039.4278807	100	del	1537040.4070822	1537040.9160743	1537040.9163633	120.0	1.0	1537043.1100253
327.9482421875	0.0	120	671638	25	90	13	1	0	1537032.9041076	1537032.904624	80	1537036.3739512	1537036.3744574	40	1537039.4274153	1537039.4278807	100	del	1537040.4070822	1537040.9160743	1537040.9163633	120.0	1.0	1537043.1100253
332.39306640625	0.0	80	680741	26	100	240	0	0	1537045.3606796	1537045.3609984	80	1537048.4306983	1537048.4310805	40	1537051.5703166	1537051.5708281	100	del	1537052.9735785	nan	nan	nan	nan	nan
335.462890625	0.0	40	687028	26	100	240	0	0	1537045.3606796	1537045.3609984	80	1537048.4306983	1537048.4310805	40	1537051.5703166	1537051.5708281	100	del	1537052.9735785	nan	nan	nan	nan	nan
338.6025390625	0.0	100	693458	26	100	240	0	0	1537045.3606796	1537045.3609984	80	1537048.4306983	1537048.4310805	40	1537051.5703166	1537051.5708281	100	del	1537052.9735785	nan	nan	nan	nan	nan
342.96533203125	0.0	80	702393	27	77	210	1	0	1537055.9335044	1537055.9339523	80	1537059.0390958	1537059.0395969	40	1537062.113244	1537062.1137211	100	imm	1537062.7740909	1537063.287716	1537063.2882305	120.0	2.0	1537064.0211603
346.07080078125	0.0	40	708753	27	77	210	1	0	1537055.9335044	1537055.9339523	80	1537059.0390958	1537059.0395969	40	1537062.113244	1537062.1137211	100	imm	1537062.7740909	1537063.287716	1537063.2882305	120.0	2.0	1537064.0211603
349.14501953125	0.0	100	715049	27	77	210	1	0	1537055.9335044	1537055.9339523	80	1537059.0390958	1537059.0395969	40	1537062.113244	1537062.1137211	100	imm	1537062.7740909	1537063.287716	1537063.2882305	120.0	2.0	1537064.0211603
350.3193359375	0.0	120	717454	27	77	210	1	0	1537055.9335044	1537055.9339523	80	1537059.0390958	1537059.0395969	40	1537062.113244	1537062.1137211	100	imm	1537062.7740909	1537063.287716	1537063.2882305	120.0	2.0	1537064.0211603
353.33984375	0.0	80	723640	28	90	210	1	1	1537066.3083238	1537066.3087591	80	1537069.4730831	1537069.4735584	40	1537072.677881	1537072.678364	100	imm	1537073.4870098	1537073.9999956	1537074.0004184	120.0	2.0	1537074.7974371
356.50439453125	0.0	40	730121	28	90	210	1	1	1537066.3083238	1537066.3087591	80	1537069.4730831	1537069.4735584	40	1537072.677881	1537072.678364	100	imm	1537073.4870098	1537073.9999956	1537074.0004184	120.0	2.0	1537074.7974371
359.70947265625	0.0	100	736685	28	90	210	1	1	1537066.3083238	1537066.3087591	80	1537069.4730831	1537069.4735584	40	1537072.677881	1537072.678364	100	imm	1537073.4870098	1537073.9999956	1537074.0004184	120.0	2.0	1537074.7974371
361.03125	0.0	120	739392	28	90	210	1	1	1537066.3083238	1537066.3087591	80	1537069.4730831	1537069.4735584	40	1537072.677881	1537072.678364	100	imm	1537073.4870098	1537073.9999956	1537074.0004184	120.0	2.0	1537074.7974371
364.23779296875	0.0	80	745959	29	97	880	0	1	1537077.2065422	1537077.207188	80	1537080.6341074	1537080.6345965	40	1537083.9872167	1537083.9877075	100	imm	1537085.8294933	nan	nan	nan	nan	nan
367.66552734375	0.0	40	752979	29	97	880	0	1	1537077.2065422	1537077.207188	80	1537080.6341074	1537080.6345965	40	1537083.9872167	1537083.9877075	100	imm	1537085.8294933	nan	nan	nan	nan	nan
371.0185546875	0.0	100	759846	29	97	880	0	1	1537077.2065422	1537077.207188	80	1537080.6341074	1537080.6345965	40	1537083.9872167	1537083.9877075	100	imm	1537085.8294933	nan	nan	nan	nan	nan
375.5849609375	0.0	80	769198	30	63	30	1	0	1537088.5538642	1537088.5543161	80	1537091.8834652	1537091.8840276	40	1537095.0035704	1537095.004087	100	del	1537097.4860836	1537097.9977274	1537097.9981085	120.0	3.0	1537098.9502404
378.91455078125	0.0	40	776017	30	63	30	1	0	1537088.5538642	1537088.5543161	80	1537091.8834652	1537091.8840276	40	1537095.0035704	1537095.004087	100	del	1537097.4860836	1537097.9977274	1537097.9981085	120.0	3.0	1537098.9502404
382.0341796875	0.0	100	782406	30	63	30	1	0	1537088.5538642	1537088.5543161	80	1537091.8834652	1537091.8840276	40	1537095.0035704	1537095.004087	100	del	1537097.4860836	1537097.9977274	1537097.9981085	120.0	3.0	1537098.9502404
385.0283203125	0.0	120	788538	30	63	30	1	0	1537088.5538642	1537088.5543161	80	1537091.8834652	1537091.8840276	40	1537095.0035704	1537095.004087	100	del	1537097.4860836	1537097.9977274	1537097.9981085	120.0	3.0	1537098.9502404
388.30419921875	0.0	80	795247	31	97	210	1	1	1537101.2736103	1537101.274134	80	1537104.618841	1537104.6193348	40	1537107.9331064	1537107.9335871	100	imm	1537109.4137645	1537109.9269774	1537109.9274359	120.0	1.0	1537111.7653874
391.6494140625	0.0	40	802098	31	97	210	1	1	1537101.2736103	1537101.274134	80	1537104.618841	1537104.6193348	40	1537107.9331064	1537107.9335871	100	imm	1537109.4137645	1537109.9269774	1537109.9274359	120.0	1.0	1537111.7653874
394.96337890625	0.0	100	808885	31	97	210	1	1	1537101.2736103	1537101.274134	80	1537104.618841	1537104.6193348	40	1537107.9331064	1537107.9335871	100	imm	1537109.4137645	1537109.9269774	1537109.9274359	120.0	1.0	1537111.7653874
396.95751953125	0.0	120	812969	31	97	210	1	1	1537101.2736103	1537101.274134	80	1537104.618841	1537104.6193348	40	1537107.9331064	1537107.9335871	100	imm	1537109.4137645	1537109.9269774	1537109.9274359	120.0	1.0	1537111.7653874
400.98046875	0.0	80	821208	32	80	30	1	1	1537113.9504792	1537113.9508615	80	1537117.1404276	1537117.1409342	40	1537120.2395713	1537120.2400899	100	del	1537121.6372432	1537122.1477359	1537122.1480211	120.0	3.0	1537123.2616148
404.17041015625	0.0	40	827741	32	80	30	1	1	1537113.9504792	1537113.9508615	80	1537117.1404276	1537117.1409342	40	1537120.2395713	1537120.2400899	100	del	1537121.6372432	1537122.1477359	1537122.1480211	120.0	3.0	1537123.2616148
407.26953125	0.0	100	834088	32	80	30	1	1	1537113.9504792	1537113.9508615	80	1537117.1404276	1537117.1409342	40	1537120.2395713	1537120.2400899	100	del	1537121.6372432	1537122.1477359	1537122.1480211	120.0	3.0	1537123.2616148
409.177734375	0.0	120	837996	32	80	30	1	1	1537113.9504792	1537113.9508615	80	1537117.1404276	1537117.1409342	40	1537120.2395713	1537120.2400899	100	del	1537121.6372432	1537122.1477359	1537122.1480211	120.0	3.0	1537123.2616148
412.705078125	0.0	80	845220	33	80	20	0	1	1537125.6749424	1537125.6754684	80	1537128.9289071	1537128.9293824	40	1537132.1201898	1537132.120687	100	imm	1537135.2548085	nan	nan	nan	nan	nan
415.958984375	0.0	40	851884	33	80	20	0	1	1537125.6749424	1537125.6754684	80	1537128.9289071	1537128.9293824	40	1537132.1201898	1537132.120687	100	imm	1537135.2548085	nan	nan	nan	nan	nan
419.14990234375	0.0	100	858419	33	80	20	0	1	1537125.6749424	1537125.6754684	80	1537128.9289071	1537128.9293824	40	1537132.1201898	1537132.120687	100	imm	1537135.2548085	nan	nan	nan	nan	nan
425.18994140625	0.0	80	870789	34	73	20	0	1	1537138.1602183	1537138.1606813	80	1537141.2868517	1537141.287336	40	1537144.723121	1537144.7236348	100	del	1537145.2871062	nan	nan	nan	nan	nan
428.31640625	0.0	40	877192	34	73	20	0	1	1537138.1602183	1537138.1606813	80	1537141.2868517	1537141.287336	40	1537144.723121	1537144.7236348	100	del	1537145.2871062	nan	nan	nan	nan	nan
431.75244140625	0.0	100	884229	34	73	20	0	1	1537138.1602183	1537138.1606813	80	1537141.2868517	1537141.287336	40	1537144.723121	1537144.7236348	100	del	1537145.2871062	nan	nan	nan	nan	nan
435.24072265625	0.0	80	891373	35	70	210	1	1	1537148.211477	1537148.2119622	80	1537151.6422593	1537151.6427288	40	1537154.8408874	1537154.8413951	100	imm	1537156.9580048	1537157.4678094	1537157.4681915	120.0	1.0	1537157.7578255
438.67138671875	0.0	40	898399	35	70	210	1	1	1537148.211477	1537148.2119622	80	1537151.6422593	1537151.6427288	40	1537154.8408874	1537154.8413951	100	imm	1537156.9580048	1537157.4678094	1537157.4681915	120.0	1.0	1537157.7578255
441.8701171875	0.0	100	904950	35	70	210	1	1	1537148.211477	1537148.2119622	80	1537151.6422593	1537151.6427288	40	1537154.8408874	1537154.8413951	100	imm	1537156.9580048	1537157.4678094	1537157.4681915	120.0	1.0	1537157.7578255
444.4970703125	0.0	120	910330	35	70	210	1	1	1537148.211477	1537148.2119622	80	1537151.6422593	1537151.6427288	40	1537154.8408874	1537154.8413951	100	imm	1537156.9580048	1537157.4678094	1537157.4681915	120.0	1.0	1537157.7578255
446.9931640625	0.0	80	915442	36	93	410	0	0	1537159.9643128	1537159.9648604	80	1537163.4025258	1537163.4029927	40	1537166.6475592	1537166.6482261	100	imm	1537169.7510112	nan	nan	nan	nan	nan
450.431640625	0.0	40	922484	36	93	410	0	0	1537159.9643128	1537159.9648604	80	1537163.4025258	1537163.4029927	40	1537166.6475592	1537166.6482261	100	imm	1537169.7510112	nan	nan	nan	nan	nan
453.67626953125	0.0	100	929129	36	93	410	0	0	1537159.9643128	1537159.9648604	80	1537163.4025258	1537163.4029927	40	1537166.6475592	1537166.6482261	100	imm	1537169.7510112	nan	nan	nan	nan	nan
459.58154296875	0.0	80	941223	37	73	30	1	0	1537172.5530267	1537172.5535118	80	1537175.9095928	1537175.9100258	40	1537179.4036475	1537179.4042513	100	del	1537181.6951277	1537182.2072119	1537182.2076779	120.0	3.0	1537183.2293957
462.93798828125	0.0	40	948097	37	73	30	1	0	1537172.5530267	1537172.5535118	80	1537175.9095928	1537175.9100258	40	1537179.4036475	1537179.4042513	100	del	1537181.6951277	1537182.2072119	1537182.2076779	120.0	3.0	1537183.2293957
466.43212890625	0.0	100	955253	37	73	30	1	0	1537172.5530267	1537172.5535118	80	1537175.9095928	1537175.9100258	40	1537179.4036475	1537179.4042513	100	del	1537181.6951277	1537182.2072119	1537182.2076779	120.0	3.0	1537183.2293957
469.2353515625	0.0	120	960994	37	73	30	1	0	1537172.5530267	1537172.5535118	80	1537175.9095928	1537175.9100258	40	1537179.4036475	1537179.4042513	100	del	1537181.6951277	1537182.2072119	1537182.2076779	120.0	3.0	1537183.2293957
472.54541015625	0.0	80	967773	38	97	240	0	0	1537185.5169414	1537185.5174529	80	1537188.8426061	1537188.8430349	40	1537192.138449	1537192.1387946	100	imm	1537192.7748118	nan	nan	nan	nan	nan
475.87060546875	0.0	40	974583	38	97	240	0	0	1537185.5169414	1537185.5174529	80	1537188.8426061	1537188.8430349	40	1537192.138449	1537192.1387946	100	imm	1537192.7748118	nan	nan	nan	nan	nan
479.16650390625	0.0	100	981333	38	97	240	0	0	1537185.5169414	1537185.5174529	80	1537188.8426061	1537188.8430349	40	1537192.138449	1537192.1387946	100	imm	1537192.7748118	nan	nan	nan	nan	nan
482.78369140625	0.0	80	988741	39	67	210	1	0	1537195.7555318	1537195.7559524	80	1537199.1958829	1537199.1963335	40	1537202.2936897	1537202.2946046	100	imm	1537204.4470897	1537204.9583205	1537204.9587058	120.0	2.0	1537205.6462954
486.2236328125	0.0	40	995786	39	67	210	1	0	1537195.7555318	1537195.7559524	80	1537199.1958829	1537199.1963335	40	1537202.2936897	1537202.2946046	100	imm	1537204.4470897	1537204.9583205	1537204.9587058	120.0	2.0	1537205.6462954
489.3212890625	0.0	100	1002130	39	67	210	1	0	1537195.7555318	1537195.7559524	80	1537199.1958829	1537199.1963335	40	1537202.2936897	1537202.2946046	100	imm	1537204.4470897	1537204.9583205	1537204.9587058	120.0	2.0	1537205.6462954
491.98583984375	0.0	120	1007587	39	67	210	1	0	1537195.7555318	1537195.7559524	80	1537199.1958829	1537199.1963335	40	1537202.2936897	1537202.2946046	100	imm	1537204.4470897	1537204.9583205	1537204.9587058	120.0	2.0	1537205.6462954
494.779296875	0.0	80	1013308	40	73	240	0	0	1537207.7518534	1537207.7523485	80	1537210.881098	1537210.8815944	40	1537214.2702469	1537214.2707943	100	del	1537217.2696889	nan	nan	nan	nan	nan
497.90869140625	0.0	40	1019717	40	73	240	0	0	1537207.7518534	1537207.7523485	80	1537210.881098	1537210.8815944	40	1537214.2702469	1537214.2707943	100	del	1537217.2696889	nan	nan	nan	nan	nan
501.2978515625	0.0	100	1026658	40	73	240	0	0	1537207.7518534	1537207.7523485	80	1537210.881098	1537210.8815944	40	1537214.2702469	1537214.2707943	100	del	1537217.2696889	nan	nan	nan	nan	nan
531.42919921875	0.0	80	1088367	41	57	600	1	1	1537244.4024759	1537244.4027751	80	1537247.9012898	1537247.9017248	40	1537251.2683207	1537251.2688347	100	imm	1537251.9422324	1537252.4517755	1537252.4520685	120.0	2.0	1537253.3500383
534.927734375	0.0	40	1095532	41	57	600	1	1	1537244.4024759	1537244.4027751	80	1537247.9012898	1537247.9017248	40	1537251.2683207	1537251.2688347	100	imm	1537251.9422324	1537252.4517755	1537252.4520685	120.0	2.0	1537253.3500383
538.294921875	0.0	100	1102428	41	57	600	1	1	1537244.4024759	1537244.4027751	80	1537247.9012898	1537247.9017248	40	1537251.2683207	1537251.2688347	100	imm	1537251.9422324	1537252.4517755	1537252.4520685	120.0	2.0	1537253.3500383
539.47802734375	0.0	120	1104851	41	57	600	1	1	1537244.4024759	1537244.4027751	80	1537247.9012898	1537247.9017248	40	1537251.2683207	1537251.2688347	100	imm	1537251.9422324	1537252.4517755	1537252.4520685	120.0	2.0	1537253.3500383
542.47900390625	0.0	80	1110997	42	70	80	0	1	1537255.4525234	1537255.4529243	80	1537258.890606	1537258.8911069	40	1537262.358894	1537262.3593812	100	imm	1537263.2856122	nan	nan	nan	nan	nan
545.9169921875	0.0	40	1118038	42	70	80	0	1	1537255.4525234	1537255.4529243	80	1537258.890606	1537258.8911069	40	1537262.358894	1537262.3593812	100	imm	1537263.2856122	nan	nan	nan	nan	nan
549.38525390625	0.0	100	1125141	42	70	80	0	1	1537255.4525234	1537255.4529243	80	1537258.890606	1537258.8911069	40	1537262.358894	1537262.3593812	100	imm	1537263.2856122	nan	nan	nan	nan	nan
553.30908203125	0.0	80	1133177	43	63	240	0	0	1537266.2831171	1537266.283599	80	1537269.5761663	1537269.5766611	40	1537272.866936	1537272.867246	100	imm	1537274.0860304	nan	nan	nan	nan	nan
556.60205078125	0.0	40	1139921	43	63	240	0	0	1537266.2831171	1537266.283599	80	1537269.5761663	1537269.5766611	40	1537272.866936	1537272.867246	100	imm	1537274.0860304	nan	nan	nan	nan	nan
559.892578125	0.0	100	1146660	43	63	240	0	0	1537266.2831171	1537266.283599	80	1537269.5761663	1537269.5766611	40	1537272.866936	1537272.867246	100	imm	1537274.0860304	nan	nan	nan	nan	nan
563.71630859375	0.0	80	1154491	44	83	80	0	0	1537276.6906038	1537276.691123	80	1537279.955397	1537279.9558602	40	1537283.23892	1537283.2392942	100	del	1537283.96734	nan	nan	nan	nan	nan
566.98095703125	0.0	40	1161177	44	83	80	0	0	1537276.6906038	1537276.691123	80	1537279.955397	1537279.9558602	40	1537283.23892	1537283.2392942	100	del	1537283.96734	nan	nan	nan	nan	nan
570.2646484375	0.0	100	1167902	44	83	80	0	0	1537276.6906038	1537276.691123	80	1537279.955397	1537279.9558602	40	1537283.23892	1537283.2392942	100	del	1537283.96734	nan	nan	nan	nan	nan
573.59033203125	0.0	80	1174713	45	57	13	1	0	1537286.5647145	1537286.5650886	80	1537289.8204635	1537289.8209671	40	1537293.1020288	1537293.1025505	100	del	1537295.5816619	1537296.0939254	1537296.0944083	120.0	3.0	1537296.6054815
576.845703125	0.0	40	1181380	45	57	13	1	0	1537286.5647145	1537286.5650886	80	1537289.8204635	1537289.8209671	40	1537293.1020288	1537293.1025505	100	del	1537295.5816619	1537296.0939254	1537296.0944083	120.0	3.0	1537296.6054815
580.12744140625	0.0	100	1188101	45	57	13	1	0	1537286.5647145	1537286.5650886	80	1537289.8204635	1537289.8209671	40	1537293.1020288	1537293.1025505	100	del	1537295.5816619	1537296.0939254	1537296.0944083	120.0	3.0	1537296.6054815
583.119140625	0.0	120	1194228	45	57	13	1	0	1537286.5647145	1537286.5650886	80	1537289.8204635	1537289.8209671	40	1537293.1020288	1537293.1025505	100	del	1537295.5816619	1537296.0939254	1537296.0944083	120.0	3.0	1537296.6054815
585.74609375	0.0	80	1199608	46	67	270	1	0	1537298.7209136	1537298.721412	80	1537302.0399091	1537302.040439	40	1537305.0672712	1537305.0677205	100	imm	1537307.317546	1537307.8277473	1537307.8281299	120.0	4.0	1537308.4218699
589.06494140625	0.0	40	1206405	46	67	270	1	0	1537298.7209136	1537298.721412	80	1537302.0399091	1537302.040439	40	1537305.0672712	1537305.0677205	100	imm	1537307.317546	1537307.8277473	1537307.8281299	120.0	4.0	1537308.4218699
592.09228515625	0.0	100	1212605	46	67	270	1	0	1537298.7209136	1537298.721412	80	1537302.0399091	1537302.040439	40	1537305.0672712	1537305.0677205	100	imm	1537307.317546	1537307.8277473	1537307.8281299	120.0	4.0	1537308.4218699
594.8525390625	0.0	120	1218258	46	67	270	1	0	1537298.7209136	1537298.721412	80	1537302.0399091	1537302.040439	40	1537305.0672712	1537305.0677205	100	imm	1537307.317546	1537307.8277473	1537307.8281299	120.0	4.0	1537308.4218699
597.62109375	0.0	80	1223928	47	87	600	1	0	1537310.5963571	1537310.5968613	80	1537313.8709837	1537313.8714258	40	1537317.0476241	1537317.0484104	100	imm	1537317.7193439	1537318.2293032	1537318.2296978	120.0	3.0	1537319.7181925
600.8955078125	0.0	40	1230634	47	87	600	1	0	1537310.5963571	1537310.5968613	80	1537313.8709837	1537313.8714258	40	1537317.0476241	1537317.0484104	100	imm	1537317.7193439	1537318.2293032	1537318.2296978	120.0	3.0	1537319.7181925
604.072265625	0.0	100	1237140	47	87	600	1	0	1537310.5963571	1537310.5968613	80	1537313.8709837	1537313.8714258	40	1537317.0476241	1537317.0484104	100	imm	1537317.7193439	1537318.2293032	1537318.2296978	120.0	3.0	1537319.7181925
605.25390625	0.0	120	1239560	47	87	600	1	0	1537310.5963571	1537310.5968613	80	1537313.8709837	1537313.8714258	40	1537317.0476241	1537317.0484104	100	imm	1537317.7193439	1537318.2293032	1537318.2296978	120.0	3.0	1537319.7181925
609.0595703125	0.0	80	1247354	48	77	600	1	1	1537322.035073	1537322.0355771	80	1537325.223671	1537325.2241766	40	1537328.3049067	1537328.3054363	100	imm	1537329.2138536	1537329.7263395	1537329.7268416	120.0	2.0	1537331.5657391
612.248046875	0.0	40	1253884	48	77	600	1	1	1537322.035073	1537322.0355771	80	1537325.223671	1537325.2241766	40	1537328.3049067	1537328.3054363	100	imm	1537329.2138536	1537329.7263395	1537329.7268416	120.0	2.0	1537331.5657391
615.3291015625	0.0	100	1260194	48	77	600	1	1	1537322.035073	1537322.0355771	80	1537325.223671	1537325.2241766	40	1537328.3049067	1537328.3054363	100	imm	1537329.2138536	1537329.7263395	1537329.7268416	120.0	2.0	1537331.5657391
616.75048828125	0.0	120	1263105	48	77	600	1	1	1537322.035073	1537322.0355771	80	1537325.223671	1537325.2241766	40	1537328.3049067	1537328.3054363	100	imm	1537329.2138536	1537329.7263395	1537329.7268416	120.0	2.0	1537331.5657391
621.0625	0.0	80	1271936	49	63	600	1	0	1537334.0381298	1537334.0386056	80	1537337.3662872	1537337.366802	40	1537340.7072842	1537340.7078623	100	imm	1537341.726286	1537342.2366067	1537342.2369601	120.0	2.0	1537345.3016709
624.39013671875	0.0	40	1278751	49	63	600	1	0	1537334.0381298	1537334.0386056	80	1537337.3662872	1537337.366802	40	1537340.7072842	1537340.7078623	100	imm	1537341.726286	1537342.2366067	1537342.2369601	120.0	2.0	1537345.3016709
627.7314453125	0.0	100	1285594	49	63	600	1	0	1537334.0381298	1537334.0386056	80	1537337.3662872	1537337.366802	40	1537340.7072842	1537340.7078623	100	imm	1537341.726286	1537342.2366067	1537342.2369601	120.0	2.0	1537345.3016709
629.26025390625	0.0	120	1288725	49	63	600	1	0	1537334.0381298	1537334.0386056	80	1537337.3662872	1537337.366802	40	1537340.7072842	1537340.7078623	100	imm	1537341.726286	1537342.2366067	1537342.2369601	120.0	2.0	1537345.3016709
634.67626953125	0.0	80	1299817	50	70	880	0	0	1537347.6526734	1537347.6531464	80	1537351.0324504	1537351.0329211	40	1537354.4672773	1537354.4677882	100	imm	1537357.4870613	nan	nan	nan	nan	nan
638.05615234375	0.0	40	1306739	50	70	880	0	0	1537347.6526734	1537347.6531464	80	1537351.0324504	1537351.0329211	40	1537354.4672773	1537354.4677882	100	imm	1537357.4870613	nan	nan	nan	nan	nan
641.49072265625	0.0	100	1313773	50	70	880	0	0	1537347.6526734	1537347.6531464	80	1537351.0324504	1537351.0329211	40	1537354.4672773	1537354.4677882	100	imm	1537357.4870613	nan	nan	nan	nan	nan
647.28662109375	0.0	80	1325643	51	70	20	0	0	1537360.2631652	1537360.2636574	80	1537363.346887	1537363.3473465	40	1537366.5507667	1537366.5512682	100	del	1537367.3737094	nan	nan	nan	nan	nan
650.3701171875	0.0	40	1331958	51	70	20	0	0	1537360.2631652	1537360.2636574	80	1537363.346887	1537363.3473465	40	1537366.5507667	1537366.5512682	100	del	1537367.3737094	nan	nan	nan	nan	nan
653.57421875	0.0	100	1338520	51	70	20	0	0	1537360.2631652	1537360.2636574	80	1537363.346887	1537363.3473465	40	1537366.5507667	1537366.5512682	100	del	1537367.3737094	nan	nan	nan	nan	nan
657.32470703125	0.0	80	1346201	52	100	210	1	0	1537370.3016068	1537370.3020915	80	1537373.3952798	1537373.396594	40	1537376.575033	1537376.5755553	100	del	1537377.3583039	1537377.8679262	1537377.8682684	120.0	2.0	1537378.5497656
660.41845703125	0.0	40	1352537	52	100	210	1	0	1537370.3016068	1537370.3020915	80	1537373.3952798	1537373.396594	40	1537376.575033	1537376.5755553	100	del	1537377.3583039	1537377.8679262	1537377.8682684	120.0	2.0	1537378.5497656
663.59814453125	0.0	100	1359049	52	100	210	1	0	1537370.3016068	1537370.3020915	80	1537373.3952798	1537373.396594	40	1537376.575033	1537376.5755553	100	del	1537377.3583039	1537377.8679262	1537377.8682684	120.0	2.0	1537378.5497656
664.890625	0.0	120	1361696	52	100	210	1	0	1537370.3016068	1537370.3020915	80	1537373.3952798	1537373.396594	40	1537376.575033	1537376.5755553	100	del	1537377.3583039	1537377.8679262	1537377.8682684	120.0	2.0	1537378.5497656
668.07177734375	0.0	80	1368211	53	93	600	1	0	1537381.0488946	1537381.0493925	80	1537384.4599019	1537384.4615692	40	1537387.5848226	1537387.5852997	100	imm	1537390.0714519	1537390.5826468	1537390.5830911	120.0	1.0	1537391.6543515
671.48291015625	0.0	40	1375197	53	93	600	1	0	1537381.0488946	1537381.0493925	80	1537384.4599019	1537384.4615692	40	1537387.5848226	1537387.5852997	100	imm	1537390.0714519	1537390.5826468	1537390.5830911	120.0	1.0	1537391.6543515
674.607421875	0.0	100	1381596	53	93	600	1	0	1537381.0488946	1537381.0493925	80	1537384.4599019	1537384.4615692	40	1537387.5848226	1537387.5852997	100	imm	1537390.0714519	1537390.5826468	1537390.5830911	120.0	1.0	1537391.6543515
677.60546875	0.0	120	1387736	53	93	600	1	0	1537381.0488946	1537381.0493925	80	1537384.4599019	1537384.4615692	40	1537387.5848226	1537387.5852997	100	imm	1537390.0714519	1537390.5826468	1537390.5830911	120.0	1.0	1537391.6543515
681.19140625	0.0	80	1395080	54	100	80	0	1	1537394.1689569	1537394.1694867	80	1537397.209438	1537397.2098491	40	1537400.4326978	1537400.4330818	100	del	1537401.9095163	nan	nan	nan	nan	nan
684.23193359375	0.0	40	1401307	54	100	80	0	1	1537394.1689569	1537394.1694867	80	1537397.209438	1537397.2098491	40	1537400.4326978	1537400.4330818	100	del	1537401.9095163	nan	nan	nan	nan	nan
687.455078125	0.0	100	1407908	54	100	80	0	1	1537394.1689569	1537394.1694867	80	1537397.209438	1537397.2098491	40	1537400.4326978	1537400.4330818	100	del	1537401.9095163	nan	nan	nan	nan	nan
691.65087890625	0.0	80	1416501	55	87	880	0	1	1537404.6287301	1537404.6291672	80	1537407.8372137	1537407.8378984	40	1537410.9068333	1537410.9073202	100	imm	1537411.662354	nan	nan	nan	nan	nan
694.859375	0.0	40	1423072	55	87	880	0	1	1537404.6287301	1537404.6291672	80	1537407.8372137	1537407.8378984	40	1537410.9068333	1537410.9073202	100	imm	1537411.662354	nan	nan	nan	nan	nan
697.9287109375	0.0	100	1429358	55	87	880	0	1	1537404.6287301	1537404.6291672	80	1537407.8372137	1537407.8378984	40	1537410.9068333	1537410.9073202	100	imm	1537411.662354	nan	nan	nan	nan	nan
701.4140625	0.0	80	1436496	56	70	30	1	0	1537414.3920289	1537414.3925177	80	1537417.7070131	1537417.7075388	40	1537421.2142971	1537421.2148082	100	del	1537424.1584743	1537424.6676951	1537424.6680542	120.0	4.0	1537425.3433314
704.72900390625	0.0	40	1443285	56	70	30	1	0	1537414.3920289	1537414.3925177	80	1537417.7070131	1537417.7075388	40	1537421.2142971	1537421.2148082	100	del	1537424.1584743	1537424.6676951	1537424.6680542	120.0	4.0	1537425.3433314
708.23583984375	0.0	100	1450467	56	70	30	1	0	1537414.3920289	1537414.3925177	80	1537417.7070131	1537417.7075388	40	1537421.2142971	1537421.2148082	100	del	1537424.1584743	1537424.6676951	1537424.6680542	120.0	4.0	1537425.3433314
711.689453125	0.0	120	1457540	56	70	30	1	0	1537414.3920289	1537414.3925177	80	1537417.7070131	1537417.7075388	40	1537421.2142971	1537421.2148082	100	del	1537424.1584743	1537424.6676951	1537424.6680542	120.0	4.0	1537425.3433314
714.48583984375	0.0	80	1463267	57	67	30	1	1	1537427.4644055	1537427.4646753	80	1537430.6490526	1537430.6494692	40	1537433.7955008	1537433.7959891	100	del	1537435.1255759	1537435.6396858	1537435.6401699	120.0	4.0	1537436.5898244
717.67041015625	0.0	40	1469789	57	67	30	1	1	1537427.4644055	1537427.4646753	80	1537430.6490526	1537430.6494692	40	1537433.7955008	1537433.7959891	100	del	1537435.1255759	1537435.6396858	1537435.6401699	120.0	4.0	1537436.5898244
720.81689453125	0.0	100	1476233	57	67	30	1	1	1537427.4644055	1537427.4646753	80	1537430.6490526	1537430.6494692	40	1537433.7955008	1537433.7959891	100	del	1537435.1255759	1537435.6396858	1537435.6401699	120.0	4.0	1537436.5898244
722.6611328125	0.0	120	1480010	57	67	30	1	1	1537427.4644055	1537427.4646753	80	1537430.6490526	1537430.6494692	40	1537433.7955008	1537433.7959891	100	del	1537435.1255759	1537435.6396858	1537435.6401699	120.0	4.0	1537436.5898244
725.77392578125	0.0	80	1486385	58	77	270	1	0	1537438.7525772	1537438.7530875	80	1537441.8543694	1537441.854787	40	1537444.8785194	1537444.8790311	100	del	1537446.1979219	1537446.7073768	1537446.7077144	120.0	2.0	1537448.911299
728.87548828125	0.0	40	1492737	58	77	270	1	0	1537438.7525772	1537438.7530875	80	1537441.8543694	1537441.854787	40	1537444.8785194	1537444.8790311	100	del	1537446.1979219	1537446.7073768	1537446.7077144	120.0	2.0	1537448.911299
731.8994140625	0.0	100	1498930	58	77	270	1	0	1537438.7525772	1537438.7530875	80	1537441.8543694	1537441.854787	40	1537444.8785194	1537444.8790311	100	del	1537446.1979219	1537446.7073768	1537446.7077144	120.0	2.0	1537448.911299
733.728515625	0.0	120	1502676	58	77	270	1	0	1537438.7525772	1537438.7530875	80	1537441.8543694	1537441.854787	40	1537444.8785194	1537444.8790311	100	del	1537446.1979219	1537446.7073768	1537446.7077144	120.0	2.0	1537448.911299
738.171875	0.0	80	1511776	59	97	410	0	0	1537451.1509085	1537451.1514428	80	1537454.2802905	1537454.2809381	40	1537457.7278528	1537457.7282485	100	imm	1537458.5262852	nan	nan	nan	nan	nan
741.30126953125	0.0	40	1518185	59	97	410	0	0	1537451.1509085	1537451.1514428	80	1537454.2802905	1537454.2809381	40	1537457.7278528	1537457.7282485	100	imm	1537458.5262852	nan	nan	nan	nan	nan
744.74853515625	0.0	100	1525245	59	97	410	0	0	1537451.1509085	1537451.1514428	80	1537454.2802905	1537454.2809381	40	1537457.7278528	1537457.7282485	100	imm	1537458.5262852	nan	nan	nan	nan	nan
748.3291015625	0.0	80	1532578	60	93	30	1	0	1537461.3086529	1537461.3091054	80	1537464.7732663	1537464.773712	40	1537468.273282	1537468.273791	100	del	1537468.7983795	1537469.3095276	1537469.3099226	120.0	3.0	1537470.0221065
751.7939453125	0.0	40	1539674	60	93	30	1	0	1537461.3086529	1537461.3091054	80	1537464.7732663	1537464.773712	40	1537468.273282	1537468.273791	100	del	1537468.7983795	1537469.3095276	1537469.3099226	120.0	3.0	1537470.0221065
755.2939453125	0.0	100	1546842	60	93	30	1	0	1537461.3086529	1537461.3091054	80	1537464.7732663	1537464.773712	40	1537468.273282	1537468.273791	100	del	1537468.7983795	1537469.3095276	1537469.3099226	120.0	3.0	1537470.0221065
756.330078125	0.0	120	1548964	60	93	30	1	0	1537461.3086529	1537461.3091054	80	1537464.7732663	1537464.773712	40	1537468.273282	1537468.273791	100	del	1537468.7983795	1537469.3095276	1537469.3099226	120.0	3.0	1537470.0221065
785.72119140625	0.0	80	1609157	61	53	270	1	0	1537498.7015911	1537498.7020607	80	1537501.7685562	1537501.7690535	40	1537505.245473	1537505.2459551	100	imm	1537506.4074464	1537506.9179785	1537506.9183607	120.0	2.0	1537507.190219
788.7880859375	0.0	40	1615438	61	53	270	1	0	1537498.7015911	1537498.7020607	80	1537501.7685562	1537501.7690535	40	1537505.245473	1537505.2459551	100	imm	1537506.4074464	1537506.9179785	1537506.9183607	120.0	2.0	1537507.190219
792.26513671875	0.0	100	1622559	61	53	270	1	0	1537498.7015911	1537498.7020607	80	1537501.7685562	1537501.7690535	40	1537505.245473	1537505.2459551	100	imm	1537506.4074464	1537506.9179785	1537506.9183607	120.0	2.0	1537507.190219
793.9375	0.0	120	1625984	61	53	270	1	0	1537498.7015911	1537498.7020607	80	1537501.7685562	1537501.7690535	40	1537505.245473	1537505.2459551	100	imm	1537506.4074464	1537506.9179785	1537506.9183607	120.0	2.0	1537507.190219
796.5224609375	0.0	80	1631278	62	63	20	0	0	1537509.5033696	1537509.5038853	80	1537512.9527074	1537512.9531967	40	1537516.178728	1537516.179264	100	imm	1537519.8139538	nan	nan	nan	nan	nan
799.9716796875	0.0	40	1638342	62	63	20	0	0	1537509.5033696	1537509.5038853	80	1537512.9527074	1537512.9531967	40	1537516.178728	1537516.179264	100	imm	1537519.8139538	nan	nan	nan	nan	nan
803.19775390625	0.0	100	1644949	62	63	20	0	0	1537509.5033696	1537509.5038853	80	1537512.9527074	1537512.9531967	40	1537516.178728	1537516.179264	100	imm	1537519.8139538	nan	nan	nan	nan	nan
809.65380859375	0.0	80	1658171	63	53	600	1	1	1537522.6347116	1537522.6352036	80	1537525.6767055	1537525.6771099	40	1537529.1520664	1537529.1525456	100	imm	1537531.4215235	1537531.9314391	1537531.9317506	120.0	1.0	1537532.2218561
812.6953125	0.0	40	1664400	63	53	600	1	1	1537522.6347116	1537522.6352036	80	1537525.6767055	1537525.6771099	40	1537529.1520664	1537529.1525456	100	imm	1537531.4215235	1537531.9314391	1537531.9317506	120.0	1.0	1537532.2218561
816.1708984375	0.0	100	1671518	63	53	600	1	1	1537522.6347116	1537522.6352036	80	1537525.6767055	1537525.6771099	40	1537529.1520664	1537529.1525456	100	imm	1537531.4215235	1537531.9314391	1537531.9317506	120.0	1.0	1537532.2218561
818.9501953125	0.0	120	1677210	63	53	600	1	1	1537522.6347116	1537522.6352036	80	1537525.6767055	1537525.6771099	40	1537529.1520664	1537529.1525456	100	imm	1537531.4215235	1537531.9314391	1537531.9317506	120.0	1.0	1537532.2218561
821.57568359375	0.0	80	1682587	64	60	270	1	1	1537534.5570998	1537534.5574441	80	1537537.6165015	1537537.6169248	40	1537540.9802495	1537540.9807744	100	imm	1537544.0459524	1537544.5561009	1537544.5564339	120.0	2.0	1537545.4795206
824.63525390625	0.0	40	1688853	64	60	270	1	1	1537534.5570998	1537534.5574441	80	1537537.6165015	1537537.6169248	40	1537540.9802495	1537540.9807744	100	imm	1537544.0459524	1537544.5561009	1537544.5564339	120.0	2.0	1537545.4795206
827.99853515625	0.0	100	1695741	64	60	270	1	1	1537534.5570998	1537534.5574441	80	1537537.6165015	1537537.6169248	40	1537540.9802495	1537540.9807744	100	imm	1537544.0459524	1537544.5561009	1537544.5564339	120.0	2.0	1537545.4795206
831.57421875	0.0	120	1703064	64	60	270	1	1	1537534.5570998	1537534.5574441	80	1537537.6165015	1537537.6169248	40	1537540.9802495	1537540.9807744	100	imm	1537544.0459524	1537544.5561009	1537544.5564339	120.0	2.0	1537545.4795206
834.71142578125	0.0	80	1709489	65	70	600	1	1	1537547.6930745	1537547.6934961	80	1537550.7427706	1537550.7432645	40	1537553.8632047	1537553.8636354	100	imm	1537554.8218332	1537555.332434	1537555.3327586	120.0	1.0	1537556.8138269
837.7607421875	0.0	40	1715734	65	70	600	1	1	1537547.6930745	1537547.6934961	80	1537550.7427706	1537550.7432645	40	1537553.8632047	1537553.8636354	100	imm	1537554.8218332	1537555.332434	1537555.3327586	120.0	1.0	1537556.8138269
840.88134765625	0.0	100	1722125	65	70	600	1	1	1537547.6930745	1537547.6934961	80	1537550.7427706	1537550.7432645	40	1537553.8632047	1537553.8636354	100	imm	1537554.8218332	1537555.332434	1537555.3327586	120.0	1.0	1537556.8138269
842.3505859375	0.0	120	1725134	65	70	600	1	1	1537547.6930745	1537547.6934961	80	1537550.7427706	1537550.7432645	40	1537553.8632047	1537553.8636354	100	imm	1537554.8218332	1537555.332434	1537555.3327586	120.0	1.0	1537556.8138269
845.97021484375	0.0	80	1732547	66	60	13	1	1	1537558.9520078	1537558.9524892	80	1537562.0716282	1537562.0719731	40	1537565.435965	1537565.4365986	100	del	1537568.1976271	1537568.7083218	1537568.7086351	120.0	2.0	1537569.8550556
849.08935546875	0.0	40	1738935	66	60	13	1	1	1537558.9520078	1537558.9524892	80	1537562.0716282	1537562.0719731	40	1537565.435965	1537565.4365986	100	del	1537568.1976271	1537568.7083218	1537568.7086351	120.0	2.0	1537569.8550556
852.45361328125	0.0	100	1745825	66	60	13	1	1	1537558.9520078	1537558.9524892	80	1537562.0716282	1537562.0719731	40	1537565.435965	1537565.4365986	100	del	1537568.1976271	1537568.7083218	1537568.7086351	120.0	2.0	1537569.8550556
855.72607421875	0.0	120	1752527	66	60	13	1	1	1537558.9520078	1537558.9524892	80	1537562.0716282	1537562.0719731	40	1537565.435965	1537565.4365986	100	del	1537568.1976271	1537568.7083218	1537568.7086351	120.0	2.0	1537569.8550556
859.2646484375	0.0	80	1759774	67	87	410	0	0	1537572.2470642	1537572.2475573	80	1537575.5282366	1537575.5287351	40	1537578.8187517	1537578.8192292	100	imm	1537579.887337	nan	nan	nan	nan	nan
862.5458984375	0.0	40	1766494	67	87	410	0	0	1537572.2470642	1537572.2475573	80	1537575.5282366	1537575.5287351	40	1537578.8187517	1537578.8192292	100	imm	1537579.887337	nan	nan	nan	nan	nan
865.8359375	0.0	100	1773232	67	87	410	0	0	1537572.2470642	1537572.2475573	80	1537575.5282366	1537575.5287351	40	1537578.8187517	1537578.8192292	100	imm	1537579.887337	nan	nan	nan	nan	nan
869.73974609375	0.0	80	1781227	68	77	80	0	0	1537582.7226782	1537582.7231751	80	1537586.2232351	1537586.223721	40	1537589.5544896	1537589.5549858	100	imm	1537590.0698596	nan	nan	nan	nan	nan
873.240234375	0.0	40	1788396	68	77	80	0	0	1537582.7226782	1537582.7231751	80	1537586.2232351	1537586.223721	40	1537589.5544896	1537589.5549858	100	imm	1537590.0698596	nan	nan	nan	nan	nan
876.57177734375	0.0	100	1795219	68	77	80	0	0	1537582.7226782	1537582.7231751	80	1537586.2232351	1537586.223721	40	1537589.5544896	1537589.5549858	100	imm	1537590.0698596	nan	nan	nan	nan	nan
879.9033203125	0.0	80	1802042	69	87	270	1	0	1537592.8860811	1537592.8865957	80	1537596.3482214	1537596.3487135	40	1537599.6463088	1537599.6467822	100	imm	1537601.8225736	1537602.3333442	1537602.333699	120.0	3.0	1537602.5665835
883.365234375	0.0	40	1809132	69	87	270	1	0	1537592.8860811	1537592.8865957	80	1537596.3482214	1537596.3487135	40	1537599.6463088	1537599.6467822	100	imm	1537601.8225736	1537602.3333442	1537602.333699	120.0	3.0	1537602.5665835
886.6630859375	0.0	100	1815886	69	87	270	1	0	1537592.8860811	1537592.8865957	80	1537596.3482214	1537596.3487135	40	1537599.6463088	1537599.6467822	100	imm	1537601.8225736	1537602.3333442	1537602.333699	120.0	3.0	1537602.5665835
889.35009765625	0.0	120	1821389	69	87	270	1	0	1537592.8860811	1537592.8865957	80	1537596.3482214	1537596.3487135	40	1537599.6463088	1537599.6467822	100	imm	1537601.8225736	1537602.3333442	1537602.333699	120.0	3.0	1537602.5665835
891.76708984375	0.0	80	1826339	70	100	13	1	0	1537604.7502337	1537604.7507056	80	1537608.2361799	1537608.236764	40	1537611.4697262	1537611.4702455	100	del	1537612.1256929	1537612.6355359	1537612.635844	120.0	3.0	1537613.0224166
895.2529296875	0.0	40	1833478	70	100	13	1	0	1537604.7502337	1537604.7507056	80	1537608.2361799	1537608.236764	40	1537611.4697262	1537611.4702455	100	del	1537612.1256929	1537612.6355359	1537612.635844	120.0	3.0	1537613.0224166
898.486328125	0.0	100	1840100	70	100	13	1	0	1537604.7502337	1537604.7507056	80	1537608.2361799	1537608.236764	40	1537611.4697262	1537611.4702455	100	del	1537612.1256929	1537612.6355359	1537612.635844	120.0	3.0	1537613.0224166
899.65185546875	0.0	120	1842487	70	100	13	1	0	1537604.7502337	1537604.7507056	80	1537608.2361799	1537608.236764	40	1537611.4697262	1537611.4702455	100	del	1537612.1256929	1537612.6355359	1537612.635844	120.0	3.0	1537613.0224166
902.353515625	0.0	80	1848020	71	73	880	0	1	1537615.3371457	1537615.3375411	80	1537618.7047516	1537618.7052072	40	1537622.057335	1537622.0578086	100	imm	1537622.9421189	nan	nan	nan	nan	nan
905.72119140625	0.0	40	1854917	71	73	880	0	1	1537615.3371457	1537615.3375411	80	1537618.7047516	1537618.7052072	40	1537622.057335	1537622.0578086	100	imm	1537622.9421189	nan	nan	nan	nan	nan
909.07373046875	0.0	100	1861783	71	73	880	0	1	1537615.3371457	1537615.3375411	80	1537618.7047516	1537618.7052072	40	1537622.057335	1537622.0578086	100	imm	1537622.9421189	nan	nan	nan	nan	nan
912.58056640625	0.0	80	1868965	72	63	210	1	1	1537625.5642347	1537625.5648095	80	1537628.6134281	1537628.6139552	40	1537631.764735	1537631.7652371	100	imm	1537633.9660735	1537634.4779954	1537634.4785	120.0	3.0	1537634.8554322
915.62939453125	0.0	40	1875209	72	63	210	1	1	1537625.5642347	1537625.5648095	80	1537628.6134281	1537628.6139552	40	1537631.764735	1537631.7652371	100	imm	1537633.9660735	1537634.4779954	1537634.4785	120.0	3.0	1537634.8554322
918.78076171875	0.0	100	1881663	72	63	210	1	1	1537625.5642347	1537625.5648095	80	1537628.6134281	1537628.6139552	40	1537631.764735	1537631.7652371	100	imm	1537633.9660735	1537634.4779954	1537634.4785	120.0	3.0	1537634.8554322
921.49365234375	0.0	120	1887219	72	63	210	1	1	1537625.5642347	1537625.5648095	80	1537628.6134281	1537628.6139552	40	1537631.764735	1537631.7652371	100	imm	1537633.9660735	1537634.4779954	1537634.4785	120.0	3.0	1537634.8554322
924.32080078125	0.0	80	1893009	73	67	240	0	1	1537637.3052265	1537637.305715	80	1537640.5910582	1537640.5913441	40	1537643.8368956	1537643.8373608	100	imm	1537645.9577626	nan	nan	nan	nan	nan
927.6064453125	0.0	40	1899738	73	67	240	0	1	1537637.3052265	1537637.305715	80	1537640.5910582	1537640.5913441	40	1537643.8368956	1537643.8373608	100	imm	1537645.9577626	nan	nan	nan	nan	nan
930.8525390625	0.0	100	1906386	73	67	240	0	1	1537637.3052265	1537637.305715	80	1537640.5910582	1537640.5913441	40	1537643.8368956	1537643.8373608	100	imm	1537645.9577626	nan	nan	nan	nan	nan
935.70556640625	0.0	80	1916325	74	77	20	0	1	1537648.690263	1537648.6907408	80	1537652.0859519	1537652.0864392	40	1537655.4271931	1537655.427788	100	imm	1537658.9425333	nan	nan	nan	nan	nan
939.10107421875	0.0	40	1923279	74	77	20	0	1	1537648.690263	1537648.6907408	80	1537652.0859519	1537652.0864392	40	1537655.4271931	1537655.427788	100	imm	1537658.9425333	nan	nan	nan	nan	nan
942.4423828125	0.0	100	1930122	74	77	20	0	1	1537648.690263	1537648.6907408	80	1537652.0859519	1537652.0864392	40	1537655.4271931	1537655.427788	100	imm	1537658.9425333	nan	nan	nan	nan	nan
948.8037109375	0.0	80	1943150	75	60	30	1	1	1537661.7885002	1537661.7889889	80	1537664.8778757	1537664.8783872	40	1537668.1072024	1537668.1077524	100	del	1537668.5982315	1537669.1120196	1537669.1125542	120.0	4.0	1537669.6623106
951.89306640625	0.0	40	1949477	75	60	30	1	1	1537661.7885002	1537661.7889889	80	1537664.8778757	1537664.8783872	40	1537668.1072024	1537668.1077524	100	del	1537668.5982315	1537669.1120196	1537669.1125542	120.0	4.0	1537669.6623106
955.1220703125	0.0	100	1956090	75	60	30	1	1	1537661.7885002	1537661.7889889	80	1537664.8778757	1537664.8783872	40	1537668.1072024	1537668.1077524	100	del	1537668.5982315	1537669.1120196	1537669.1125542	120.0	4.0	1537669.6623106
956.126953125	0.0	120	1958148	75	60	30	1	1	1537661.7885002	1537661.7889889	80	1537664.8778757	1537664.8783872	40	1537668.1072024	1537668.1077524	100	del	1537668.5982315	1537669.1120196	1537669.1125542	120.0	4.0	1537669.6623106
958.94482421875	0.0	80	1963919	76	100	20	0	0	1537671.9301652	1537671.9306757	80	1537675.1256891	1537675.1261565	40	1537678.3795818	1537678.3800966	100	del	1537682.4955645	nan	nan	nan	nan	nan
962.140625	0.0	40	1970464	76	100	20	0	0	1537671.9301652	1537671.9306757	80	1537675.1256891	1537675.1261565	40	1537678.3795818	1537678.3800966	100	del	1537682.4955645	nan	nan	nan	nan	nan
965.39404296875	0.0	100	1977127	76	100	20	0	0	1537671.9301652	1537671.9306757	80	1537675.1256891	1537675.1261565	40	1537678.3795818	1537678.3800966	100	del	1537682.4955645	nan	nan	nan	nan	nan
972.1982421875	0.0	80	1991062	77	50	880	0	0	1537685.1836169	1537685.1841979	80	1537688.5798734	1537688.5803557	40	1537691.7852161	1537691.7857093	100	imm	1537692.8619063	nan	nan	nan	nan	nan
975.59423828125	0.0	40	1998017	77	50	880	0	0	1537685.1836169	1537685.1841979	80	1537688.5798734	1537688.5803557	40	1537691.7852161	1537691.7857093	100	imm	1537692.8619063	nan	nan	nan	nan	nan
978.79931640625	0.0	100	2004581	77	50	880	0	0	1537685.1836169	1537685.1841979	80	1537688.5798734	1537688.5803557	40	1537691.7852161	1537691.7857093	100	imm	1537692.8619063	nan	nan	nan	nan	nan
982.7490234375	0.0	80	2012670	78	73	13	1	0	1537695.7348841	1537695.7353818	80	1537698.9839937	1537698.984456	40	1537702.3619615	1537702.3624552	100	del	1537702.8860347	1537703.3968126	1537703.3972048	120.0	3.0	1537703.6942766
985.998046875	0.0	40	2019324	78	73	13	1	0	1537695.7348841	1537695.7353818	80	1537698.9839937	1537698.984456	40	1537702.3619615	1537702.3624552	100	del	1537702.8860347	1537703.3968126	1537703.3972048	120.0	3.0	1537703.6942766
989.3759765625	0.0	100	2026242	78	73	13	1	0	1537695.7348841	1537695.7353818	80	1537698.9839937	1537698.984456	40	1537702.3619615	1537702.3624552	100	del	1537702.8860347	1537703.3968126	1537703.3972048	120.0	3.0	1537703.6942766
990.41064453125	0.0	120	2028361	78	73	13	1	0	1537695.7348841	1537695.7353818	80	1537698.9839937	1537698.984456	40	1537702.3619615	1537702.3624552	100	del	1537702.8860347	1537703.3968126	1537703.3972048	120.0	3.0	1537703.6942766
993.1904296875	0.0	80	2034054	79	100	270	1	0	1537706.1764988	1537706.1768917	80	1537709.4414173	1537709.4417628	40	1537712.9037912	1537712.9041608	100	del	1537713.5197324	1537714.0295856	1537714.0299257	120.0	3.0	1537714.3023279
996.455078125	0.0	40	2040740	79	100	270	1	0	1537706.1764988	1537706.1768917	80	1537709.4414173	1537709.4417628	40	1537712.9037912	1537712.9041608	100	del	1537713.5197324	1537714.0295856	1537714.0299257	120.0	3.0	1537714.3023279
999.91748046875	0.0	100	2047831	79	100	270	1	0	1537706.1764988	1537706.1768917	80	1537709.4414173	1537709.4417628	40	1537712.9037912	1537712.9041608	100	del	1537713.5197324	1537714.0295856	1537714.0299257	120.0	3.0	1537714.3023279
1001.04296875	0.0	120	2050136	79	100	270	1	0	1537706.1764988	1537706.1768917	80	1537709.4414173	1537709.4417628	40	1537712.9037912	1537712.9041608	100	del	1537713.5197324	1537714.0295856	1537714.0299257	120.0	3.0	1537714.3023279
1003.44091796875	0.0	80	2055047	80	70	410	0	1	1537716.4272467	1537716.4277558	80	1537719.8717275	1537719.8722038	40	1537722.9267557	1537722.92727	100	imm	1537724.0058595	nan	nan	nan	nan	nan
1006.88525390625	0.0	40	2062101	80	70	410	0	1	1537716.4272467	1537716.4277558	80	1537719.8717275	1537719.8722038	40	1537722.9267557	1537722.92727	100	imm	1537724.0058595	nan	nan	nan	nan	nan
1009.93994140625	0.0	100	2068357	80	70	410	0	1	1537716.4272467	1537716.4277558	80	1537719.8717275	1537719.8722038	40	1537722.9267557	1537722.92727	100	imm	1537724.0058595	nan	nan	nan	nan	nan
1033.85107421875	0.0	80	2117327	81	50	270	1	1	1537746.8382196	1537746.8386189	80	1537749.8565058	1537749.856953	40	1537753.2734709	1537753.2740324	100	imm	1537754.1428444	1537754.6530811	1537754.6534584	120.0	3.0	1537755.5742209
1036.869140625	0.0	40	2123508	81	50	270	1	1	1537746.8382196	1537746.8386189	80	1537749.8565058	1537749.856953	40	1537753.2734709	1537753.2740324	100	imm	1537754.1428444	1537754.6530811	1537754.6534584	120.0	3.0	1537755.5742209
1040.2861328125	0.0	100	2130506	81	50	270	1	1	1537746.8382196	1537746.8386189	80	1537749.8565058	1537749.856953	40	1537753.2734709	1537753.2740324	100	imm	1537754.1428444	1537754.6530811	1537754.6534584	120.0	3.0	1537755.5742209
1041.66552734375	0.0	120	2133331	81	50	270	1	1	1537746.8382196	1537746.8386189	80	1537749.8565058	1537749.856953	40	1537753.2734709	1537753.2740324	100	imm	1537754.1428444	1537754.6530811	1537754.6534584	120.0	3.0	1537755.5742209
1044.69140625	0.0	80	2139528	82	77	30	1	1	1537757.6788464	1537757.6793324	80	1537760.7679613	1537760.7683154	40	1537763.871839	1537763.8723232	100	del	1537764.8067689	1537765.3191974	1537765.319656	120.0	2.0	1537765.7028538
1047.7802734375	0.0	40	2145854	82	77	30	1	1	1537757.6788464	1537757.6793324	80	1537760.7679613	1537760.7683154	40	1537763.871839	1537763.8723232	100	del	1537764.8067689	1537765.3191974	1537765.319656	120.0	2.0	1537765.7028538
1050.88427734375	0.0	100	2152211	82	77	30	1	1	1537757.6788464	1537757.6793324	80	1537760.7679613	1537760.7683154	40	1537763.871839	1537763.8723232	100	del	1537764.8067689	1537765.3191974	1537765.319656	120.0	2.0	1537765.7028538
1052.33154296875	0.0	120	2155175	82	77	30	1	1	1537757.6788464	1537757.6793324	80	1537760.7679613	1537760.7683154	40	1537763.871839	1537763.8723232	100	del	1537764.8067689	1537765.3191974	1537765.319656	120.0	2.0	1537765.7028538
1055.07470703125	0.0	80	2160793	83	63	880	0	1	1537768.0625134	1537768.0631625	80	1537771.1769718	1537771.1774436	40	1537774.3395911	1537774.3400816	100	imm	1537775.1037923	nan	nan	nan	nan	nan
1058.18896484375	0.0	40	2167171	83	63	880	0	1	1537768.0625134	1537768.0631625	80	1537771.1769718	1537771.1774436	40	1537774.3395911	1537774.3400816	100	imm	1537775.1037923	nan	nan	nan	nan	nan
1061.3515625	0.0	100	2173648	83	63	880	0	1	1537768.0625134	1537768.0631625	80	1537771.1769718	1537771.1774436	40	1537774.3395911	1537774.3400816	100	imm	1537775.1037923	nan	nan	nan	nan	nan
1065.017578125	0.0	80	2181156	84	80	13	1	0	1537778.0057862	1537778.0062696	80	1537781.2641379	1537781.2646381	40	1537784.7327402	1537784.7332696	100	del	1537785.646429	1537786.1554032	1537786.155699	120.0	2.0	1537787.2219132
1068.27587890625	0.0	40	2187829	84	80	13	1	0	1537778.0057862	1537778.0062696	80	1537781.2641379	1537781.2646381	40	1537784.7327402	1537784.7332696	100	del	1537785.646429	1537786.1554032	1537786.155699	120.0	2.0	1537787.2219132
1071.74462890625	0.0	100	2194933	84	80	13	1	0	1537778.0057862	1537778.0062696	80	1537781.2641379	1537781.2646381	40	1537784.7327402	1537784.7332696	100	del	1537785.646429	1537786.1554032	1537786.155699	120.0	2.0	1537787.2219132
1073.1669921875	0.0	120	2197846	84	80	13	1	0	1537778.0057862	1537778.0062696	80	1537781.2641379	1537781.2646381	40	1537784.7327402	1537784.7332696	100	del	1537785.646429	1537786.1554032	1537786.155699	120.0	2.0	1537787.2219132
1076.27734375	0.0	80	2204216	85	57	30	1	0	1537789.265652	1537789.2661374	80	1537792.4914777	1537792.4919245	40	1537795.7901186	1537795.7906096	100	imm	1537798.3819336	1537798.8933962	1537798.8937262	120.0	3.0	1537799.3826717
1079.5029296875	0.0	40	2210822	85	57	30	1	0	1537789.265652	1537789.2661374	80	1537792.4914777	1537792.4919245	40	1537795.7901186	1537795.7906096	100	imm	1537798.3819336	1537798.8933962	1537798.8937262	120.0	3.0	1537799.3826717
1082.80126953125	0.0	100	2217577	85	57	30	1	0	1537789.265652	1537789.2661374	80	1537792.4914777	1537792.4919245	40	1537795.7901186	1537795.7906096	100	imm	1537798.3819336	1537798.8933962	1537798.8937262	120.0	3.0	1537799.3826717
1085.90478515625	0.0	120	2223933	85	57	30	1	0	1537789.265652	1537789.2661374	80	1537792.4914777	1537792.4919245	40	1537795.7901186	1537795.7906096	100	imm	1537798.3819336	1537798.8933962	1537798.8937262	120.0	3.0	1537799.3826717
1088.6923828125	0.0	80	2229642	86	100	410	0	0	1537801.6810192	1537801.6815312	80	1537805.1013587	1537805.1018116	40	1537808.1778467	1537808.1783658	100	imm	1537808.8782308	nan	nan	nan	nan	nan
1092.1123046875	0.0	40	2236646	86	100	410	0	0	1537801.6810192	1537801.6815312	80	1537805.1013587	1537805.1018116	40	1537808.1778467	1537808.1783658	100	imm	1537808.8782308	nan	nan	nan	nan	nan
1095.18896484375	0.0	100	2242947	86	100	410	0	0	1537801.6810192	1537801.6815312	80	1537805.1013587	1537805.1018116	40	1537808.1778467	1537808.1783658	100	imm	1537808.8782308	nan	nan	nan	nan	nan
1098.5546875	0.0	80	2249840	87	67	20	0	0	1537811.5439458	1537811.5444047	80	1537814.5528881	1537814.5533116	40	1537818.0420697	1537818.0425142	100	imm	1537819.5504742	nan	nan	nan	nan	nan
1101.56396484375	0.0	40	2256003	87	67	20	0	0	1537811.5439458	1537811.5444047	80	1537814.5528881	1537814.5533116	40	1537818.0420697	1537818.0425142	100	imm	1537819.5504742	nan	nan	nan	nan	nan
1105.052734375	0.0	100	2263148	87	67	20	0	0	1537811.5439458	1537811.5444047	80	1537814.5528881	1537814.5533116	40	1537818.0420697	1537818.0425142	100	imm	1537819.5504742	nan	nan	nan	nan	nan
1109.45849609375	0.0	80	2272171	88	57	210	1	1	1537822.4480877	1537822.448451	80	1537825.8310657	1537825.8315399	40	1537828.9137989	1537828.9143096	100	imm	1537830.622396	1537831.1353862	1537831.13584	120.0	3.0	1537831.3588988
1112.841796875	0.0	40	2279100	88	57	210	1	1	1537822.4480877	1537822.448451	80	1537825.8310657	1537825.8315399	40	1537828.9137989	1537828.9143096	100	imm	1537830.622396	1537831.1353862	1537831.13584	120.0	3.0	1537831.3588988
1115.92431640625	0.0	100	2285413	88	57	210	1	1	1537822.4480877	1537822.448451	80	1537825.8310657	1537825.8315399	40	1537828.9137989	1537828.9143096	100	imm	1537830.622396	1537831.1353862	1537831.13584	120.0	3.0	1537831.3588988
1118.14599609375	0.0	120	2289963	88	57	210	1	1	1537822.4480877	1537822.448451	80	1537825.8310657	1537825.8315399	40	1537828.9137989	1537828.9143096	100	imm	1537830.622396	1537831.1353862	1537831.13584	120.0	3.0	1537831.3588988
1120.55810546875	0.0	80	2294903	89	83	880	0	0	1537833.547582	1537833.5480916	80	1537836.6308389	1537836.6313281	40	1537839.8932245	1537839.8936395	100	imm	1537841.3261952	nan	nan	nan	nan	nan
1123.64111328125	0.0	40	2301217	89	83	880	0	0	1537833.547582	1537833.5480916	80	1537836.6308389	1537836.6313281	40	1537839.8932245	1537839.8936395	100	imm	1537841.3261952	nan	nan	nan	nan	nan
1126.9033203125	0.0	100	2307898	89	83	880	0	0	1537833.547582	1537833.5480916	80	1537836.6308389	1537836.6313281	40	1537839.8932245	1537839.8936395	100	imm	1537841.3261952	nan	nan	nan	nan	nan
1131.25830078125	0.0	80	2316817	90	80	600	1	1	1537844.2479815	1537844.2485382	80	1537847.5715661	1537847.5719558	40	1537850.9294411	1537850.9299706	100	imm	1537852.5827748	1537853.0933855	1537853.0937853	120.0	3.0	1537853.6142917
1134.58154296875	0.0	40	2323623	90	80	600	1	1	1537844.2479815	1537844.2485382	80	1537847.5715661	1537847.5719558	40	1537850.9294411	1537850.9299706	100	imm	1537852.5827748	1537853.0933855	1537853.0937853	120.0	3.0	1537853.6142917
1137.939453125	0.0	100	2330500	90	80	600	1	1	1537844.2479815	1537844.2485382	80	1537847.5715661	1537847.5719558	40	1537850.9294411	1537850.9299706	100	imm	1537852.5827748	1537853.0933855	1537853.0937853	120.0	3.0	1537853.6142917
1140.10302734375	0.0	120	2334931	90	80	600	1	1	1537844.2479815	1537844.2485382	80	1537847.5715661	1537847.5719558	40	1537850.9294411	1537850.9299706	100	imm	1537852.5827748	1537853.0933855	1537853.0937853	120.0	3.0	1537853.6142917
1142.958984375	0.0	80	2340780	91	50	240	0	1	1537855.9491456	1537855.9496306	80	1537859.3216776	1537859.3221777	40	1537862.7645528	1537862.7650702	100	imm	1537863.3514938	nan	nan	nan	nan	nan
1146.3310546875	0.0	40	2347686	91	50	240	0	1	1537855.9491456	1537855.9496306	80	1537859.3216776	1537859.3221777	40	1537862.7645528	1537862.7650702	100	imm	1537863.3514938	nan	nan	nan	nan	nan
1149.77392578125	0.0	100	2354737	91	50	240	0	1	1537855.9491456	1537855.9496306	80	1537859.3216776	1537859.3221777	40	1537862.7645528	1537862.7650702	100	imm	1537863.3514938	nan	nan	nan	nan	nan
1153.18994140625	0.0	80	2361733	92	50	30	1	0	1537866.1803642	1537866.1808466	80	1537869.2783813	1537869.2788381	40	1537872.5780805	1537872.5785711	100	imm	1537874.2078726	1537874.7199322	1537874.7205396	120.0	4.0	1537875.4865031
1156.28759765625	0.0	40	2368077	92	50	30	1	0	1537866.1803642	1537866.1808466	80	1537869.2783813	1537869.2788381	40	1537872.5780805	1537872.5785711	100	imm	1537874.2078726	1537874.7199322	1537874.7205396	120.0	4.0	1537875.4865031
1159.58740234375	0.0	100	2374835	92	50	30	1	0	1537866.1803642	1537866.1808466	80	1537869.2783813	1537869.2788381	40	1537872.5780805	1537872.5785711	100	imm	1537874.2078726	1537874.7199322	1537874.7205396	120.0	4.0	1537875.4865031
1161.72900390625	0.0	120	2379221	92	50	30	1	0	1537866.1803642	1537866.1808466	80	1537869.2783813	1537869.2788381	40	1537872.5780805	1537872.5785711	100	imm	1537874.2078726	1537874.7199322	1537874.7205396	120.0	4.0	1537875.4865031
1164.59130859375	0.0	80	2385083	93	53	410	0	1	1537877.5821592	1537877.5827795	80	1537881.0423522	1537881.0427638	40	1537884.0956144	1537884.0961223	100	imm	1537886.3186733	nan	nan	nan	nan	nan
1168.05126953125	0.0	40	2392169	93	53	410	0	1	1537877.5821592	1537877.5827795	80	1537881.0423522	1537881.0427638	40	1537884.0956144	1537884.0961223	100	imm	1537886.3186733	nan	nan	nan	nan	nan
1171.1044921875	0.0	100	2398422	93	53	410	0	1	1537877.5821592	1537877.5827795	80	1537881.0423522	1537881.0427638	40	1537884.0956144	1537884.0961223	100	imm	1537886.3186733	nan	nan	nan	nan	nan
1176.013671875	0.0	80	2408476	94	53	210	1	0	1537889.0048969	1537889.0053758	80	1537892.3026834	1537892.3031434	40	1537895.5539678	1537895.5544319	100	imm	1537897.6864131	1537898.1974058	1537898.1977956	120.0	1.0	1537898.4469059
1179.3115234375	0.0	40	2415230	94	53	210	1	0	1537889.0048969	1537889.0053758	80	1537892.3026834	1537892.3031434	40	1537895.5539678	1537895.5544319	100	imm	1537897.6864131	1537898.1974058	1537898.1977956	120.0	1.0	1537898.4469059
1182.5625	0.0	100	2421888	94	53	210	1	0	1537889.0048969	1537889.0053758	80	1537892.3026834	1537892.3031434	40	1537895.5539678	1537895.5544319	100	imm	1537897.6864131	1537898.1974058	1537898.1977956	120.0	1.0	1537898.4469059
1185.2060546875	0.0	120	2427302	94	53	210	1	0	1537889.0048969	1537889.0053758	80	1537892.3026834	1537892.3031434	40	1537895.5539678	1537895.5544319	100	imm	1537897.6864131	1537898.1974058	1537898.1977956	120.0	1.0	1537898.4469059
1187.869140625	0.0	80	2432756	95	77	240	0	1	1537900.8609319	1537900.861241	80	1537904.1345845	1537904.1350318	40	1537907.2612097	1537907.2617196	100	imm	1537910.8540714	nan	nan	nan	nan	nan
1191.14306640625	0.0	40	2439461	95	77	240	0	1	1537900.8609319	1537900.861241	80	1537904.1345845	1537904.1350318	40	1537907.2612097	1537907.2617196	100	imm	1537910.8540714	nan	nan	nan	nan	nan
1194.26953125	0.0	100	2445864	95	77	240	0	1	1537900.8609319	1537900.861241	80	1537904.1345845	1537904.1350318	40	1537907.2612097	1537907.2617196	100	imm	1537910.8540714	nan	nan	nan	nan	nan
1200.734375	0.0	80	2459104	96	57	270	1	0	1537913.7264241	1537913.7268932	80	1537916.8091083	1537916.8095954	40	1537920.1518822	1537920.152389	100	imm	1537920.8065402	1537921.3196061	1537921.3201194	120.0	2.0	1537921.62291
1203.81689453125	0.0	40	2465417	96	57	270	1	0	1537913.7264241	1537913.7268932	80	1537916.8091083	1537916.8095954	40	1537920.1518822	1537920.152389	100	imm	1537920.8065402	1537921.3196061	1537921.3201194	120.0	2.0	1537921.62291
1207.15966796875	0.0	100	2472263	96	57	270	1	0	1537913.7264241	1537913.7268932	80	1537916.8091083	1537916.8095954	40	1537920.1518822	1537920.152389	100	imm	1537920.8065402	1537921.3196061	1537921.3201194	120.0	2.0	1537921.62291
1208.32763671875	0.0	120	2474655	96	57	270	1	0	1537913.7264241	1537913.7268932	80	1537916.8091083	1537916.8095954	40	1537920.1518822	1537920.152389	100	imm	1537920.8065402	1537921.3196061	1537921.3201194	120.0	2.0	1537921.62291
1210.9609375	0.0	80	2480048	97	60	240	0	1	1537923.9533423	1537923.9538136	80	1537927.075558	1537927.0759703	40	1537930.1810511	1537930.1815278	100	imm	1537931.1503449	nan	nan	nan	nan	nan
1214.08349609375	0.0	40	2486443	97	60	240	0	1	1537923.9533423	1537923.9538136	80	1537927.075558	1537927.0759703	40	1537930.1810511	1537930.1815278	100	imm	1537931.1503449	nan	nan	nan	nan	nan
1217.1884765625	0.0	100	2492802	97	60	240	0	1	1537923.9533423	1537923.9538136	80	1537927.075558	1537927.0759703	40	1537930.1810511	1537930.1815278	100	imm	1537931.1503449	nan	nan	nan	nan	nan
1220.75927734375	0.0	80	2500115	98	73	270	1	1	1537933.7519489	1537933.7524468	80	1537936.8340526	1537936.8347776	40	1537939.9492396	1537939.9497054	100	imm	1537940.7510661	1537941.2647996	1537941.2653132	120.0	2.0	1537941.9984368
1223.841796875	0.0	40	2506428	98	73	270	1	1	1537933.7519489	1537933.7524468	80	1537936.8340526	1537936.8347776	40	1537939.9492396	1537939.9497054	100	imm	1537940.7510661	1537941.2647996	1537941.2653132	120.0	2.0	1537941.9984368
1226.95654296875	0.0	100	2512807	98	73	270	1	1	1537933.7519489	1537933.7524468	80	1537936.8340526	1537936.8347776	40	1537939.9492396	1537939.9497054	100	imm	1537940.7510661	1537941.2647996	1537941.2653132	120.0	2.0	1537941.9984368
1228.27197265625	0.0	120	2515501	98	73	270	1	1	1537933.7519489	1537933.7524468	80	1537936.8340526	1537936.8347776	40	1537939.9492396	1537939.9497054	100	imm	1537940.7510661	1537941.2647996	1537941.2653132	120.0	2.0	1537941.9984368
1231.498046875	0.0	80	2522108	99	50	20	0	1	1537944.4906074	1537944.491127	80	1537947.5061558	1537947.5065372	40	1537950.9980748	1537950.9985429	100	imm	1537952.134166	nan	nan	nan	nan	nan
1234.51318359375	0.0	40	2528283	99	50	20	0	1	1537944.4906074	1537944.491127	80	1537947.5061558	1537947.5065372	40	1537950.9980748	1537950.9985429	100	imm	1537952.134166	nan	nan	nan	nan	nan
1238.00537109375	0.0	100	2535435	99	50	20	0	1	1537944.4906074	1537944.491127	80	1537947.5061558	1537947.5065372	40	1537950.9980748	1537950.9985429	100	imm	1537952.134166	nan	nan	nan	nan	nan
1241.67138671875	0.0	80	2542943	100	87	30	1	0	1537954.6646065	1537954.6651069	80	1537958.1589624	1537958.1594986	40	1537961.3206253	1537961.3211427	100	del	1537962.2472324	1537962.7598298	1537962.7603136	120.0	3.0	1537963.0146676
1245.166015625	0.0	40	2550100	100	87	30	1	0	1537954.6646065	1537954.6651069	80	1537958.1589624	1537958.1594986	40	1537961.3206253	1537961.3211427	100	del	1537962.2472324	1537962.7598298	1537962.7603136	120.0	3.0	1537963.0146676
1248.32763671875	0.0	100	2556575	100	87	30	1	0	1537954.6646065	1537954.6651069	80	1537958.1589624	1537958.1594986	40	1537961.3206253	1537961.3211427	100	del	1537962.2472324	1537962.7598298	1537962.7603136	120.0	3.0	1537963.0146676
1249.7666015625	0.0	120	2559522	100	87	30	1	0	1537954.6646065	1537954.6651069	80	1537958.1589624	1537958.1594986	40	1537961.3206253	1537961.3211427	100	del	1537962.2472324	1537962.7598298	1537962.7603136	120.0	3.0	1537963.0146676
1281.9306640625	0.0	80	2625394	101	100	880	0	1	1537994.9246409	1537994.9250836	80	1537998.3625187	1537998.3628982	40	1538001.8240129	1538001.8244618	100	imm	1538003.0795255	nan	nan	nan	nan	nan
1285.3681640625	0.0	40	2632434	101	100	880	0	1	1537994.9246409	1537994.9250836	80	1537998.3625187	1537998.3628982	40	1538001.8240129	1538001.8244618	100	imm	1538003.0795255	nan	nan	nan	nan	nan
1288.82958984375	0.0	100	2639523	101	100	880	0	1	1537994.9246409	1537994.9250836	80	1537998.3625187	1537998.3628982	40	1538001.8240129	1538001.8244618	100	imm	1538003.0795255	nan	nan	nan	nan	nan
1292.697265625	0.0	80	2647444	102	60	80	0	0	1538005.6917751	1538005.692258	80	1538009.0295697	1538009.0300605	40	1538012.5134939	1538012.5139424	100	imm	1538013.1820791	nan	nan	nan	nan	nan
1296.03515625	0.0	40	2654280	102	60	80	0	0	1538005.6917751	1538005.692258	80	1538009.0295697	1538009.0300605	40	1538012.5134939	1538012.5139424	100	imm	1538013.1820791	nan	nan	nan	nan	nan
1299.51904296875	0.0	100	2661415	102	60	80	0	0	1538005.6917751	1538005.692258	80	1538009.0295697	1538009.0300605	40	1538012.5134939	1538012.5139424	100	imm	1538013.1820791	nan	nan	nan	nan	nan
1303.19140625	0.0	80	2668936	103	50	13	1	0	1538016.1860102	1538016.1865314	80	1538019.2474027	1538019.2478987	40	1538022.3504606	1538022.3510174	100	imm	1538023.7021746	1538024.2140719	1538024.2145601	120.0	3.0	1538026.7184482
1306.25244140625	0.0	40	2675205	103	50	13	1	0	1538016.1860102	1538016.1865314	80	1538019.2474027	1538019.2478987	40	1538022.3504606	1538022.3510174	100	imm	1538023.7021746	1538024.2140719	1538024.2145601	120.0	3.0	1538026.7184482
1309.35546875	0.0	100	2681560	103	50	13	1	0	1538016.1860102	1538016.1865314	80	1538019.2474027	1538019.2478987	40	1538022.3504606	1538022.3510174	100	imm	1538023.7021746	1538024.2140719	1538024.2145601	120.0	3.0	1538026.7184482
1311.21923828125	0.0	120	2685377	103	50	13	1	0	1538016.1860102	1538016.1865314	80	1538019.2474027	1538019.2478987	40	1538022.3504606	1538022.3510174	100	imm	1538023.7021746	1538024.2140719	1538024.2145601	120.0	3.0	1538026.7184482
1316.11279296875	0.0	80	2695399	104	73	80	0	0	1538029.107837	1538029.1083161	80	1538032.1400441	1538032.1405423	40	1538035.189396	1538035.1898769	100	imm	1538036.3826036	nan	nan	nan	nan	nan
1319.14501953125	0.0	40	2701609	104	73	80	0	0	1538029.107837	1538029.1083161	80	1538032.1400441	1538032.1405423	40	1538035.189396	1538035.1898769	100	imm	1538036.3826036	nan	nan	nan	nan	nan
1322.1943359375	0.0	100	2707854	104	73	80	0	0	1538029.107837	1538029.1083161	80	1538032.1400441	1538032.1405423	40	1538035.189396	1538035.1898769	100	imm	1538036.3826036	nan	nan	nan	nan	nan
1326.15478515625	0.0	80	2715965	105	63	80	0	0	1538039.1501435	1538039.1506522	80	1538042.5830201	1538042.5834343	40	1538046.094591	1538046.0951561	100	imm	1538046.7424713	nan	nan	nan	nan	nan
1329.58740234375	0.0	40	2722995	105	63	80	0	0	1538039.1501435	1538039.1506522	80	1538042.5830201	1538042.5834343	40	1538046.094591	1538046.0951561	100	imm	1538046.7424713	nan	nan	nan	nan	nan
1333.09912109375	0.0	100	2730187	105	63	80	0	0	1538039.1501435	1538039.1506522	80	1538042.5830201	1538042.5834343	40	1538046.094591	1538046.0951561	100	imm	1538046.7424713	nan	nan	nan	nan	nan
1336.26708984375	0.0	80	2736675	106	93	240	0	1	1538049.2628537	1538049.2634253	80	1538052.5415675	1538052.5420418	40	1538055.985807	1538055.9863343	100	del	1538057.7504028	nan	nan	nan	nan	nan
1339.5458984375	0.0	40	2743390	106	93	240	0	1	1538049.2628537	1538049.2634253	80	1538052.5415675	1538052.5420418	40	1538055.985807	1538055.9863343	100	del	1538057.7504028	nan	nan	nan	nan	nan
1342.990234375	0.0	100	2750444	106	93	240	0	1	1538049.2628537	1538049.2634253	80	1538052.5415675	1538052.5420418	40	1538055.985807	1538055.9863343	100	del	1538057.7504028	nan	nan	nan	nan	nan
1347.72607421875	0.0	80	2760143	107	93	20	0	0	1538060.7221857	1538060.7226507	80	1538064.1525211	1538064.1529859	40	1538067.6013325	1538067.6017074	100	del	1538068.2868921	nan	nan	nan	nan	nan
1351.15625	0.0	40	2767168	107	93	20	0	0	1538060.7221857	1538060.7226507	80	1538064.1525211	1538064.1529859	40	1538067.6013325	1538067.6017074	100	del	1538068.2868921	nan	nan	nan	nan	nan
1354.60498046875	0.0	100	2774231	107	93	20	0	0	1538060.7221857	1538060.7226507	80	1538064.1525211	1538064.1529859	40	1538067.6013325	1538067.6017074	100	del	1538068.2868921	nan	nan	nan	nan	nan
1358.18115234375	0.0	80	2781555	108	53	30	1	0	1538071.1772849	1538071.177819	80	1538074.2436055	1538074.2441086	40	1538077.5119317	1538077.5125103	100	imm	1538080.2061826	1538080.715912	1538080.7162469	120.0	3.0	1538081.6469698
1361.2470703125	0.0	40	2787834	108	53	30	1	0	1538071.1772849	1538071.177819	80	1538074.2436055	1538074.2441086	40	1538077.5119317	1538077.5125103	100	imm	1538080.2061826	1538080.715912	1538080.7162469	120.0	3.0	1538081.6469698
1364.515625	0.0	100	2794528	108	53	30	1	0	1538071.1772849	1538071.177819	80	1538074.2436055	1538074.2441086	40	1538077.5119317	1538077.5125103	100	imm	1538080.2061826	1538080.715912	1538080.7162469	120.0	3.0	1538081.6469698
1367.71923828125	0.0	120	2801089	108	53	30	1	0	1538071.1772849	1538071.177819	80	1538074.2436055	1538074.2441086	40	1538077.5119317	1538077.5125103	100	imm	1538080.2061826	1538080.715912	1538080.7162469	120.0	3.0	1538081.6469698
1370.74951171875	0.0	80	2807295	109	57	880	0	1	1538083.7463267	1538083.7468334	80	1538087.1693981	1538087.1698731	40	1538090.6468512	1538090.6473118	100	imm	1538091.3585826	nan	nan	nan	nan	nan
1374.1728515625	0.0	40	2814306	109	57	880	0	1	1538083.7463267	1538083.7468334	80	1538087.1693981	1538087.1698731	40	1538090.6468512	1538090.6473118	100	imm	1538091.3585826	nan	nan	nan	nan	nan
1377.64990234375	0.0	100	2821427	109	57	880	0	1	1538083.7463267	1538083.7468334	80	1538087.1693981	1538087.1698731	40	1538090.6468512	1538090.6473118	100	imm	1538091.3585826	nan	nan	nan	nan	nan
1380.9638671875	0.0	80	2828214	110	60	880	0	1	1538093.9607375	1538093.9612346	80	1538097.4106017	1538097.4111024	40	1538100.6144133	1538100.614792	100	imm	1538102.9510989	nan	nan	nan	nan	nan
1384.41357421875	0.0	40	2835279	110	60	880	0	1	1538093.9607375	1538093.9612346	80	1538097.4106017	1538097.4111024	40	1538100.6144133	1538100.614792	100	imm	1538102.9510989	nan	nan	nan	nan	nan
1387.6171875	0.0	100	2841840	110	60	880	0	1	1538093.9607375	1538093.9612346	80	1538097.4106017	1538097.4111024	40	1538100.6144133	1538100.614792	100	imm	1538102.9510989	nan	nan	nan	nan	nan
1392.662109375	0.0	80	2852172	111	93	13	1	0	1538105.6593874	1538105.6598542	80	1538108.8027492	1538108.8032514	40	1538112.2503466	1538112.2508422	100	del	1538113.3750997	1538113.886799	1538113.8872769	120.0	3.0	1538114.7348555
1395.8056640625	0.0	40	2858610	111	93	13	1	0	1538105.6593874	1538105.6598542	80	1538108.8027492	1538108.8032514	40	1538112.2503466	1538112.2508422	100	del	1538113.3750997	1538113.886799	1538113.8872769	120.0	3.0	1538114.7348555
1399.2529296875	0.0	100	2865670	111	93	13	1	0	1538105.6593874	1538105.6598542	80	1538108.8027492	1538108.8032514	40	1538112.2503466	1538112.2508422	100	del	1538113.3750997	1538113.886799	1538113.8872769	120.0	3.0	1538114.7348555
1400.88916015625	0.0	120	2869021	111	93	13	1	0	1538105.6593874	1538105.6598542	80	1538108.8027492	1538108.8032514	40	1538112.2503466	1538112.2508422	100	del	1538113.3750997	1538113.886799	1538113.8872769	120.0	3.0	1538114.7348555
1404.12158203125	0.0	80	2875641	112	73	410	0	0	1538117.1190794	1538117.1195699	80	1538120.3496924	1538120.3500754	40	1538123.7177765	1538123.7183648	100	imm	1538125.2635748	nan	nan	nan	nan	nan
1407.35205078125	0.0	40	2882257	112	73	410	0	0	1538117.1190794	1538117.1195699	80	1538120.3496924	1538120.3500754	40	1538123.7177765	1538123.7183648	100	imm	1538125.2635748	nan	nan	nan	nan	nan
1410.72021484375	0.0	100	2889155	112	73	410	0	0	1538117.1190794	1538117.1195699	80	1538120.3496924	1538120.3500754	40	1538123.7177765	1538123.7183648	100	imm	1538125.2635748	nan	nan	nan	nan	nan
1415.2548828125	0.0	80	2898442	113	83	240	0	0	1538128.2525899	1538128.2530802	80	1538131.3460053	1538131.3463273	40	1538134.480807	1538134.4812933	100	imm	1538135.9427042	nan	nan	nan	nan	nan
1418.34814453125	0.0	40	2904777	113	83	240	0	0	1538128.2525899	1538128.2530802	80	1538131.3460053	1538131.3463273	40	1538134.480807	1538134.4812933	100	imm	1538135.9427042	nan	nan	nan	nan	nan
1421.48291015625	0.0	100	2911197	113	83	240	0	0	1538128.2525899	1538128.2530802	80	1538131.3460053	1538131.3463273	40	1538134.480807	1538134.4812933	100	imm	1538135.9427042	nan	nan	nan	nan	nan
1425.7822265625	0.0	80	2920002	114	57	80	0	1	1538138.7805392	1538138.7810329	80	1538142.1922656	1538142.1927409	40	1538145.6304999	1538145.6308801	100	imm	1538148.45471	nan	nan	nan	nan	nan
1429.19384765625	0.0	40	2926989	114	57	80	0	1	1538138.7805392	1538138.7810329	80	1538142.1922656	1538142.1927409	40	1538145.6304999	1538145.6308801	100	imm	1538148.45471	nan	nan	nan	nan	nan
1432.63232421875	0.0	100	2934031	114	57	80	0	1	1538138.7805392	1538138.7810329	80	1538142.1922656	1538142.1927409	40	1538145.6304999	1538145.6308801	100	imm	1538148.45471	nan	nan	nan	nan	nan
1438.1728515625	0.0	80	2945378	115	57	410	0	1	1538151.1713554	1538151.1718526	80	1538154.2378047	1538154.238252	40	1538157.2913594	1538157.2918441	100	imm	1538158.6242575	nan	nan	nan	nan	nan
1441.2392578125	0.0	40	2951658	115	57	410	0	1	1538151.1713554	1538151.1718526	80	1538154.2378047	1538154.238252	40	1538157.2913594	1538157.2918441	100	imm	1538158.6242575	nan	nan	nan	nan	nan
1444.29248046875	0.0	100	2957911	115	57	410	0	1	1538151.1713554	1538151.1718526	80	1538154.2378047	1538154.238252	40	1538157.2913594	1538157.2918441	100	imm	1538158.6242575	nan	nan	nan	nan	nan
1448.32861328125	0.0	80	2966177	116	90	600	1	0	1538161.3275865	1538161.328097	80	1538164.7497188	1538164.7502704	40	1538167.8720343	1538167.8725314	100	imm	1538168.5751449	1538169.0867226	1538169.087121	120.0	1.0	1538169.4709042
1451.7509765625	0.0	40	2973186	116	90	600	1	0	1538161.3275865	1538161.328097	80	1538164.7497188	1538164.7502704	40	1538167.8720343	1538167.8725314	100	imm	1538168.5751449	1538169.0867226	1538169.087121	120.0	1.0	1538169.4709042
1454.873046875	0.0	100	2979580	116	90	600	1	0	1538161.3275865	1538161.328097	80	1538164.7497188	1538164.7502704	40	1538167.8720343	1538167.8725314	100	imm	1538168.5751449	1538169.0867226	1538169.087121	120.0	1.0	1538169.4709042
1456.087890625	0.0	120	2982068	116	90	600	1	0	1538161.3275865	1538161.328097	80	1538164.7497188	1538164.7502704	40	1538167.8720343	1538167.8725314	100	imm	1538168.5751449	1538169.0867226	1538169.087121	120.0	1.0	1538169.4709042
1458.8828125	0.0	80	2987792	117	77	410	0	0	1538171.8815437	1538171.8821285	80	1538175.2178057	1538175.2183399	40	1538178.243837	1538178.2443195	100	imm	1538179.8722578	nan	nan	nan	nan	nan
1462.21875	0.0	40	2994624	117	77	410	0	0	1538171.8815437	1538171.8821285	80	1538175.2178057	1538175.2183399	40	1538178.243837	1538178.2443195	100	imm	1538179.8722578	nan	nan	nan	nan	nan
1465.24462890625	0.0	100	3000821	117	77	410	0	0	1538171.8815437	1538171.8821285	80	1538175.2178057	1538175.2183399	40	1538178.243837	1538178.2443195	100	imm	1538179.8722578	nan	nan	nan	nan	nan
1469.783203125	0.0	80	3010116	118	57	20	0	0	1538182.7826193	1538182.7831421	80	1538186.252258	1538186.2527576	40	1538189.5118355	1538189.5123393	100	imm	1538191.0223045	nan	nan	nan	nan	nan
1473.2529296875	0.0	40	3017222	118	57	20	0	0	1538182.7826193	1538182.7831421	80	1538186.252258	1538186.2527576	40	1538189.5118355	1538189.5123393	100	imm	1538191.0223045	nan	nan	nan	nan	nan
1476.51220703125	0.0	100	3023897	118	57	20	0	0	1538182.7826193	1538182.7831421	80	1538186.252258	1538186.2527576	40	1538189.5118355	1538189.5123393	100	imm	1538191.0223045	nan	nan	nan	nan	nan
1480.95361328125	0.0	80	3032993	119	70	13	1	0	1538193.95324	1538193.9535543	80	1538197.0261637	1538197.0266617	40	1538200.4212925	1538200.4217298	100	del	1538201.2149221	1538201.7271291	1538201.7276353	120.0	1.0	1538201.9023284
1484.0263671875	0.0	40	3039286	119	70	13	1	0	1538193.95324	1538193.9535543	80	1538197.0261637	1538197.0266617	40	1538200.4212925	1538200.4217298	100	del	1538201.2149221	1538201.7271291	1538201.7276353	120.0	1.0	1538201.9023284
1487.42138671875	0.0	100	3046239	119	70	13	1	0	1538193.95324	1538193.9535543	80	1538197.0261637	1538197.0266617	40	1538200.4212925	1538200.4217298	100	del	1538201.2149221	1538201.7271291	1538201.7276353	120.0	1.0	1538201.9023284
1488.72705078125	0.0	120	3048913	119	70	13	1	0	1538193.95324	1538193.9535543	80	1538197.0261637	1538197.0266617	40	1538200.4212925	1538200.4217298	100	del	1538201.2149221	1538201.7271291	1538201.7276353	120.0	1.0	1538201.9023284
1491.3818359375	0.0	80	3054350	120	90	410	0	1	1538204.3818576	1538204.3823604	80	1538207.8055808	1538207.8060754	40	1538210.9451012	1538210.9455541	100	imm	1538213.3032173	nan	nan	nan	nan	nan
1494.8056640625	0.0	40	3061362	120	90	410	0	1	1538204.3818576	1538204.3823604	80	1538207.8055808	1538207.8060754	40	1538210.9451012	1538210.9455541	100	imm	1538213.3032173	nan	nan	nan	nan	nan
1497.94482421875	0.0	100	3067791	120	90	410	0	1	1538204.3818576	1538204.3823604	80	1538207.8055808	1538207.8060754	40	1538210.9451012	1538210.9455541	100	imm	1538213.3032173	nan	nan	nan	nan	nan
1525.4208984375	0.0	80	3124062	121	63	410	0	0	1538238.4215926	1538238.4220255	80	1538241.6906749	1538241.6910848	40	1538244.9024085	1538244.9029216	100	imm	1538246.582645	nan	nan	nan	nan	nan
1528.689453125	0.0	40	3130756	121	63	410	0	0	1538238.4215926	1538238.4220255	80	1538241.6906749	1538241.6910848	40	1538244.9024085	1538244.9029216	100	imm	1538246.582645	nan	nan	nan	nan	nan
1531.9013671875	0.0	100	3137334	121	63	410	0	0	1538238.4215926	1538238.4220255	80	1538241.6906749	1538241.6910848	40	1538244.9024085	1538244.9029216	100	imm	1538246.582645	nan	nan	nan	nan	nan
1536.337890625	0.0	80	3146420	122	100	600	1	1	1538249.3389998	1538249.3394769	80	1538252.8447293	1538252.8452193	40	1538256.1604237	1538256.1608402	100	imm	1538257.4624412	1538257.9758322	1538257.9763745	120.0	1.0	1538258.1745761
1539.84326171875	0.0	40	3153599	122	100	600	1	1	1538249.3389998	1538249.3394769	80	1538252.8447293	1538252.8452193	40	1538256.1604237	1538256.1608402	100	imm	1538257.4624412	1538257.9758322	1538257.9763745	120.0	1.0	1538258.1745761
1543.1591796875	0.0	100	3160390	122	100	600	1	1	1538249.3389998	1538249.3394769	80	1538252.8447293	1538252.8452193	40	1538256.1604237	1538256.1608402	100	imm	1538257.4624412	1538257.9758322	1538257.9763745	120.0	1.0	1538258.1745761
1544.974609375	0.0	120	3164108	122	100	600	1	1	1538249.3389998	1538249.3394769	80	1538252.8447293	1538252.8452193	40	1538256.1604237	1538256.1608402	100	imm	1538257.4624412	1538257.9758322	1538257.9763745	120.0	1.0	1538258.1745761
1547.65625	0.0	80	3169600	123	87	20	0	0	1538260.6579427	1538260.6583378	80	1538263.9106083	1538263.9110545	40	1538267.1431276	1538267.1437585	100	imm	1538270.5427438	nan	nan	nan	nan	nan
1550.9091796875	0.0	40	3176262	123	87	20	0	0	1538260.6579427	1538260.6583378	80	1538263.9106083	1538263.9110545	40	1538267.1431276	1538267.1437585	100	imm	1538270.5427438	nan	nan	nan	nan	nan
1554.1416015625	0.0	100	3182882	123	87	20	0	0	1538260.6579427	1538260.6583378	80	1538263.9106083	1538263.9110545	40	1538267.1431276	1538267.1437585	100	imm	1538270.5427438	nan	nan	nan	nan	nan
1560.44482421875	0.0	80	3195791	124	87	80	0	0	1538273.446599	1538273.4470857	80	1538276.8261255	1538276.8266073	40	1538280.0608697	1538280.0613945	100	imm	1538280.6793573	nan	nan	nan	nan	nan
1563.82421875	0.0	40	3202712	124	87	80	0	0	1538273.446599	1538273.4470857	80	1538276.8261255	1538276.8266073	40	1538280.0608697	1538280.0613945	100	imm	1538280.6793573	nan	nan	nan	nan	nan
1567.05908203125	0.0	100	3209337	124	87	80	0	0	1538273.446599	1538273.4470857	80	1538276.8261255	1538276.8266073	40	1538280.0608697	1538280.0613945	100	imm	1538280.6793573	nan	nan	nan	nan	nan
1570.22021484375	0.0	80	3215811	125	87	240	0	1	1538283.2222909	1538283.2226658	80	1538286.2734878	1538286.2738871	40	1538289.6839995	1538289.6845117	100	imm	1538290.0881125	nan	nan	nan	nan	nan
1573.27099609375	0.0	40	3222059	125	87	240	0	1	1538283.2222909	1538283.2226658	80	1538286.2734878	1538286.2738871	40	1538289.6839995	1538289.6845117	100	imm	1538290.0881125	nan	nan	nan	nan	nan
1576.681640625	0.0	100	3229044	125	87	240	0	1	1538283.2222909	1538283.2226658	80	1538286.2734878	1538286.2738871	40	1538289.6839995	1538289.6845117	100	imm	1538290.0881125	nan	nan	nan	nan	nan
1579.9267578125	0.0	80	3235690	126	97	30	1	1	1538292.9291389	1538292.9294497	80	1538295.950641	1538295.9509021	40	1538299.2465081	1538299.2469666	100	del	1538299.7265399	1538300.2376962	1538300.2380494	120.0	2.0	1538301.1184212
1582.9482421875	0.0	40	3241878	126	97	30	1	1	1538292.9291389	1538292.9294497	80	1538295.950641	1538295.9509021	40	1538299.2465081	1538299.2469666	100	del	1538299.7265399	1538300.2376962	1538300.2380494	120.0	2.0	1538301.1184212
1586.244140625	0.0	100	3248628	126	97	30	1	1	1538292.9291389	1538292.9294497	80	1538295.950641	1538295.9509021	40	1538299.2465081	1538299.2469666	100	del	1538299.7265399	1538300.2376962	1538300.2380494	120.0	2.0	1538301.1184212
1587.23486328125	0.0	120	3250657	126	97	30	1	1	1538292.9291389	1538292.9294497	80	1538295.950641	1538295.9509021	40	1538299.2465081	1538299.2469666	100	del	1538299.7265399	1538300.2376962	1538300.2380494	120.0	2.0	1538301.1184212
1590.49072265625	0.0	80	3257325	127	67	410	0	1	1538303.493491	1538303.4939029	80	1538306.5557423	1538306.5562767	40	1538309.6775675	1538309.678067	100	imm	1538310.7988159	nan	nan	nan	nan	nan
1593.552734375	0.0	40	3263596	127	67	410	0	1	1538303.493491	1538303.4939029	80	1538306.5557423	1538306.5562767	40	1538309.6775675	1538309.678067	100	imm	1538310.7988159	nan	nan	nan	nan	nan
1596.6748046875	0.0	100	3269990	127	67	410	0	1	1538303.493491	1538303.4939029	80	1538306.5557423	1538306.5562767	40	1538309.6775675	1538309.678067	100	imm	1538310.7988159	nan	nan	nan	nan	nan
1600.71875	0.0	80	3278272	128	83	210	1	0	1538313.7218814	1538313.722464	80	1538316.7988777	1538316.7993453	40	1538320.2537992	1538320.2543195	100	imm	1538323.6147223	1538324.1253801	1538324.1258088	120.0	1.0	1538324.3426449
1603.7958984375	0.0	40	3284574	128	83	210	1	0	1538313.7218814	1538313.722464	80	1538316.7988777	1538316.7993453	40	1538320.2537992	1538320.2543195	100	imm	1538323.6147223	1538324.1253801	1538324.1258088	120.0	1.0	1538324.3426449
1607.25048828125	0.0	100	3291649	128	83	210	1	0	1538313.7218814	1538313.722464	80	1538316.7988777	1538316.7993453	40	1538320.2537992	1538320.2543195	100	imm	1538323.6147223	1538324.1253801	1538324.1258088	120.0	1.0	1538324.3426449
1611.1220703125	0.0	120	3299578	128	83	210	1	0	1538313.7218814	1538313.722464	80	1538316.7988777	1538316.7993453	40	1538320.2537992	1538320.2543195	100	imm	1538323.6147223	1538324.1253801	1538324.1258088	120.0	1.0	1538324.3426449
1613.8154296875	0.0	80	3305094	129	60	210	1	0	1538326.8186478	1538326.8191678	80	1538329.8333672	1538329.8338242	40	1538333.0355272	1538333.036028	100	del	1538335.0243905	1538335.5342077	1538335.5345403	120.0	1.0	1538336.6064174
1616.830078125	0.0	40	3311268	129	60	210	1	0	1538326.8186478	1538326.8191678	80	1538329.8333672	1538329.8338242	40	1538333.0355272	1538333.036028	100	del	1538335.0243905	1538335.5342077	1538335.5345403	120.0	1.0	1538336.6064174
1620.0322265625	0.0	100	3317826	129	60	210	1	0	1538326.8186478	1538326.8191678	80	1538329.8333672	1538329.8338242	40	1538333.0355272	1538333.036028	100	del	1538335.0243905	1538335.5342077	1538335.5345403	120.0	1.0	1538336.6064174
1622.5302734375	0.0	120	3322942	129	60	210	1	0	1538326.8186478	1538326.8191678	80	1538329.8333672	1538329.8338242	40	1538333.0355272	1538333.036028	100	del	1538335.0243905	1538335.5342077	1538335.5345403	120.0	1.0	1538336.6064174
1625.70361328125	0.0	80	3329441	130	80	240	0	1	1538338.7071895	1538338.7076787	80	1538341.9850058	1538341.9854785	40	1538345.0495481	1538345.0500652	100	imm	1538346.2479886	nan	nan	nan	nan	nan
1628.98095703125	0.0	40	3336153	130	80	240	0	1	1538338.7071895	1538338.7076787	80	1538341.9850058	1538341.9854785	40	1538345.0495481	1538345.0500652	100	imm	1538346.2479886	nan	nan	nan	nan	nan
1632.0458984375	0.0	100	3342430	130	80	240	0	1	1538338.7071895	1538338.7076787	80	1538341.9850058	1538341.9854785	40	1538345.0495481	1538345.0500652	100	imm	1538346.2479886	nan	nan	nan	nan	nan
1635.779296875	0.0	80	3350076	131	87	13	1	1	1538348.7835021	1538348.7839978	80	1538352.2574529	1538352.2578457	40	1538355.7558979	1538355.7563692	100	del	1538357.320486	1538357.8336034	1538357.8340197	120.0	2.0	1538358.2240346
1639.25341796875	0.0	40	3357191	131	87	13	1	1	1538348.7835021	1538348.7839978	80	1538352.2574529	1538352.2578457	40	1538355.7558979	1538355.7563692	100	del	1538357.320486	1538357.8336034	1538357.8340197	120.0	2.0	1538358.2240346
1642.751953125	0.0	100	3364356	131	87	13	1	1	1538348.7835021	1538348.7839978	80	1538352.2574529	1538352.2578457	40	1538355.7558979	1538355.7563692	100	del	1538357.320486	1538357.8336034	1538357.8340197	120.0	2.0	1538358.2240346
1644.82958984375	0.0	120	3368611	131	87	13	1	1	1538348.7835021	1538348.7839978	80	1538352.2574529	1538352.2578457	40	1538355.7558979	1538355.7563692	100	del	1538357.320486	1538357.8336034	1538357.8340197	120.0	2.0	1538358.2240346
1647.412109375	0.0	80	3373900	132	80	210	1	0	1538360.4165377	1538360.4168787	80	1538363.7461242	1538363.7466223	40	1538366.7929492	1538366.7935228	100	imm	1538369.822824	1538370.3340529	1538370.3344858	120.0	2.0	1538370.7595184
1650.74169921875	0.0	40	3380719	132	80	210	1	0	1538360.4165377	1538360.4168787	80	1538363.7461242	1538363.7466223	40	1538366.7929492	1538366.7935228	100	imm	1538369.822824	1538370.3340529	1538370.3344858	120.0	2.0	1538370.7595184
1653.78857421875	0.0	100	3386959	132	80	210	1	0	1538360.4165377	1538360.4168787	80	1538363.7461242	1538363.7466223	40	1538366.7929492	1538366.7935228	100	imm	1538369.822824	1538370.3340529	1538370.3344858	120.0	2.0	1538370.7595184
1657.32958984375	0.0	120	3394211	132	80	210	1	0	1538360.4165377	1538360.4168787	80	1538363.7461242	1538363.7466223	40	1538366.7929492	1538366.7935228	100	imm	1538369.822824	1538370.3340529	1538370.3344858	120.0	2.0	1538370.7595184
1659.8720703125	0.0	80	3399418	133	60	20	0	1	1538372.8768002	1538372.8772199	80	1538375.9040385	1538375.9045616	40	1538379.1522525	1538379.1527574	100	imm	1538382.7273195	nan	nan	nan	nan	nan
1662.8994140625	0.0	40	3405618	133	60	20	0	1	1538372.8768002	1538372.8772199	80	1538375.9040385	1538375.9045616	40	1538379.1522525	1538379.1527574	100	imm	1538382.7273195	nan	nan	nan	nan	nan
1666.1474609375	0.0	100	3412270	133	60	20	0	1	1538372.8768002	1538372.8772199	80	1538375.9040385	1538375.9045616	40	1538379.1522525	1538379.1527574	100	imm	1538382.7273195	nan	nan	nan	nan	nan
1672.31494140625	0.0	80	3424901	134	50	210	1	1	1538385.3199958	1538385.3205053	80	1538388.8231267	1538388.8236621	40	1538392.0506	1538392.051084	100	imm	1538395.895288	1538396.405778	1538396.406147	120.0	1.0	1538398.8231935
1675.81787109375	0.0	40	3432075	134	50	210	1	1	1538385.3199958	1538385.3205053	80	1538388.8231267	1538388.8236621	40	1538392.0506	1538392.051084	100	imm	1538395.895288	1538396.405778	1538396.406147	120.0	1.0	1538398.8231935
1679.04541015625	0.0	100	3438685	134	50	210	1	1	1538385.3199958	1538385.3205053	80	1538388.8231267	1538388.8236621	40	1538392.0506	1538392.051084	100	imm	1538395.895288	1538396.405778	1538396.406147	120.0	1.0	1538398.8231935
1683.400390625	0.0	120	3447604	134	50	210	1	1	1538385.3199958	1538385.3205053	80	1538388.8231267	1538388.8236621	40	1538392.0506	1538392.051084	100	imm	1538395.895288	1538396.405778	1538396.406147	120.0	1.0	1538398.8231935
1688.310546875	0.0	80	3457660	135	90	880	0	0	1538401.316165	1538401.3165786	80	1538404.6858637	1538404.6863668	40	1538407.9906562	1538407.9911946	100	imm	1538410.4231796	nan	nan	nan	nan	nan
1691.68017578125	0.0	40	3464561	135	90	880	0	0	1538401.316165	1538401.3165786	80	1538404.6858637	1538404.6863668	40	1538407.9906562	1538407.9911946	100	imm	1538410.4231796	nan	nan	nan	nan	nan
1694.98486328125	0.0	100	3471329	135	90	880	0	0	1538401.316165	1538401.3165786	80	1538404.6858637	1538404.6863668	40	1538407.9906562	1538407.9911946	100	imm	1538410.4231796	nan	nan	nan	nan	nan
