onset	duration	value	sample	trial_idx	val	del	is_cued	rev_opts	del_pres_displaytime	del_pres_triggertime	del_pres_triggercode	val_pres_displaytime	val_pres_triggertime	val_pres_triggercode	choice_displaytime	choice_triggertime	choice_triggercode	choice	choice_time	viv_displaytime	viv_triggertime	viv_triggercode	viv	viv_time
38.08935546875	0.0	80	78007	1	97	730	1	0	154174.9844411	154174.987703	80	154178.1887321	154178.1896049	40	154181.3165715	154181.3176142	100	imm	154183.118581	154183.6399401	154183.6407982	120.0	2.0	154186.1362892
41.2939453125	0.0	40	84570	1	97	730	1	0	154174.9844411	154174.987703	80	154178.1887321	154178.1896049	40	154181.3165715	154181.3176142	100	imm	154183.118581	154183.6399401	154183.6407982	120.0	2.0	154186.1362892
44.421875	0.0	100	90976	1	97	730	1	0	154174.9844411	154174.987703	80	154178.1887321	154178.1896049	40	154181.3165715	154181.3176142	100	imm	154183.118581	154183.6399401	154183.6407982	120.0	2.0	154186.1362892
46.74462890625	0.0	120	95733	1	97	730	1	0	154174.9844411	154174.987703	80	154178.1887321	154178.1896049	40	154181.3165715	154181.3176142	100	imm	154183.118581	154183.6399401	154183.6407982	120.0	2.0	154186.1362892
51.50439453125	0.0	80	105481	2	83	520	0	1	154188.3996654	154188.4004016	80	154191.5785131	154191.5792073	40	154195.0630879	154195.0634266	100	imm	154196.1026565	nan	nan	nan	nan	nan
54.68359375	0.0	40	111992	2	83	520	0	1	154188.3996654	154188.4004016	80	154191.5785131	154191.5792073	40	154195.0630879	154195.0634266	100	imm	154196.1026565	nan	nan	nan	nan	nan
58.16796875	0.0	100	119128	2	83	520	0	1	154188.3996654	154188.4004016	80	154191.5785131	154191.5792073	40	154195.0630879	154195.0634266	100	imm	154196.1026565	nan	nan	nan	nan	nan
62.1943359375	0.0	80	127374	3	53	260	0	0	154199.0894685	154199.0904689	80	154202.1251285	154202.1258332	40	154205.5087702	154205.5095234	100	imm	154206.3842942	nan	nan	nan	nan	nan
65.22998046875	0.0	40	133591	3	53	260	0	0	154199.0894685	154199.0904689	80	154202.1251285	154202.1258332	40	154205.5087702	154205.5095234	100	imm	154206.3842942	nan	nan	nan	nan	nan
68.61279296875	0.0	100	140519	3	53	260	0	0	154199.0894685	154199.0904689	80	154202.1251285	154202.1258332	40	154205.5087702	154205.5095234	100	imm	154206.3842942	nan	nan	nan	nan	nan
72.14404296875	0.0	80	147751	4	63	365	1	1	154209.0395525	154209.0402329	80	154212.2598791	154212.2605647	40	154215.5483854	154215.5493606	100	imm	154217.3583619	154217.8696833	154217.8701815	120.0	3.0	154223.7030849
75.3642578125	0.0	40	154346	4	63	365	1	1	154209.0395525	154209.0402329	80	154212.2598791	154212.2605647	40	154215.5483854	154215.5493606	100	imm	154217.3583619	154217.8696833	154217.8701815	120.0	3.0	154223.7030849
78.65234375	0.0	100	161080	4	63	365	1	1	154209.0395525	154209.0402329	80	154212.2598791	154212.2605647	40	154215.5483854	154215.5493606	100	imm	154217.3583619	154217.8696833	154217.8701815	120.0	3.0	154223.7030849
80.9736328125	0.0	120	165834	4	63	365	1	1	154209.0395525	154209.0402329	80	154212.2598791	154212.2605647	40	154215.5483854	154215.5493606	100	imm	154217.3583619	154217.8696833	154217.8701815	120.0	3.0	154223.7030849
89.30224609375	0.0	80	182891	5	83	180	1	1	154226.1984642	154226.2010571	80	154229.4225584	154229.4249782	40	154232.935937	154232.9384111	100	imm	154234.0391581	154234.5559403	154234.5567149	120.0	1.0	154236.6793822
92.5263671875	0.0	40	189494	5	83	180	1	1	154226.1984642	154226.2010571	80	154229.4225584	154229.4249782	40	154232.935937	154232.9384111	100	imm	154234.0391581	154234.5559403	154234.5567149	120.0	1.0	154236.6793822
96.03955078125	0.0	100	196689	5	83	180	1	1	154226.1984642	154226.2010571	80	154229.4225584	154229.4249782	40	154232.935937	154232.9384111	100	imm	154234.0391581	154234.5559403	154234.5567149	120.0	1.0	154236.6793822
97.6591796875	0.0	120	200006	5	83	180	1	1	154226.1984642	154226.2010571	80	154229.4225584	154229.4249782	40	154232.935937	154232.9384111	100	imm	154234.0391581	154234.5559403	154234.5567149	120.0	1.0	154236.6793822
101.95654296875	0.0	80	208807	6	100	365	1	1	154238.8530595	154238.8536839	80	154242.2116373	154242.2124608	40	154245.5585983	154245.5590901	100	imm	154247.1763476	154247.6899666	154247.6906692	120.0	2.0	154251.8544395
105.31494140625	0.0	40	215685	6	100	365	1	1	154238.8530595	154238.8536839	80	154242.2116373	154242.2124608	40	154245.5585983	154245.5590901	100	imm	154247.1763476	154247.6899666	154247.6906692	120.0	2.0	154251.8544395
108.662109375	0.0	100	222540	6	100	365	1	1	154238.8530595	154238.8536839	80	154242.2116373	154242.2124608	40	154245.5585983	154245.5590901	100	imm	154247.1763476	154247.6899666	154247.6906692	120.0	2.0	154251.8544395
110.79345703125	0.0	120	226905	6	100	365	1	1	154238.8530595	154238.8536839	80	154242.2116373	154242.2124608	40	154245.5585983	154245.5590901	100	imm	154247.1763476	154247.6899666	154247.6906692	120.0	2.0	154251.8544395
117.24365234375	0.0	80	240115	7	97	365	1	0	154254.1405004	154254.1409125	80	154257.4976924	154257.4981888	40	154260.8468793	154260.8473696	100	imm	154261.7682307	154262.2836024	154262.2860041	120.0	2.0	154265.1754025
120.6005859375	0.0	40	246990	7	97	365	1	0	154254.1405004	154254.1409125	80	154257.4976924	154257.4981888	40	154260.8468793	154260.8473696	100	imm	154261.7682307	154262.2836024	154262.2860041	120.0	2.0	154265.1754025
123.94970703125	0.0	100	253849	7	97	365	1	0	154254.1405004	154254.1409125	80	154257.4976924	154257.4981888	40	154260.8468793	154260.8473696	100	imm	154261.7682307	154262.2836024	154262.2860041	120.0	2.0	154265.1754025
125.38623046875	0.0	120	256791	7	97	365	1	0	154254.1405004	154254.1409125	80	154257.4976924	154257.4981888	40	154260.8468793	154260.8473696	100	imm	154261.7682307	154262.2836024	154262.2860041	120.0	2.0	154265.1754025
130.38330078125	0.0	80	267025	8	83	730	1	1	154267.2803649	154267.2808862	80	154270.3521018	154270.3525837	40	154273.8674616	154273.867973	100	imm	154276.2390663	154276.7531561	154276.7536753	120.0	3.0	154280.4562385
133.45458984375	0.0	40	273315	8	83	730	1	1	154267.2803649	154267.2808862	80	154270.3521018	154270.3525837	40	154273.8674616	154273.867973	100	imm	154276.2390663	154276.7531561	154276.7536753	120.0	3.0	154280.4562385
136.97021484375	0.0	100	280515	8	83	730	1	1	154267.2803649	154267.2808862	80	154270.3521018	154270.3525837	40	154273.8674616	154273.867973	100	imm	154276.2390663	154276.7531561	154276.7536753	120.0	3.0	154280.4562385
139.85546875	0.0	120	286424	8	83	730	1	1	154267.2803649	154267.2808862	80	154270.3521018	154270.3525837	40	154273.8674616	154273.867973	100	imm	154276.2390663	154276.7531561	154276.7536753	120.0	3.0	154280.4562385
145.66015625	0.0	80	298312	9	100	520	0	0	154282.5577679	154282.5583429	80	154285.5816549	154285.5821855	40	154288.8756199	154288.8761691	100	imm	154291.0705141	nan	nan	nan	nan	nan
148.68359375	0.0	40	304504	9	100	520	0	0	154282.5577679	154282.5583429	80	154285.5816549	154285.5821855	40	154288.8756199	154288.8761691	100	imm	154291.0705141	nan	nan	nan	nan	nan
151.9775390625	0.0	100	311250	9	100	520	0	0	154282.5577679	154282.5583429	80	154285.5816549	154285.5821855	40	154288.8756199	154288.8761691	100	imm	154291.0705141	nan	nan	nan	nan	nan
157.1337890625	0.0	80	321810	10	70	10	0	1	154294.0317983	154294.0322686	80	154297.3744112	154297.374916	40	154300.4828152	154300.4833216	100	del	154302.7283976	nan	nan	nan	nan	nan
160.47607421875	0.0	40	328655	10	70	10	0	1	154294.0317983	154294.0322686	80	154297.3744112	154297.374916	40	154300.4828152	154300.4833216	100	del	154302.7283976	nan	nan	nan	nan	nan
163.58447265625	0.0	100	335021	10	70	10	0	1	154294.0317983	154294.0322686	80	154297.3744112	154297.374916	40	154300.4828152	154300.4833216	100	del	154302.7283976	nan	nan	nan	nan	nan
168.5322265625	0.0	80	345154	11	73	730	1	1	154305.4305459	154305.4310375	80	154308.6686018	154308.6690561	40	154312.1737958	154312.1742776	100	imm	154316.8314832	154317.341732	154317.3420535	120.0	3.0	154318.4951926
171.77001953125	0.0	40	351785	11	73	730	1	1	154305.4305459	154305.4310375	80	154308.6686018	154308.6690561	40	154312.1737958	154312.1742776	100	imm	154316.8314832	154317.341732	154317.3420535	120.0	3.0	154318.4951926
175.275390625	0.0	100	358964	11	73	730	1	1	154305.4305459	154305.4310375	80	154308.6686018	154308.6690561	40	154312.1737958	154312.1742776	100	imm	154316.8314832	154317.341732	154317.3420535	120.0	3.0	154318.4951926
180.44287109375	0.0	120	369547	11	73	730	1	1	154305.4305459	154305.4310375	80	154308.6686018	154308.6690561	40	154312.1737958	154312.1742776	100	imm	154316.8314832	154317.341732	154317.3420535	120.0	3.0	154318.4951926
183.69189453125	0.0	80	376201	12	50	180	1	1	154320.5905444	154320.5910544	80	154324.0269078	154324.0274067	40	154327.3620305	154327.3625491	100	imm	154328.295257	154328.808819	154328.8092933	120.0	1.0	154330.4389915
187.1279296875	0.0	40	383238	12	50	180	1	1	154320.5905444	154320.5910544	80	154324.0269078	154324.0274067	40	154327.3620305	154327.3625491	100	imm	154328.295257	154328.808819	154328.8092933	120.0	1.0	154330.4389915
190.462890625	0.0	100	390068	12	50	180	1	1	154320.5905444	154320.5910544	80	154324.0269078	154324.0274067	40	154327.3620305	154327.3625491	100	imm	154328.295257	154328.808819	154328.8092933	120.0	1.0	154330.4389915
191.90966796875	0.0	120	393031	12	50	180	1	1	154320.5905444	154320.5910544	80	154324.0269078	154324.0274067	40	154327.3620305	154327.3625491	100	imm	154328.295257	154328.808819	154328.8092933	120.0	1.0	154330.4389915
195.74755859375	0.0	80	400891	13	50	1030	0	1	154332.6467269	154332.647171	80	154335.7497081	154335.7502606	40	154338.9782193	154338.9786743	100	imm	154339.9504885	nan	nan	nan	nan	nan
198.8505859375	0.0	40	407246	13	50	1030	0	1	154332.6467269	154332.647171	80	154335.7497081	154335.7502606	40	154338.9782193	154338.9786743	100	imm	154339.9504885	nan	nan	nan	nan	nan
202.0791015625	0.0	100	413858	13	50	1030	0	1	154332.6467269	154332.647171	80	154335.7497081	154335.7502606	40	154338.9782193	154338.9786743	100	imm	154339.9504885	nan	nan	nan	nan	nan
205.80908203125	0.0	80	421497	14	90	180	1	1	154342.7084498	154342.7088184	80	154345.7760776	154345.7764826	40	154349.0847938	154349.0853811	100	imm	154355.6949539	154356.2084084	154356.2089449	120.0	2.0	154361.4705773
208.87646484375	0.0	40	427779	14	90	180	1	1	154342.7084498	154342.7088184	80	154345.7760776	154345.7764826	40	154349.0847938	154349.0853811	100	imm	154355.6949539	154356.2084084	154356.2089449	120.0	2.0	154361.4705773
212.18505859375	0.0	100	434555	14	90	180	1	1	154342.7084498	154342.7088184	80	154345.7760776	154345.7764826	40	154349.0847938	154349.0853811	100	imm	154355.6949539	154356.2084084	154356.2089449	120.0	2.0	154361.4705773
219.30859375	0.0	120	449144	14	90	180	1	1	154342.7084498	154342.7088184	80	154345.7760776	154345.7764826	40	154349.0847938	154349.0853811	100	imm	154355.6949539	154356.2084084	154356.2089449	120.0	2.0	154361.4705773
226.7001953125	0.0	80	464282	15	100	1030	0	1	154363.6001167	154363.6006064	80	154366.7993643	154366.7996679	40	154370.1047436	154370.1052162	100	imm	154371.023404	nan	nan	nan	nan	nan
229.8994140625	0.0	40	470834	15	100	1030	0	1	154363.6001167	154363.6006064	80	154366.7993643	154366.7996679	40	154370.1047436	154370.1052162	100	imm	154371.023404	nan	nan	nan	nan	nan
233.20458984375	0.0	100	477603	15	100	1030	0	1	154363.6001167	154363.6006064	80	154366.7993643	154366.7996679	40	154370.1047436	154370.1052162	100	imm	154371.023404	nan	nan	nan	nan	nan
236.76806640625	0.0	80	484901	16	100	180	1	1	154373.6682452	154373.6688175	80	154376.8214204	154376.821908	40	154380.1431477	154380.1436433	100	imm	154386.8792195	154387.3923377	154387.3928355	120.0	1.0	154388.7031329
239.9208984375	0.0	40	491358	16	100	180	1	1	154373.6682452	154373.6688175	80	154376.8214204	154376.821908	40	154380.1431477	154380.1436433	100	imm	154386.8792195	154387.3923377	154387.3928355	120.0	1.0	154388.7031329
243.24267578125	0.0	100	498161	16	100	180	1	1	154373.6682452	154373.6688175	80	154376.8214204	154376.821908	40	154380.1431477	154380.1436433	100	imm	154386.8792195	154387.3923377	154387.3928355	120.0	1.0	154388.7031329
250.49169921875	0.0	120	513007	16	100	180	1	1	154373.6682452	154373.6688175	80	154376.8214204	154376.821908	40	154380.1431477	154380.1436433	100	imm	154386.8792195	154387.3923377	154387.3928355	120.0	1.0	154388.7031329
253.951171875	0.0	80	520092	17	80	80	0	1	154390.8519442	154390.8524488	80	154394.2719053	154394.2724109	40	154397.7762755	154397.7767938	100	del	154400.4875048	nan	nan	nan	nan	nan
257.37109375	0.0	40	527096	17	80	80	0	1	154390.8519442	154390.8524488	80	154394.2719053	154394.2724109	40	154397.7762755	154397.7767938	100	del	154400.4875048	nan	nan	nan	nan	nan
260.87548828125	0.0	100	534273	17	80	80	0	1	154390.8519442	154390.8524488	80	154394.2719053	154394.2724109	40	154397.7762755	154397.7767938	100	del	154400.4875048	nan	nan	nan	nan	nan
266.470703125	0.0	80	545732	18	93	80	0	1	154403.3719823	154403.3725129	80	154406.5514721	154406.5519286	40	154409.8565501	154409.8570586	100	del	154410.9994154	nan	nan	nan	nan	nan
269.650390625	0.0	40	552244	18	93	80	0	1	154403.3719823	154403.3725129	80	154406.5514721	154406.5519286	40	154409.8565501	154409.8570586	100	del	154410.9994154	nan	nan	nan	nan	nan
272.955078125	0.0	100	559012	18	93	80	0	1	154403.3719823	154403.3725129	80	154406.5514721	154406.5519286	40	154409.8565501	154409.8570586	100	del	154410.9994154	nan	nan	nan	nan	nan
276.6708984375	0.0	80	566622	19	73	1030	0	1	154413.5722985	154413.5727605	80	154417.0332684	154417.0337698	40	154420.4861389	154420.4866655	100	imm	154421.318763	nan	nan	nan	nan	nan
280.1318359375	0.0	40	573710	19	73	1030	0	1	154413.5722985	154413.5727605	80	154417.0332684	154417.0337698	40	154420.4861389	154420.4866655	100	imm	154421.318763	nan	nan	nan	nan	nan
283.58447265625	0.0	100	580781	19	73	1030	0	1	154413.5722985	154413.5727605	80	154417.0332684	154417.0337698	40	154420.4861389	154420.4866655	100	imm	154421.318763	nan	nan	nan	nan	nan
287.34521484375	0.0	80	588483	20	97	180	1	0	154424.2470055	154424.2474701	80	154427.385071	154427.3856109	40	154430.6958149	154430.6963055	100	imm	154434.415042	154434.9253246	154434.9257074	120.0	2.0	154438.647534
290.4833984375	0.0	40	594910	20	97	180	1	0	154424.2470055	154424.2474701	80	154427.385071	154427.3856109	40	154430.6958149	154430.6963055	100	imm	154434.415042	154434.9253246	154434.9257074	120.0	2.0	154438.647534
293.7939453125	0.0	100	601690	20	97	180	1	0	154424.2470055	154424.2474701	80	154427.385071	154427.3856109	40	154430.6958149	154430.6963055	100	imm	154434.415042	154434.9253246	154434.9257074	120.0	2.0	154438.647534
298.0234375	0.0	120	610352	20	97	180	1	0	154424.2470055	154424.2474701	80	154427.385071	154427.3856109	40	154430.6958149	154430.6963055	100	imm	154434.415042	154434.9253246	154434.9257074	120.0	2.0	154438.647534
333.54248046875	0.0	80	683095	21	57	1030	0	1	154470.4456512	154470.4460337	80	154473.665672	154473.6661214	40	154476.8366295	154476.8371334	100	imm	154477.5908754	nan	nan	nan	nan	nan
336.7626953125	0.0	40	689690	21	57	1030	0	1	154470.4456512	154470.4460337	80	154473.665672	154473.6661214	40	154476.8366295	154476.8371334	100	imm	154477.5908754	nan	nan	nan	nan	nan
339.93359375	0.0	100	696184	21	57	1030	0	1	154470.4456512	154470.4460337	80	154473.665672	154473.6661214	40	154476.8366295	154476.8371334	100	imm	154477.5908754	nan	nan	nan	nan	nan
343.28662109375	0.0	80	703051	22	100	730	1	1	154480.1899084	154480.190388	80	154483.2875819	154483.2880352	40	154486.5118787	154486.512357	100	imm	154491.7606309	154492.2747539	154492.2752073	120.0	2.0	154494.5186674
346.38427734375	0.0	40	709395	22	100	730	1	1	154480.1899084	154480.190388	80	154483.2875819	154483.2880352	40	154486.5118787	154486.512357	100	imm	154491.7606309	154492.2747539	154492.2752073	120.0	2.0	154494.5186674
349.6083984375	0.0	100	715998	22	100	730	1	1	154480.1899084	154480.190388	80	154483.2875819	154483.2880352	40	154486.5118787	154486.512357	100	imm	154491.7606309	154492.2747539	154492.2752073	120.0	2.0	154494.5186674
355.37109375	0.0	120	727800	22	100	730	1	1	154480.1899084	154480.190388	80	154483.2875819	154483.2880352	40	154486.5118787	154486.512357	100	imm	154491.7606309	154492.2747539	154492.2752073	120.0	2.0	154494.5186674
359.6767578125	0.0	80	736618	23	87	520	0	1	154496.5805908	154496.5810656	80	154499.8884877	154499.8889726	40	154503.1375642	154503.1380392	100	imm	154504.5511036	nan	nan	nan	nan	nan
362.98486328125	0.0	40	743393	23	87	520	0	1	154496.5805908	154496.5810656	80	154499.8884877	154499.8889726	40	154503.1375642	154503.1380392	100	imm	154504.5511036	nan	nan	nan	nan	nan
366.23388671875	0.0	100	750047	23	87	520	0	1	154496.5805908	154496.5810656	80	154499.8884877	154499.8889726	40	154503.1375642	154503.1380392	100	imm	154504.5511036	nan	nan	nan	nan	nan
370.51318359375	0.0	80	758811	24	63	80	0	1	154507.4171626	154507.417713	80	154510.7746487	154510.7751072	40	154514.1073164	154514.1079214	100	del	154515.9046147	nan	nan	nan	nan	nan
373.87060546875	0.0	40	765687	24	63	80	0	1	154507.4171626	154507.417713	80	154510.7746487	154510.7751072	40	154514.1073164	154514.1079214	100	del	154515.9046147	nan	nan	nan	nan	nan
377.203125	0.0	100	772512	24	63	80	0	1	154507.4171626	154507.417713	80	154510.7746487	154510.7751072	40	154514.1073164	154514.1079214	100	del	154515.9046147	nan	nan	nan	nan	nan
381.53369140625	0.0	80	781381	25	77	730	1	0	154518.4377963	154518.4383066	80	154521.4801348	154521.4805723	40	154524.6531199	154524.653559	100	imm	154528.5206011	154529.0349279	154529.0354418	120.0	3.0	154530.1115267
384.57568359375	0.0	40	787611	25	77	730	1	0	154518.4377963	154518.4383066	80	154521.4801348	154521.4805723	40	154524.6531199	154524.653559	100	imm	154528.5206011	154529.0349279	154529.0354418	120.0	3.0	154530.1115267
387.74853515625	0.0	100	794109	25	77	730	1	0	154518.4377963	154518.4383066	80	154521.4801348	154521.4805723	40	154524.6531199	154524.653559	100	imm	154528.5206011	154529.0349279	154529.0354418	120.0	3.0	154530.1115267
392.13037109375	0.0	120	803083	25	77	730	1	0	154518.4377963	154518.4383066	80	154521.4801348	154521.4805723	40	154524.6531199	154524.653559	100	imm	154528.5206011	154529.0349279	154529.0354418	120.0	3.0	154530.1115267
395.48828125	0.0	80	809960	26	80	365	1	1	154532.3931071	154532.3936064	80	154535.7296129	154535.7301408	40	154538.9469693	154538.9474487	100	imm	154540.4472128	154540.9591353	154540.9595619	120.0	3.0	154544.6883697
398.82470703125	0.0	40	816793	26	80	365	1	1	154532.3931071	154532.3936064	80	154535.7296129	154535.7301408	40	154538.9469693	154538.9474487	100	imm	154540.4472128	154540.9591353	154540.9595619	120.0	3.0	154544.6883697
402.0419921875	0.0	100	823382	26	80	365	1	1	154532.3931071	154532.3936064	80	154535.7296129	154535.7301408	40	154538.9469693	154538.9474487	100	imm	154540.4472128	154540.9591353	154540.9595619	120.0	3.0	154544.6883697
404.05419921875	0.0	120	827503	26	80	365	1	1	154532.3931071	154532.3936064	80	154535.7296129	154535.7301408	40	154538.9469693	154538.9474487	100	imm	154540.4472128	154540.9591353	154540.9595619	120.0	3.0	154544.6883697
410.20947265625	0.0	80	840109	27	63	10	0	0	154547.1143026	154547.1159494	80	154550.4818904	154550.4823647	40	154553.9792679	154553.9797744	100	del	154555.7114208	nan	nan	nan	nan	nan
413.57666015625	0.0	40	847005	27	63	10	0	0	154547.1143026	154547.1159494	80	154550.4818904	154550.4823647	40	154553.9792679	154553.9797744	100	del	154555.7114208	nan	nan	nan	nan	nan
417.07421875	0.0	100	854168	27	63	10	0	0	154547.1143026	154547.1159494	80	154550.4818904	154550.4823647	40	154553.9792679	154553.9797744	100	del	154555.7114208	nan	nan	nan	nan	nan
421.58935546875	0.0	80	863415	28	73	80	0	0	154558.4946662	154558.4951909	80	154561.6647652	154561.6652249	40	154564.7311918	154564.7317547	100	del	154566.1749655	nan	nan	nan	nan	nan
424.75927734375	0.0	40	869907	28	73	80	0	0	154558.4946662	154558.4951909	80	154561.6647652	154561.6652249	40	154564.7311918	154564.7317547	100	del	154566.1749655	nan	nan	nan	nan	nan
427.82568359375	0.0	100	876187	28	73	80	0	0	154558.4946662	154558.4951909	80	154561.6647652	154561.6652249	40	154564.7311918	154564.7317547	100	del	154566.1749655	nan	nan	nan	nan	nan
432.0927734375	0.0	80	884926	29	60	10	0	0	154568.9985258	154568.9989412	80	154572.3953996	154572.3958561	40	154575.6205816	154575.6209982	100	del	154576.3510739	nan	nan	nan	nan	nan
435.48974609375	0.0	40	891883	29	60	10	0	0	154568.9985258	154568.9989412	80	154572.3953996	154572.3958561	40	154575.6205816	154575.6209982	100	del	154576.3510739	nan	nan	nan	nan	nan
438.71484375	0.0	100	898488	29	60	10	0	0	154568.9985258	154568.9989412	80	154572.3953996	154572.3958561	40	154575.6205816	154575.6209982	100	del	154576.3510739	nan	nan	nan	nan	nan
442.00927734375	0.0	80	905235	30	60	80	0	1	154578.9151811	154578.9156809	80	154582.0561594	154582.0566147	40	154585.1471445	154585.1476632	100	imm	154587.4153159	nan	nan	nan	nan	nan
445.14990234375	0.0	40	911667	30	60	80	0	1	154578.9151811	154578.9156809	80	154582.0561594	154582.0566147	40	154585.1471445	154585.1476632	100	imm	154587.4153159	nan	nan	nan	nan	nan
448.2412109375	0.0	100	917998	30	60	80	0	1	154578.9151811	154578.9156809	80	154582.0561594	154582.0566147	40	154585.1471445	154585.1476632	100	imm	154587.4153159	nan	nan	nan	nan	nan
453.16796875	0.0	80	928088	31	60	520	0	1	154590.0741334	154590.0746422	80	154593.3018807	154593.3022964	40	154596.5790651	154596.5795349	100	imm	154598.7355282	nan	nan	nan	nan	nan
456.3955078125	0.0	40	934698	31	60	520	0	1	154590.0741334	154590.0746422	80	154593.3018807	154593.3022964	40	154596.5790651	154596.5795349	100	imm	154598.7355282	nan	nan	nan	nan	nan
459.67236328125	0.0	100	941409	31	60	520	0	1	154590.0741334	154590.0746422	80	154593.3018807	154593.3022964	40	154596.5790651	154596.5795349	100	imm	154598.7355282	nan	nan	nan	nan	nan
464.57666015625	0.0	80	951453	32	53	30	1	1	154601.4831493	154601.4836091	80	154604.9283945	154604.9288855	40	154608.2007841	154608.2012942	100	del	154612.1597034	154612.6694693	154612.669854	120.0	3.0	154614.1833946
468.021484375	0.0	40	958508	32	53	30	1	1	154601.4831493	154601.4836091	80	154604.9283945	154604.9288855	40	154608.2007841	154608.2012942	100	del	154612.1597034	154612.6694693	154612.669854	120.0	3.0	154614.1833946
471.2939453125	0.0	100	965210	32	53	30	1	1	154601.4831493	154601.4836091	80	154604.9283945	154604.9288855	40	154608.2007841	154608.2012942	100	del	154612.1597034	154612.6694693	154612.669854	120.0	3.0	154614.1833946
475.7626953125	0.0	120	974362	32	53	30	1	1	154601.4831493	154601.4836091	80	154604.9283945	154604.9288855	40	154608.2007841	154608.2012942	100	del	154612.1597034	154612.6694693	154612.669854	120.0	3.0	154614.1833946
479.76416015625	0.0	80	982557	33	93	30	1	0	154616.6712864	154616.6718473	80	154619.9978553	154619.9982472	40	154623.4881021	154623.488444	100	del	154624.4071719	154624.9205264	154624.921024	120.0	3.0	154627.1994224
483.0908203125	0.0	40	989370	33	93	30	1	0	154616.6712864	154616.6718473	80	154619.9978553	154619.9982472	40	154623.4881021	154623.488444	100	del	154624.4071719	154624.9205264	154624.921024	120.0	3.0	154627.1994224
486.5810546875	0.0	100	996518	33	93	30	1	0	154616.6712864	154616.6718473	80	154619.9978553	154619.9982472	40	154623.4881021	154623.488444	100	del	154624.4071719	154624.9205264	154624.921024	120.0	3.0	154627.1994224
488.01318359375	0.0	120	999451	33	93	30	1	0	154616.6712864	154616.6718473	80	154619.9978553	154619.9982472	40	154623.4881021	154623.488444	100	del	154624.4071719	154624.9205264	154624.921024	120.0	3.0	154627.1994224
492.42919921875	0.0	80	1008495	34	63	30	1	0	154629.3365629	154629.3370483	80	154632.6823218	154632.6828797	40	154635.840963	154635.8414851	100	del	154638.6070017	154639.120656	154639.1211682	120.0	1.0	154639.9031894
495.77490234375	0.0	40	1015347	34	63	30	1	0	154629.3365629	154629.3370483	80	154632.6823218	154632.6828797	40	154635.840963	154635.8414851	100	del	154638.6070017	154639.120656	154639.1211682	120.0	1.0	154639.9031894
498.93359375	0.0	100	1021816	34	63	30	1	0	154629.3365629	154629.3370483	80	154632.6823218	154632.6828797	40	154635.840963	154635.8414851	100	del	154638.6070017	154639.120656	154639.1211682	120.0	1.0	154639.9031894
502.212890625	0.0	120	1028532	34	63	30	1	0	154629.3365629	154629.3370483	80	154632.6823218	154632.6828797	40	154635.840963	154635.8414851	100	del	154638.6070017	154639.120656	154639.1211682	120.0	1.0	154639.9031894
505.3466796875	0.0	80	1034950	35	67	30	1	0	154642.2544826	154642.255001	80	154645.6096207	154645.6100745	40	154648.6569141	154648.6574052	100	del	154649.4549536	154649.9686771	154649.9691587	120.0	1.0	154650.9352937
508.70166015625	0.0	40	1041821	35	67	30	1	0	154642.2544826	154642.255001	80	154645.6096207	154645.6100745	40	154648.6569141	154648.6574052	100	del	154649.4549536	154649.9686771	154649.9691587	120.0	1.0	154650.9352937
511.7490234375	0.0	100	1048062	35	67	30	1	0	154642.2544826	154642.255001	80	154645.6096207	154645.6100745	40	154648.6569141	154648.6574052	100	del	154649.4549536	154649.9686771	154649.9691587	120.0	1.0	154650.9352937
513.060546875	0.0	120	1050748	35	67	30	1	0	154642.2544826	154642.255001	80	154645.6096207	154645.6100745	40	154648.6569141	154648.6574052	100	del	154649.4549536	154649.9686771	154649.9691587	120.0	1.0	154650.9352937
516.17041015625	0.0	80	1057117	36	57	80	0	1	154653.0783057	154653.078843	80	154656.1984093	154656.1991623	40	154659.545601	154659.5460925	100	imm	154660.3270812	nan	nan	nan	nan	nan
519.2900390625	0.0	40	1063506	36	57	80	0	1	154653.0783057	154653.078843	80	154656.1984093	154656.1991623	40	154659.545601	154659.5460925	100	imm	154660.3270812	nan	nan	nan	nan	nan
522.63720703125	0.0	100	1070361	36	57	80	0	1	154653.0783057	154653.078843	80	154656.1984093	154656.1991623	40	154659.545601	154659.5460925	100	imm	154660.3270812	nan	nan	nan	nan	nan
526.35986328125	0.0	80	1077985	37	70	260	0	0	154663.2681699	154663.2687202	80	154666.4487141	154666.4492028	40	154669.8529965	154669.8535082	100	imm	154670.4155023	nan	nan	nan	nan	nan
529.54052734375	0.0	40	1084499	37	70	260	0	0	154663.2681699	154663.2687202	80	154666.4487141	154666.4492028	40	154669.8529965	154669.8535082	100	imm	154670.4155023	nan	nan	nan	nan	nan
532.9443359375	0.0	100	1091470	37	70	260	0	0	154663.2681699	154663.2687202	80	154666.4487141	154666.4492028	40	154669.8529965	154669.8535082	100	imm	154670.4155023	nan	nan	nan	nan	nan
536.35791015625	0.0	80	1098461	38	63	180	1	1	154673.2663147	154673.2665258	80	154676.2744907	154676.2748292	40	154679.5886218	154679.5891055	100	imm	154683.3589867	154683.8689414	154683.869286	120.0	2.0	154685.1840299
539.36572265625	0.0	40	1104621	38	63	180	1	1	154673.2663147	154673.2665258	80	154676.2744907	154676.2748292	40	154679.5886218	154679.5891055	100	imm	154683.3589867	154683.8689414	154683.869286	120.0	2.0	154685.1840299
542.6796875	0.0	100	1111408	38	63	180	1	1	154673.2663147	154673.2665258	80	154676.2744907	154676.2748292	40	154679.5886218	154679.5891055	100	imm	154683.3589867	154683.8689414	154683.869286	120.0	2.0	154685.1840299
546.9599609375	0.0	120	1120174	38	63	180	1	1	154673.2663147	154673.2665258	80	154676.2744907	154676.2748292	40	154679.5886218	154679.5891055	100	imm	154683.3589867	154683.8689414	154683.869286	120.0	2.0	154685.1840299
550.484375	0.0	80	1127392	39	80	520	0	0	154687.3932394	154687.3937729	80	154690.8590191	154690.8595124	40	154693.8736702	154693.8741787	100	imm	154696.5754727	nan	nan	nan	nan	nan
553.94970703125	0.0	40	1134489	39	80	520	0	0	154687.3932394	154687.3937729	80	154690.8590191	154690.8595124	40	154693.8736702	154693.8741787	100	imm	154696.5754727	nan	nan	nan	nan	nan
556.96435546875	0.0	100	1140663	39	80	520	0	0	154687.3932394	154687.3937729	80	154690.8590191	154690.8595124	40	154693.8736702	154693.8741787	100	imm	154696.5754727	nan	nan	nan	nan	nan
562.4150390625	0.0	80	1151826	40	83	30	1	1	154699.3243547	154699.3248788	80	154702.5448843	154702.5454181	40	154705.7887148	154705.7892169	100	del	154707.471468	154707.9802344	154707.9805708	120.0	2.0	154708.5110856
565.63525390625	0.0	40	1158421	40	83	30	1	1	154699.3243547	154699.3248788	80	154702.5448843	154702.5454181	40	154705.7887148	154705.7892169	100	del	154707.471468	154707.9802344	154707.9805708	120.0	2.0	154708.5110856
568.87939453125	0.0	100	1165065	40	83	30	1	1	154699.3243547	154699.3248788	80	154702.5448843	154702.5454181	40	154705.7887148	154705.7892169	100	del	154707.471468	154707.9802344	154707.9805708	120.0	2.0	154708.5110856
571.07080078125	0.0	120	1169553	40	83	30	1	1	154699.3243547	154699.3248788	80	154702.5448843	154702.5454181	40	154705.7887148	154705.7892169	100	del	154707.471468	154707.9802344	154707.9805708	120.0	2.0	154708.5110856
626.314453125	0.0	80	1282692	41	90	260	0	0	154763.2253695	154763.2258711	80	154766.3941609	154766.3946515	40	154769.7996606	154769.8001337	100	del	154771.0791282	nan	nan	nan	nan	nan
629.48291015625	0.0	40	1289181	41	90	260	0	0	154763.2253695	154763.2258711	80	154766.3941609	154766.3946515	40	154769.7996606	154769.8001337	100	del	154771.0791282	nan	nan	nan	nan	nan
632.88818359375	0.0	100	1296155	41	90	260	0	0	154763.2253695	154763.2258711	80	154766.3941609	154766.3946515	40	154769.7996606	154769.8001337	100	del	154771.0791282	nan	nan	nan	nan	nan
636.92138671875	0.0	80	1304415	42	87	80	0	1	154773.8326149	154773.8331129	80	154776.858961	154776.8594383	40	154779.9599214	154779.9604237	100	del	154782.3835843	nan	nan	nan	nan	nan
639.947265625	0.0	40	1310612	42	87	80	0	1	154773.8326149	154773.8331129	80	154776.858961	154776.8594383	40	154779.9599214	154779.9604237	100	del	154782.3835843	nan	nan	nan	nan	nan
643.04833984375	0.0	100	1316963	42	87	80	0	1	154773.8326149	154773.8331129	80	154776.858961	154776.8594383	40	154779.9599214	154779.9604237	100	del	154782.3835843	nan	nan	nan	nan	nan
648.35009765625	0.0	80	1327821	43	50	260	0	0	154785.2619475	154785.2624234	80	154788.5063398	154788.5068338	40	154791.595677	154791.5961464	100	imm	154792.2235838	nan	nan	nan	nan	nan
651.5947265625	0.0	40	1334466	43	50	260	0	0	154785.2619475	154785.2624234	80	154788.5063398	154788.5068338	40	154791.595677	154791.5961464	100	imm	154792.2235838	nan	nan	nan	nan	nan
654.68359375	0.0	100	1340792	43	50	260	0	0	154785.2619475	154785.2624234	80	154788.5063398	154788.5068338	40	154791.595677	154791.5961464	100	imm	154792.2235838	nan	nan	nan	nan	nan
658.0	0.0	80	1347584	44	93	730	1	1	154794.9118832	154794.912381	80	154798.2231523	154798.2236106	40	154801.3329005	154801.3334127	100	del	154804.599004	154805.1126461	154805.1131152	120.0	2.0	154806.4715063
661.31103515625	0.0	40	1354365	44	93	730	1	1	154794.9118832	154794.912381	80	154798.2231523	154798.2236106	40	154801.3329005	154801.3334127	100	del	154804.599004	154805.1126461	154805.1131152	120.0	2.0	154806.4715063
664.4208984375	0.0	100	1360734	44	93	730	1	1	154794.9118832	154794.912381	80	154798.2231523	154798.2236106	40	154801.3329005	154801.3334127	100	del	154804.599004	154805.1126461	154805.1131152	120.0	2.0	154806.4715063
668.2001953125	0.0	120	1368474	44	93	730	1	1	154794.9118832	154794.912381	80	154798.2231523	154798.2236106	40	154801.3329005	154801.3334127	100	del	154804.599004	154805.1126461	154805.1131152	120.0	2.0	154806.4715063
671.9443359375	0.0	80	1376142	45	57	10	0	1	154808.8569314	154808.8573923	80	154811.9860159	154811.9865072	40	154815.4575531	154815.4580972	100	del	154816.9998467	nan	nan	nan	nan	nan
675.07373046875	0.0	40	1382551	45	57	10	0	1	154808.8569314	154808.8573923	80	154811.9860159	154811.9865072	40	154815.4575531	154815.4580972	100	del	154816.9998467	nan	nan	nan	nan	nan
678.544921875	0.0	100	1389660	45	57	10	0	1	154808.8569314	154808.8573923	80	154811.9860159	154811.9865072	40	154815.4575531	154815.4580972	100	del	154816.9998467	nan	nan	nan	nan	nan
682.740234375	0.0	80	1398252	46	97	30	1	1	154819.6527024	154819.653193	80	154823.0431164	154823.043574	40	154826.1518005	154826.1522966	100	del	154827.631547	154828.1418151	154828.14211	120.0	1.0	154830.5918969
686.13037109375	0.0	40	1405195	46	97	30	1	1	154819.6527024	154819.653193	80	154823.0431164	154823.043574	40	154826.1518005	154826.1522966	100	del	154827.631547	154828.1418151	154828.14211	120.0	1.0	154830.5918969
689.23876953125	0.0	100	1411561	46	97	30	1	1	154819.6527024	154819.653193	80	154823.0431164	154823.043574	40	154826.1518005	154826.1522966	100	del	154827.631547	154828.1418151	154828.14211	120.0	1.0	154830.5918969
691.22900390625	0.0	120	1415637	46	97	30	1	1	154819.6527024	154819.653193	80	154823.0431164	154823.043574	40	154826.1518005	154826.1522966	100	del	154827.631547	154828.1418151	154828.14211	120.0	1.0	154830.5918969
695.83740234375	0.0	80	1425075	47	53	80	0	0	154832.7506765	154832.7511697	80	154835.8037614	154835.8042168	40	154839.1049294	154839.1054226	100	imm	154841.3999565	nan	nan	nan	nan	nan
698.890625	0.0	40	1431328	47	53	80	0	0	154832.7506765	154832.7511697	80	154835.8037614	154835.8042168	40	154839.1049294	154839.1054226	100	imm	154841.3999565	nan	nan	nan	nan	nan
702.19189453125	0.0	100	1438089	47	53	80	0	0	154832.7506765	154832.7511697	80	154835.8037614	154835.8042168	40	154839.1049294	154839.1054226	100	imm	154841.3999565	nan	nan	nan	nan	nan
707.34619140625	0.0	80	1448645	48	80	10	0	0	154844.2594065	154844.2598619	80	154847.5402671	154847.5407629	40	154850.7702764	154850.770678	100	del	154851.8487875	nan	nan	nan	nan	nan
710.626953125	0.0	40	1455364	48	80	10	0	0	154844.2594065	154844.2598619	80	154847.5402671	154847.5407629	40	154850.7702764	154850.770678	100	del	154851.8487875	nan	nan	nan	nan	nan
713.85693359375	0.0	100	1461979	48	80	10	0	0	154844.2594065	154844.2598619	80	154847.5402671	154847.5407629	40	154850.7702764	154850.770678	100	del	154851.8487875	nan	nan	nan	nan	nan
717.77490234375	0.0	80	1470003	49	70	30	1	0	154854.6884719	154854.6889613	80	154858.0199166	154858.0203881	40	154861.3724069	154861.3729118	100	del	154862.43119	154862.9453375	154862.9458529	120.0	2.0	154863.5350591
721.10595703125	0.0	40	1476825	49	70	30	1	0	154854.6884719	154854.6889613	80	154858.0199166	154858.0203881	40	154861.3724069	154861.3729118	100	del	154862.43119	154862.9453375	154862.9458529	120.0	2.0	154863.5350591
724.45849609375	0.0	100	1483691	49	70	30	1	0	154854.6884719	154854.6889613	80	154858.0199166	154858.0203881	40	154861.3724069	154861.3729118	100	del	154862.43119	154862.9453375	154862.9458529	120.0	2.0	154863.5350591
726.03125	0.0	120	1486912	49	70	30	1	0	154854.6884719	154854.6889613	80	154858.0199166	154858.0203881	40	154861.3724069	154861.3729118	100	del	154862.43119	154862.9453375	154862.9458529	120.0	2.0	154863.5350591
728.9560546875	0.0	80	1492902	50	97	80	0	1	154865.870177	154865.8706284	80	154869.3506024	154869.3511235	40	154872.4683546	154872.4688001	100	del	154873.4557469	nan	nan	nan	nan	nan
732.4365234375	0.0	40	1500030	50	97	80	0	1	154865.870177	154865.8706284	80	154869.3506024	154869.3511235	40	154872.4683546	154872.4688001	100	del	154873.4557469	nan	nan	nan	nan	nan
735.55419921875	0.0	100	1506415	50	97	80	0	1	154865.870177	154865.8706284	80	154869.3506024	154869.3511235	40	154872.4683546	154872.4688001	100	del	154873.4557469	nan	nan	nan	nan	nan
739.4140625	0.0	80	1514320	51	57	520	0	0	154876.328442	154876.3289404	80	154879.4540452	154879.4545471	40	154882.5282551	154882.5287605	100	imm	154883.1352542	nan	nan	nan	nan	nan
742.53955078125	0.0	40	1520721	51	57	520	0	0	154876.328442	154876.3289404	80	154879.4540452	154879.4545471	40	154882.5282551	154882.5287605	100	imm	154883.1352542	nan	nan	nan	nan	nan
745.61376953125	0.0	100	1527017	51	57	520	0	0	154876.328442	154876.3289404	80	154879.4540452	154879.4545471	40	154882.5282551	154882.5287605	100	imm	154883.1352542	nan	nan	nan	nan	nan
749.04345703125	0.0	80	1534041	52	93	180	1	1	154885.9580859	154885.9585488	80	154889.1912793	154889.1917614	40	154892.4336473	154892.4341082	100	imm	154893.3598298	154893.8731545	154893.8736287	120.0	2.0	154897.1434918
752.27685546875	0.0	40	1540663	52	93	180	1	1	154885.9580859	154885.9585488	80	154889.1912793	154889.1917614	40	154892.4336473	154892.4341082	100	imm	154893.3598298	154893.8731545	154893.8736287	120.0	2.0	154897.1434918
755.51904296875	0.0	100	1547303	52	93	180	1	1	154885.9580859	154885.9585488	80	154889.1912793	154889.1917614	40	154892.4336473	154892.4341082	100	imm	154893.3598298	154893.8731545	154893.8736287	120.0	2.0	154897.1434918
756.95849609375	0.0	120	1550251	52	93	180	1	1	154885.9580859	154885.9585488	80	154889.1912793	154889.1917614	40	154892.4336473	154892.4341082	100	imm	154893.3598298	154893.8731545	154893.8736287	120.0	2.0	154897.1434918
762.576171875	0.0	80	1561756	53	97	1	1	1	154899.4911797	154899.4916798	80	154902.8839962	154902.8844946	40	154906.073496	154906.0739742	100	del	154907.3033481	154907.8165386	154907.8170453	120.0	3.0	154909.6798804
765.96923828125	0.0	40	1568705	53	97	1	1	1	154899.4911797	154899.4916798	80	154902.8839962	154902.8844946	40	154906.073496	154906.0739742	100	del	154907.3033481	154907.8165386	154907.8170453	120.0	3.0	154909.6798804
769.158203125	0.0	100	1575236	53	97	1	1	1	154899.4911797	154899.4916798	80	154902.8839962	154902.8844946	40	154906.073496	154906.0739742	100	del	154907.3033481	154907.8165386	154907.8170453	120.0	3.0	154909.6798804
770.9013671875	0.0	120	1578806	53	97	1	1	1	154899.4911797	154899.4916798	80	154902.8839962	154902.8844946	40	154906.073496	154906.0739742	100	del	154907.3033481	154907.8165386	154907.8170453	120.0	3.0	154909.6798804
775.1103515625	0.0	80	1587426	54	80	180	1	1	154912.0253654	154912.0258377	80	154915.2417532	154915.2421529	40	154918.6760301	154918.6765242	100	imm	154919.6072039	154920.1169066	154920.1172227	120.0	3.0	154921.4718941
778.32666015625	0.0	40	1594013	54	80	180	1	1	154912.0253654	154912.0258377	80	154915.2417532	154915.2421529	40	154918.6760301	154918.6765242	100	imm	154919.6072039	154920.1169066	154920.1172227	120.0	3.0	154921.4718941
781.7607421875	0.0	100	1601046	54	80	180	1	1	154912.0253654	154912.0258377	80	154915.2417532	154915.2421529	40	154918.6760301	154918.6765242	100	imm	154919.6072039	154920.1169066	154920.1172227	120.0	3.0	154921.4718941
783.201171875	0.0	120	1603996	54	80	180	1	1	154912.0253654	154912.0258377	80	154915.2417532	154915.2421529	40	154918.6760301	154918.6765242	100	imm	154919.6072039	154920.1169066	154920.1172227	120.0	3.0	154921.4718941
786.9892578125	0.0	80	1611754	55	67	1	1	0	154923.9047308	154923.9051926	80	154927.0404744	154927.0409281	40	154930.3602233	154930.3606897	100	del	154931.607606	154932.1184336	154932.1188334	120.0	3.0	154934.1115583
790.125	0.0	40	1618176	55	67	1	1	0	154923.9047308	154923.9051926	80	154927.0404744	154927.0409281	40	154930.3602233	154930.3606897	100	del	154931.607606	154932.1184336	154932.1188334	120.0	3.0	154934.1115583
793.4443359375	0.0	100	1624974	55	67	1	1	0	154923.9047308	154923.9051926	80	154927.0404744	154927.0409281	40	154930.3602233	154930.3606897	100	del	154931.607606	154932.1184336	154932.1188334	120.0	3.0	154934.1115583
795.20263671875	0.0	120	1628575	55	67	1	1	0	154923.9047308	154923.9051926	80	154927.0404744	154927.0409281	40	154930.3602233	154930.3606897	100	del	154931.607606	154932.1184336	154932.1188334	120.0	3.0	154934.1115583
799.50244140625	0.0	80	1637381	56	90	10	0	1	154936.4181038	154936.4186235	80	154939.6961083	154939.6966018	40	154943.1453254	154943.1458205	100	del	154944.0089077	nan	nan	nan	nan	nan
802.7802734375	0.0	40	1644094	56	90	10	0	1	154936.4181038	154936.4186235	80	154939.6961083	154939.6966018	40	154943.1453254	154943.1458205	100	del	154944.0089077	nan	nan	nan	nan	nan
806.22900390625	0.0	100	1651157	56	90	10	0	1	154936.4181038	154936.4186235	80	154939.6961083	154939.6966018	40	154943.1453254	154943.1458205	100	del	154944.0089077	nan	nan	nan	nan	nan
809.74365234375	0.0	80	1658355	57	77	1030	0	1	154946.6594935	154946.6601407	80	154949.8262492	154949.8267166	40	154952.8996311	154952.9001816	100	imm	154954.1436487	nan	nan	nan	nan	nan
812.91015625	0.0	40	1664840	57	77	1030	0	1	154946.6594935	154946.6601407	80	154949.8262492	154949.8267166	40	154952.8996311	154952.9001816	100	imm	154954.1436487	nan	nan	nan	nan	nan
815.9833984375	0.0	100	1671134	57	77	1030	0	1	154946.6594935	154946.6601407	80	154949.8262492	154949.8267166	40	154952.8996311	154952.9001816	100	imm	154954.1436487	nan	nan	nan	nan	nan
820.2158203125	0.0	80	1679802	58	77	260	0	1	154957.1322913	154957.1328018	80	154960.4629518	154960.4634661	40	154963.7159978	154963.716478	100	imm	154964.4640318	nan	nan	nan	nan	nan
823.54638671875	0.0	40	1686623	58	77	260	0	1	154957.1322913	154957.1328018	80	154960.4629518	154960.4634661	40	154963.7159978	154963.716478	100	imm	154964.4640318	nan	nan	nan	nan	nan
826.79931640625	0.0	100	1693285	58	77	260	0	1	154957.1322913	154957.1328018	80	154960.4629518	154960.4634661	40	154963.7159978	154963.716478	100	imm	154964.4640318	nan	nan	nan	nan	nan
830.38427734375	0.0	80	1700627	59	83	1030	0	1	154967.3012688	154967.3016996	80	154970.5816479	154970.5821652	40	154973.9199845	154973.9204864	100	imm	154977.2319538	nan	nan	nan	nan	nan
833.6650390625	0.0	40	1707346	59	83	1030	0	1	154967.3012688	154967.3016996	80	154970.5816479	154970.5821652	40	154973.9199845	154973.9204864	100	imm	154977.2319538	nan	nan	nan	nan	nan
837.0029296875	0.0	100	1714182	59	83	1030	0	1	154967.3012688	154967.3016996	80	154970.5816479	154970.5821652	40	154973.9199845	154973.9204864	100	imm	154977.2319538	nan	nan	nan	nan	nan
843.10107421875	0.0	80	1726671	60	83	80	0	1	154980.0182265	154980.0185932	80	154983.3859758	154983.3864264	40	154986.6603715	154986.6614692	100	del	154987.911663	nan	nan	nan	nan	nan
846.46875	0.0	40	1733568	60	83	80	0	1	154980.0182265	154980.0185932	80	154983.3859758	154983.3864264	40	154986.6603715	154986.6614692	100	del	154987.911663	nan	nan	nan	nan	nan
849.7431640625	0.0	100	1740274	60	83	80	0	1	154980.0182265	154980.0185932	80	154983.3859758	154983.3864264	40	154986.6603715	154986.6614692	100	del	154987.911663	nan	nan	nan	nan	nan
861.240234375	0.0	80	1763820	61	87	1030	0	0	154998.1576421	154998.1581907	80	155001.277314	155001.278399	40	155004.34402	155004.3445452	100	imm	155005.6971268	nan	nan	nan	nan	nan
864.35986328125	0.0	40	1770209	61	87	1030	0	0	154998.1576421	154998.1581907	80	155001.277314	155001.278399	40	155004.34402	155004.3445452	100	imm	155005.6971268	nan	nan	nan	nan	nan
867.42626953125	0.0	100	1776489	61	87	1030	0	0	154998.1576421	154998.1581907	80	155001.277314	155001.278399	40	155004.34402	155004.3445452	100	imm	155005.6971268	nan	nan	nan	nan	nan
871.35205078125	0.0	80	1784529	62	100	30	1	0	155008.269775	155008.270241	80	155011.3094809	155011.3099838	40	155014.5261784	155014.526678	100	del	155016.0153183	155016.5255627	155016.5259214	120.0	3.0	155019.3437324
874.3916015625	0.0	40	1790754	62	100	30	1	0	155008.269775	155008.270241	80	155011.3094809	155011.3099838	40	155014.5261784	155014.526678	100	del	155016.0153183	155016.5255627	155016.5259214	120.0	3.0	155019.3437324
877.60791015625	0.0	100	1797341	62	100	30	1	0	155008.269775	155008.270241	80	155011.3094809	155011.3099838	40	155014.5261784	155014.526678	100	del	155016.0153183	155016.5255627	155016.5259214	120.0	3.0	155019.3437324
879.607421875	0.0	120	1801436	62	100	30	1	0	155008.269775	155008.270241	80	155011.3094809	155011.3099838	40	155014.5261784	155014.526678	100	del	155016.0153183	155016.5255627	155016.5259214	120.0	3.0	155019.3437324
884.669921875	0.0	80	1811804	63	73	30	1	0	155021.5880326	155021.5885543	80	155024.7791861	155024.7796916	40	155028.1743	155028.1748204	100	del	155029.6719145	155030.181244	155030.1815625	120.0	3.0	155031.0636229
887.86083984375	0.0	40	1818339	63	73	30	1	0	155021.5880326	155021.5885543	80	155024.7791861	155024.7796916	40	155028.1743	155028.1748204	100	del	155029.6719145	155030.181244	155030.1815625	120.0	3.0	155031.0636229
891.255859375	0.0	100	1825292	63	73	30	1	0	155021.5880326	155021.5885543	80	155024.7791861	155024.7796916	40	155028.1743	155028.1748204	100	del	155029.6719145	155030.181244	155030.1815625	120.0	3.0	155031.0636229
893.2626953125	0.0	120	1829402	63	73	30	1	0	155021.5880326	155021.5885543	80	155024.7791861	155024.7796916	40	155028.1743	155028.1748204	100	del	155029.6719145	155030.181244	155030.1815625	120.0	3.0	155031.0636229
896.47509765625	0.0	80	1835981	64	93	1030	0	1	155033.3937448	155033.3942704	80	155036.7874066	155036.7878796	40	155040.2670935	155040.2676029	100	imm	155041.2957304	nan	nan	nan	nan	nan
899.86865234375	0.0	40	1842931	64	93	1030	0	1	155033.3937448	155033.3942704	80	155036.7874066	155036.7878796	40	155040.2670935	155040.2676029	100	imm	155041.2957304	nan	nan	nan	nan	nan
903.34814453125	0.0	100	1850057	64	93	1030	0	1	155033.3937448	155033.3942704	80	155036.7874066	155036.7878796	40	155040.2670935	155040.2676029	100	imm	155041.2957304	nan	nan	nan	nan	nan
907.380859375	0.0	80	1858316	65	70	730	1	1	155044.2995277	155044.3000483	80	155047.4032736	155047.4037379	40	155050.487997	155050.4885006	100	imm	155051.4157908	155051.929989	155051.9307391	120.0	1.0	155052.6731681
910.484375	0.0	40	1864672	65	70	730	1	1	155044.2995277	155044.3000483	80	155047.4032736	155047.4037379	40	155050.487997	155050.4885006	100	imm	155051.4157908	155051.929989	155051.9307391	120.0	1.0	155052.6731681
913.56884765625	0.0	100	1870989	65	70	730	1	1	155044.2995277	155044.3000483	80	155047.4032736	155047.4037379	40	155050.487997	155050.4885006	100	imm	155051.4157908	155051.929989	155051.9307391	120.0	1.0	155052.6731681
915.0107421875	0.0	120	1873942	65	70	730	1	1	155044.2995277	155044.3000483	80	155047.4032736	155047.4037379	40	155050.487997	155050.4885006	100	imm	155051.4157908	155051.929989	155051.9307391	120.0	1.0	155052.6731681
918.11865234375	0.0	80	1880307	66	67	80	0	1	155055.0379549	155055.0384732	80	155058.0921783	155058.0925884	40	155061.3680362	155061.3684453	100	imm	155063.9432513	nan	nan	nan	nan	nan
921.1728515625	0.0	40	1886562	66	67	80	0	1	155055.0379549	155055.0384732	80	155058.0921783	155058.0925884	40	155061.3680362	155061.3684453	100	imm	155063.9432513	nan	nan	nan	nan	nan
924.44873046875	0.0	100	1893271	66	67	80	0	1	155055.0379549	155055.0384732	80	155058.0921783	155058.0925884	40	155061.3680362	155061.3684453	100	imm	155063.9432513	nan	nan	nan	nan	nan
929.80859375	0.0	80	1904248	67	77	10	0	1	155066.7281238	155066.7286174	80	155070.166475	155070.1670746	40	155073.4227119	155073.4233258	100	del	155074.264191	nan	nan	nan	nan	nan
933.2470703125	0.0	40	1911290	67	77	10	0	1	155066.7281238	155066.7286174	80	155070.166475	155070.1670746	40	155073.4227119	155073.4233258	100	del	155074.264191	nan	nan	nan	nan	nan
936.5029296875	0.0	100	1917958	67	77	10	0	1	155066.7281238	155066.7286174	80	155070.166475	155070.1670746	40	155073.4227119	155073.4233258	100	del	155074.264191	nan	nan	nan	nan	nan
940.05908203125	0.0	80	1925241	68	80	30	1	0	155076.9786993	155076.9791723	80	155080.3221375	155080.3226064	40	155083.7071706	155083.7079968	100	del	155084.8315173	155085.3445574	155085.3450557	120.0	2.0	155087.5436994
943.40234375	0.0	40	1932088	68	80	30	1	0	155076.9786993	155076.9791723	80	155080.3221375	155080.3226064	40	155083.7071706	155083.7079968	100	del	155084.8315173	155085.3445574	155085.3450557	120.0	2.0	155087.5436994
946.787109375	0.0	100	1939020	68	80	30	1	0	155076.9786993	155076.9791723	80	155080.3221375	155080.3226064	40	155083.7071706	155083.7079968	100	del	155084.8315173	155085.3445574	155085.3450557	120.0	2.0	155087.5436994
948.42431640625	0.0	120	1942373	68	80	30	1	0	155076.9786993	155076.9791723	80	155080.3221375	155080.3226064	40	155083.7071706	155083.7079968	100	del	155084.8315173	155085.3445574	155085.3450557	120.0	2.0	155087.5436994
952.89990234375	0.0	80	1951539	69	80	1	1	1	155089.8198553	155089.8202639	80	155093.0013477	155093.0018263	40	155096.0905571	155096.0910644	100	del	155097.0794978	155097.5929085	155097.5934357	120.0	3.0	155100.4960822
956.0810546875	0.0	40	1958054	69	80	1	1	1	155089.8198553	155089.8202639	80	155093.0013477	155093.0018263	40	155096.0905571	155096.0910644	100	del	155097.0794978	155097.5929085	155097.5934357	120.0	3.0	155100.4960822
959.17041015625	0.0	100	1964381	69	80	1	1	1	155089.8198553	155089.8202639	80	155093.0013477	155093.0018263	40	155096.0905571	155096.0910644	100	del	155097.0794978	155097.5929085	155097.5934357	120.0	3.0	155100.4960822
960.67236328125	0.0	120	1967457	69	80	1	1	1	155089.8198553	155089.8202639	80	155093.0013477	155093.0018263	40	155096.0905571	155096.0910644	100	del	155097.0794978	155097.5929085	155097.5934357	120.0	3.0	155100.4960822
965.8828125	0.0	80	1978128	70	53	10	0	0	155102.8035845	155102.8040804	80	155105.9423656	155105.9428304	40	155108.9776774	155108.9781505	100	del	155110.6312829	nan	nan	nan	nan	nan
969.02197265625	0.0	40	1984557	70	53	10	0	0	155102.8035845	155102.8040804	80	155105.9423656	155105.9428304	40	155108.9776774	155108.9781505	100	del	155110.6312829	nan	nan	nan	nan	nan
972.05712890625	0.0	100	1990773	70	53	10	0	0	155102.8035845	155102.8040804	80	155105.9423656	155105.9428304	40	155108.9776774	155108.9781505	100	del	155110.6312829	nan	nan	nan	nan	nan
976.60546875	0.0	80	2000088	71	67	1030	0	1	155113.526492	155113.5270147	80	155116.6551243	155116.6554874	40	155119.8887735	155119.889277	100	imm	155121.0792863	nan	nan	nan	nan	nan
979.734375	0.0	40	2006496	71	67	1030	0	1	155113.526492	155113.5270147	80	155116.6551243	155116.6554874	40	155119.8887735	155119.889277	100	imm	155121.0792863	nan	nan	nan	nan	nan
982.9677734375	0.0	100	2013118	71	67	1030	0	1	155113.526492	155113.5270147	80	155116.6551243	155116.6554874	40	155119.8887735	155119.889277	100	imm	155121.0792863	nan	nan	nan	nan	nan
987.01904296875	0.0	80	2021415	72	63	260	0	0	155123.9402029	155123.9407035	80	155127.1276576	155127.1281403	40	155130.5087144	155130.5092088	100	imm	155131.0397544	nan	nan	nan	nan	nan
990.20654296875	0.0	40	2027943	72	63	260	0	0	155123.9402029	155123.9407035	80	155127.1276576	155127.1281403	40	155130.5087144	155130.5092088	100	imm	155131.0397544	nan	nan	nan	nan	nan
993.58740234375	0.0	100	2034867	72	63	260	0	0	155123.9402029	155123.9407035	80	155127.1276576	155127.1281403	40	155130.5087144	155130.5092088	100	imm	155131.0397544	nan	nan	nan	nan	nan
996.83447265625	0.0	80	2041517	73	57	30	1	0	155133.7555855	155133.7560391	80	155137.1050187	155137.1055397	40	155140.470352	155140.4717227	100	imm	155141.5520244	155142.0654827	155142.0659977	120.0	1.0	155142.5914936
1000.18359375	0.0	40	2048376	73	57	30	1	0	155133.7555855	155133.7560391	80	155137.1050187	155137.1055397	40	155140.470352	155140.4717227	100	imm	155141.5520244	155142.0654827	155142.0659977	120.0	1.0	155142.5914936
1003.548828125	0.0	100	2055268	73	57	30	1	0	155133.7555855	155133.7560391	80	155137.1050187	155137.1055397	40	155140.470352	155140.4717227	100	imm	155141.5520244	155142.0654827	155142.0659977	120.0	1.0	155142.5914936
1005.14404296875	0.0	120	2058535	73	57	30	1	0	155133.7555855	155133.7560391	80	155137.1050187	155137.1055397	40	155140.470352	155140.4717227	100	imm	155141.5520244	155142.0654827	155142.0659977	120.0	1.0	155142.5914936
1007.9072265625	0.0	80	2064194	74	93	520	0	1	155144.829002	155144.8294646	80	155147.8467006	155147.8471793	40	155151.0271017	155151.0276103	100	del	155154.5759378	nan	nan	nan	nan	nan
1010.9248046875	0.0	40	2070374	74	93	520	0	1	155144.829002	155144.8294646	80	155147.8467006	155147.8471793	40	155151.0271017	155151.0276103	100	del	155154.5759378	nan	nan	nan	nan	nan
1014.10546875	0.0	100	2076888	74	93	520	0	1	155144.829002	155144.8294646	80	155147.8467006	155147.8471793	40	155151.0271017	155151.0276103	100	del	155154.5759378	nan	nan	nan	nan	nan
1020.38330078125	0.0	80	2089745	75	67	520	0	0	155157.3055425	155157.3060314	80	155160.4490514	155160.4495568	40	155163.5613091	155163.5618039	100	imm	155164.8641691	nan	nan	nan	nan	nan
1023.52685546875	0.0	40	2096183	75	67	520	0	0	155157.3055425	155157.3060314	80	155160.4490514	155160.4495568	40	155163.5613091	155163.5618039	100	imm	155164.8641691	nan	nan	nan	nan	nan
1026.63916015625	0.0	100	2102557	75	67	520	0	0	155157.3055425	155157.3060314	80	155160.4490514	155160.4495568	40	155163.5613091	155163.5618039	100	imm	155164.8641691	nan	nan	nan	nan	nan
1030.87109375	0.0	80	2111224	76	77	1	1	1	155167.7933036	155167.7938096	80	155171.0157191	155171.0162097	40	155174.4728914	155174.4734548	100	del	155175.1520111	155175.6636	155175.6639776	120.0	3.0	155179.9213108
1034.09326171875	0.0	40	2117823	76	77	1	1	1	155167.7933036	155167.7938096	80	155171.0157191	155171.0162097	40	155174.4728914	155174.4734548	100	del	155175.1520111	155175.6636	155175.6639776	120.0	3.0	155179.9213108
1037.55029296875	0.0	100	2124903	76	77	1	1	1	155167.7933036	155167.7938096	80	155171.0157191	155171.0162097	40	155174.4728914	155174.4734548	100	del	155175.1520111	155175.6636	155175.6639776	120.0	3.0	155179.9213108
1038.7412109375	0.0	120	2127342	76	77	1	1	1	155167.7933036	155167.7938096	80	155171.0157191	155171.0162097	40	155174.4728914	155174.4734548	100	del	155175.1520111	155175.6636	155175.6639776	120.0	3.0	155179.9213108
1045.21044921875	0.0	80	2140591	77	60	180	1	0	155182.1333007	155182.1338345	80	155185.525737	155185.5262056	40	155188.7374714	155188.7380288	100	imm	155189.3602917	155189.8716273	155189.8720169	120.0	4.0	155190.3516777
1048.60302734375	0.0	40	2147539	77	60	180	1	0	155182.1333007	155182.1338345	80	155185.525737	155185.5262056	40	155188.7374714	155188.7380288	100	imm	155189.3602917	155189.8716273	155189.8720169	120.0	4.0	155190.3516777
1051.814453125	0.0	100	2154116	77	60	180	1	0	155182.1333007	155182.1338345	80	155185.525737	155185.5262056	40	155188.7374714	155188.7380288	100	imm	155189.3602917	155189.8716273	155189.8720169	120.0	4.0	155190.3516777
1052.94873046875	0.0	120	2156439	77	60	180	1	0	155182.1333007	155182.1338345	80	155185.525737	155185.5262056	40	155188.7374714	155188.7380288	100	imm	155189.3602917	155189.8716273	155189.8720169	120.0	4.0	155190.3516777
1055.849609375	0.0	80	2162380	78	73	180	1	0	155192.7726073	155192.7730421	80	155196.1576205	155196.1580936	40	155199.3600967	155199.3605963	100	imm	155200.3836018	155200.8939906	155200.8943778	120.0	3.0	155201.8558798
1059.234375	0.0	40	2169312	78	73	180	1	0	155192.7726073	155192.7730421	80	155196.1576205	155196.1580936	40	155199.3600967	155199.3605963	100	imm	155200.3836018	155200.8939906	155200.8943778	120.0	3.0	155201.8558798
1062.43701171875	0.0	100	2175871	78	73	180	1	0	155192.7726073	155192.7730421	80	155196.1576205	155196.1580936	40	155199.3600967	155199.3605963	100	imm	155200.3836018	155200.8939906	155200.8943778	120.0	3.0	155201.8558798
1063.970703125	0.0	120	2179012	78	73	180	1	0	155192.7726073	155192.7730421	80	155196.1576205	155196.1580936	40	155199.3600967	155199.3605963	100	imm	155200.3836018	155200.8939906	155200.8943778	120.0	3.0	155201.8558798
1067.056640625	0.0	80	2185332	79	87	365	1	1	155203.9801351	155203.9806024	80	155207.3830811	155207.3835835	40	155210.8725253	155210.8730288	100	imm	155212.0396573	155212.5533784	155212.5539221	120.0	3.0	155214.7359771
1070.45947265625	0.0	40	2192301	79	87	365	1	1	155203.9801351	155203.9806024	80	155207.3830811	155207.3835835	40	155210.8725253	155210.8730288	100	imm	155212.0396573	155212.5533784	155212.5539221	120.0	3.0	155214.7359771
1073.94921875	0.0	100	2199448	79	87	365	1	1	155203.9801351	155203.9806024	80	155207.3830811	155207.3835835	40	155210.8725253	155210.8730288	100	imm	155212.0396573	155212.5533784	155212.5539221	120.0	3.0	155214.7359771
1075.6298828125	0.0	120	2202890	79	87	365	1	1	155203.9801351	155203.9806024	80	155207.3830811	155207.3835835	40	155210.8725253	155210.8730288	100	imm	155212.0396573	155212.5533784	155212.5539221	120.0	3.0	155214.7359771
1079.99169921875	0.0	80	2211823	80	50	365	1	1	155216.9153915	155216.9158898	80	155220.2593729	155220.259842	40	155223.4927103	155223.4932038	100	imm	155224.3834592	155224.8962083	155224.8966801	120.0	2.0	155225.83953
1083.33544921875	0.0	40	2218671	80	50	365	1	1	155216.9153915	155216.9158898	80	155220.2593729	155220.259842	40	155223.4927103	155223.4932038	100	imm	155224.3834592	155224.8962083	155224.8966801	120.0	2.0	155225.83953
1086.56884765625	0.0	100	2225293	80	50	365	1	1	155216.9153915	155216.9158898	80	155220.2593729	155220.259842	40	155223.4927103	155223.4932038	100	imm	155224.3834592	155224.8962083	155224.8966801	120.0	2.0	155225.83953
1087.97216796875	0.0	120	2228167	80	50	365	1	1	155216.9153915	155216.9158898	80	155220.2593729	155220.259842	40	155223.4927103	155223.4932038	100	imm	155224.3834592	155224.8962083	155224.8966801	120.0	2.0	155225.83953
1128.193359375	0.0	80	2310540	81	67	365	1	1	155265.1185894	155265.1189296	80	155268.5104718	155268.511013	40	155271.6068793	155271.6074269	100	imm	155272.9678669	155273.481152	155273.4817025	120.0	2.0	155274.5437106
1131.58544921875	0.0	40	2317487	81	67	365	1	1	155265.1185894	155265.1189296	80	155268.5104718	155268.511013	40	155271.6068793	155271.6074269	100	imm	155272.9678669	155273.481152	155273.4817025	120.0	2.0	155274.5437106
1134.681640625	0.0	100	2323828	81	67	365	1	1	155265.1185894	155265.1189296	80	155268.5104718	155268.511013	40	155271.6068793	155271.6074269	100	imm	155272.9678669	155273.481152	155273.4817025	120.0	2.0	155274.5437106
1136.5556640625	0.0	120	2327666	81	67	365	1	1	155265.1185894	155265.1189296	80	155268.5104718	155268.511013	40	155271.6068793	155271.6074269	100	imm	155272.9678669	155273.481152	155273.4817025	120.0	2.0	155274.5437106
1140.06591796875	0.0	80	2334855	82	93	365	1	0	155276.9914283	155276.9919302	80	155280.4953501	155280.4958177	40	155283.7662108	155283.7666723	100	imm	155285.3599666	155285.8731032	155285.8736203	120.0	2.0	155286.1838173
1143.56982421875	0.0	40	2342031	82	93	365	1	0	155276.9914283	155276.9919302	80	155280.4953501	155280.4958177	40	155283.7662108	155283.7666723	100	imm	155285.3599666	155285.8731032	155285.8736203	120.0	2.0	155286.1838173
1146.8408203125	0.0	100	2348730	82	93	365	1	0	155276.9914283	155276.9919302	80	155280.4953501	155280.4958177	40	155283.7662108	155283.7666723	100	imm	155285.3599666	155285.8731032	155285.8736203	120.0	2.0	155286.1838173
1148.94775390625	0.0	120	2353045	82	93	365	1	0	155276.9914283	155276.9919302	80	155280.4953501	155280.4958177	40	155283.7662108	155283.7666723	100	imm	155285.3599666	155285.8731032	155285.8736203	120.0	2.0	155286.1838173
1151.7158203125	0.0	80	2358714	83	100	80	0	1	155288.6414796	155288.6419347	80	155291.9448972	155291.9453089	40	155295.0352343	155295.0356346	100	del	155296.9376344	nan	nan	nan	nan	nan
1155.01904296875	0.0	40	2365479	83	100	80	0	1	155288.6414796	155288.6419347	80	155291.9448972	155291.9453089	40	155295.0352343	155295.0356346	100	del	155296.9376344	nan	nan	nan	nan	nan
1158.109375	0.0	100	2371808	83	100	80	0	1	155288.6414796	155288.6419347	80	155291.9448972	155291.9453089	40	155295.0352343	155295.0356346	100	del	155296.9376344	nan	nan	nan	nan	nan
1162.6298828125	0.0	80	2381066	84	83	1	1	0	155299.5556939	155299.5561534	80	155302.7682849	155302.7687672	40	155306.1561856	155306.1566688	100	del	155307.1118838	155307.6258382	155307.6262849	120.0	3.0	155308.6239826
1165.84228515625	0.0	40	2387645	84	83	1	1	0	155299.5556939	155299.5561534	80	155302.7682849	155302.7687672	40	155306.1561856	155306.1566688	100	del	155307.1118838	155307.6258382	155307.6262849	120.0	3.0	155308.6239826
1169.22998046875	0.0	100	2394583	84	83	1	1	0	155299.5556939	155299.5561534	80	155302.7682849	155302.7687672	40	155306.1561856	155306.1566688	100	del	155307.1118838	155307.6258382	155307.6262849	120.0	3.0	155308.6239826
1170.69970703125	0.0	120	2397593	84	83	1	1	0	155299.5556939	155299.5561534	80	155302.7682849	155302.7687672	40	155306.1561856	155306.1566688	100	del	155307.1118838	155307.6258382	155307.6262849	120.0	3.0	155308.6239826
1174.12646484375	0.0	80	2404611	85	83	10	0	1	155311.0529108	155311.0533943	80	155314.4557243	155314.4562967	40	155317.628426	155317.6289108	100	del	155318.7364126	nan	nan	nan	nan	nan
1177.529296875	0.0	40	2411580	85	83	10	0	1	155311.0529108	155311.0533943	80	155314.4557243	155314.4562967	40	155317.628426	155317.6289108	100	del	155318.7364126	nan	nan	nan	nan	nan
1180.7021484375	0.0	100	2418078	85	83	10	0	1	155311.0529108	155311.0533943	80	155314.4557243	155314.4562967	40	155317.628426	155317.6289108	100	del	155318.7364126	nan	nan	nan	nan	nan
1184.59521484375	0.0	80	2426051	86	60	1030	0	1	155321.5215702	155321.5220137	80	155324.5745032	155324.5750146	40	155327.6441443	155327.6446331	100	imm	155329.7922333	nan	nan	nan	nan	nan
1187.64794921875	0.0	40	2432303	86	60	1030	0	1	155321.5215702	155321.5220137	80	155324.5745032	155324.5750146	40	155327.6441443	155327.6446331	100	imm	155329.7922333	nan	nan	nan	nan	nan
1190.71728515625	0.0	100	2438589	86	60	1030	0	1	155321.5215702	155321.5220137	80	155324.5745032	155324.5750146	40	155327.6441443	155327.6446331	100	imm	155329.7922333	nan	nan	nan	nan	nan
1195.44775390625	0.0	80	2448277	87	70	180	1	0	155332.3747641	155332.3751818	80	155335.7223923	155335.7229094	40	155338.986118	155338.9870716	100	imm	155339.6085778	155340.1222376	155340.1227626	120.0	2.0	155341.6559833
1198.79541015625	0.0	40	2455133	87	70	180	1	0	155332.3747641	155332.3751818	80	155335.7223923	155335.7229094	40	155338.986118	155338.9870716	100	imm	155339.6085778	155340.1222376	155340.1227626	120.0	2.0	155341.6559833
1202.05908203125	0.0	100	2461817	87	70	180	1	0	155332.3747641	155332.3751818	80	155335.7223923	155335.7229094	40	155338.986118	155338.9870716	100	imm	155339.6085778	155340.1222376	155340.1227626	120.0	2.0	155341.6559833
1203.1953125	0.0	120	2464144	87	70	180	1	0	155332.3747641	155332.3751818	80	155335.7223923	155335.7229094	40	155338.986118	155338.9870716	100	imm	155339.6085778	155340.1222376	155340.1227626	120.0	2.0	155341.6559833
1206.83984375	0.0	80	2471608	88	50	730	1	1	155343.7671008	155343.7675633	80	155347.0231816	155347.0236734	40	155350.1109836	155350.1114816	100	imm	155354.4235139	155354.9379638	155354.9384531	120.0	2.0	155357.2404316
1210.095703125	0.0	40	2478276	88	50	730	1	1	155343.7671008	155343.7675633	80	155347.0231816	155347.0236734	40	155350.1109836	155350.1114816	100	imm	155354.4235139	155354.9379638	155354.9384531	120.0	2.0	155357.2404316
1213.18359375	0.0	100	2484600	88	50	730	1	1	155343.7671008	155343.7675633	80	155347.0231816	155347.0236734	40	155350.1109836	155350.1114816	100	imm	155354.4235139	155354.9379638	155354.9384531	120.0	2.0	155357.2404316
1218.01025390625	0.0	120	2494485	88	50	730	1	1	155343.7671008	155343.7675633	80	155347.0231816	155347.0236734	40	155350.1109836	155350.1114816	100	imm	155354.4235139	155354.9379638	155354.9384531	120.0	2.0	155357.2404316
1222.35498046875	0.0	80	2503383	89	87	730	1	0	155359.2828068	155359.2832983	80	155362.7174475	155362.7178797	40	155366.0116065	155366.0121111	100	imm	155366.8395345	155367.3546628	155367.3551258	120.0	1.0	155368.1296472
1225.78955078125	0.0	40	2510417	89	87	730	1	0	155359.2828068	155359.2832983	80	155362.7174475	155362.7178797	40	155366.0116065	155366.0121111	100	imm	155366.8395345	155367.3546628	155367.3551258	120.0	1.0	155368.1296472
1229.083984375	0.0	100	2517164	89	87	730	1	0	155359.2828068	155359.2832983	80	155362.7174475	155362.7178797	40	155366.0116065	155366.0121111	100	imm	155366.8395345	155367.3546628	155367.3551258	120.0	1.0	155368.1296472
1230.4267578125	0.0	120	2519914	89	87	730	1	0	155359.2828068	155359.2832983	80	155362.7174475	155362.7178797	40	155366.0116065	155366.0121111	100	imm	155366.8395345	155367.3546628	155367.3551258	120.0	1.0	155368.1296472
1233.68310546875	0.0	80	2526583	90	93	10	0	0	155370.6111026	155370.6116185	80	155373.9679172	155373.968422	40	155377.2729306	155377.2734362	100	imm	155377.8885654	nan	nan	nan	nan	nan
1237.0400390625	0.0	40	2533458	90	93	10	0	0	155370.6111026	155370.6116185	80	155373.9679172	155373.968422	40	155377.2729306	155377.2734362	100	imm	155377.8885654	nan	nan	nan	nan	nan
1240.3447265625	0.0	100	2540226	90	93	10	0	0	155370.6111026	155370.6116185	80	155373.9679172	155373.968422	40	155377.2729306	155377.2734362	100	imm	155377.8885654	nan	nan	nan	nan	nan
1243.8857421875	0.0	80	2547478	91	67	260	0	1	155380.8139803	155380.8144635	80	155384.2613384	155384.2618224	40	155387.7717462	155387.7724497	100	imm	155388.679914	nan	nan	nan	nan	nan
1247.3330078125	0.0	40	2554538	91	67	260	0	1	155380.8139803	155380.8144635	80	155384.2613384	155384.2618224	40	155387.7717462	155387.7724497	100	imm	155388.679914	nan	nan	nan	nan	nan
1250.84375	0.0	100	2561728	91	67	260	0	1	155380.8139803	155380.8144635	80	155384.2613384	155384.2618224	40	155387.7717462	155387.7724497	100	imm	155388.679914	nan	nan	nan	nan	nan
1254.27099609375	0.0	80	2568747	92	57	1	1	0	155391.199558	155391.2001236	80	155394.6402076	155394.6407	40	155397.9594613	155397.9599641	100	del	155398.8415024	155399.3546594	155399.3551292	120.0	3.0	155401.1854302
1257.71142578125	0.0	40	2575793	92	57	1	1	0	155391.199558	155391.2001236	80	155394.6402076	155394.6407	40	155397.9594613	155397.9599641	100	del	155398.8415024	155399.3546594	155399.3551292	120.0	3.0	155401.1854302
1261.03076171875	0.0	100	2582591	92	57	1	1	0	155391.199558	155391.2001236	80	155394.6402076	155394.6407	40	155397.9594613	155397.9599641	100	del	155398.8415024	155399.3546594	155399.3551292	120.0	3.0	155401.1854302
1262.42578125	0.0	120	2585448	92	57	1	1	0	155391.199558	155391.2001236	80	155394.6402076	155394.6407	40	155397.9594613	155397.9599641	100	del	155398.8415024	155399.3546594	155399.3551292	120.0	3.0	155401.1854302
1266.76708984375	0.0	80	2594339	93	100	10	0	0	155403.696036	155403.6966066	80	155406.9674269	155406.9678267	40	155410.2207062	155410.2211776	100	del	155411.0083991	nan	nan	nan	nan	nan
1270.03857421875	0.0	40	2601039	93	100	10	0	0	155403.696036	155403.6966066	80	155406.9674269	155406.9678267	40	155410.2207062	155410.2211776	100	del	155411.0083991	nan	nan	nan	nan	nan
1273.29150390625	0.0	100	2607701	93	100	10	0	0	155403.696036	155403.6966066	80	155406.9674269	155406.9678267	40	155410.2207062	155410.2211776	100	del	155411.0083991	nan	nan	nan	nan	nan
1276.998046875	0.0	80	2615292	94	77	520	0	0	155413.9273027	155413.927854	80	155417.049026	155417.0495132	40	155420.3112875	155420.3120669	100	imm	155421.0399333	nan	nan	nan	nan	nan
1280.11962890625	0.0	40	2621685	94	77	520	0	0	155413.9273027	155413.927854	80	155417.049026	155417.0495132	40	155420.3112875	155420.3120669	100	imm	155421.0399333	nan	nan	nan	nan	nan
1283.3818359375	0.0	100	2628366	94	77	520	0	0	155413.9273027	155413.927854	80	155417.049026	155417.0495132	40	155420.3112875	155420.3120669	100	imm	155421.0399333	nan	nan	nan	nan	nan
1287.07958984375	0.0	80	2635939	95	60	260	0	0	155424.0088774	155424.0093746	80	155427.3042469	155427.3047038	40	155430.742572	155430.7436312	100	imm	155431.33725	nan	nan	nan	nan	nan
1290.37451171875	0.0	40	2642687	95	60	260	0	0	155424.0088774	155424.0093746	80	155427.3042469	155427.3047038	40	155430.742572	155430.7436312	100	imm	155431.33725	nan	nan	nan	nan	nan
1293.81298828125	0.0	100	2649729	95	60	260	0	0	155424.0088774	155424.0093746	80	155427.3042469	155427.3047038	40	155430.742572	155430.7436312	100	imm	155431.33725	nan	nan	nan	nan	nan
1297.29443359375	0.0	80	2656859	96	50	80	0	0	155434.2240706	155434.2244582	80	155437.5253171	155437.5257266	40	155440.6619726	155440.6624331	100	imm	155441.1686235	nan	nan	nan	nan	nan
1300.59521484375	0.0	40	2663619	96	50	80	0	0	155434.2240706	155434.2244582	80	155437.5253171	155437.5257266	40	155440.6619726	155440.6624331	100	imm	155441.1686235	nan	nan	nan	nan	nan
1303.73193359375	0.0	100	2670043	96	50	80	0	0	155434.2240706	155434.2244582	80	155437.5253171	155437.5257266	40	155440.6619726	155440.6624331	100	imm	155441.1686235	nan	nan	nan	nan	nan
1307.08984375	0.0	80	2676920	97	87	30	1	0	155444.0196579	155444.0201709	80	155447.0695317	155447.0700266	40	155450.3964664	155450.3969721	100	del	155452.3681477	155452.8795349	155452.8799103	120.0	1.0	155453.768342
1310.1396484375	0.0	40	2683166	97	87	30	1	0	155444.0196579	155444.0201709	80	155447.0695317	155447.0700266	40	155450.3964664	155450.3969721	100	del	155452.3681477	155452.8795349	155452.8799103	120.0	1.0	155453.768342
1313.46630859375	0.0	100	2689979	97	87	30	1	0	155444.0196579	155444.0201709	80	155447.0695317	155447.0700266	40	155450.3964664	155450.3969721	100	del	155452.3681477	155452.8795349	155452.8799103	120.0	1.0	155453.768342
1315.94921875	0.0	120	2695064	97	87	30	1	0	155444.0196579	155444.0201709	80	155447.0695317	155447.0700266	40	155450.3964664	155450.3969721	100	del	155452.3681477	155452.8795349	155452.8799103	120.0	1.0	155453.768342
1319.185546875	0.0	80	2701692	98	90	30	1	0	155456.1157644	155456.1161712	80	155459.4884277	155459.4890736	40	155462.9471735	155462.9476889	100	del	155464.5196412	155465.0342327	155465.0347051	120.0	2.0	155466.2175239
1322.55810546875	0.0	40	2708599	98	90	30	1	0	155456.1157644	155456.1161712	80	155459.4884277	155459.4890736	40	155462.9471735	155462.9476889	100	del	155464.5196412	155465.0342327	155465.0347051	120.0	2.0	155466.2175239
1326.0166015625	0.0	100	2715682	98	90	30	1	0	155456.1157644	155456.1161712	80	155459.4884277	155459.4890736	40	155462.9471735	155462.9476889	100	del	155464.5196412	155465.0342327	155465.0347051	120.0	2.0	155466.2175239
1328.103515625	0.0	120	2719956	98	90	30	1	0	155456.1157644	155456.1161712	80	155459.4884277	155459.4890736	40	155462.9471735	155462.9476889	100	del	155464.5196412	155465.0342327	155465.0347051	120.0	2.0	155466.2175239
1331.79443359375	0.0	80	2727515	99	70	520	0	0	155468.7249253	155468.7254069	80	155472.1170337	155472.117529	40	155475.4211724	155475.4219222	100	imm	155476.0171897	nan	nan	nan	nan	nan
1335.18603515625	0.0	40	2734461	99	70	520	0	0	155468.7249253	155468.7254069	80	155472.1170337	155472.117529	40	155475.4211724	155475.4219222	100	imm	155476.0171897	nan	nan	nan	nan	nan
1338.490234375	0.0	100	2741228	99	70	520	0	0	155468.7249253	155468.7254069	80	155472.1170337	155472.117529	40	155475.4211724	155475.4219222	100	imm	155476.0171897	nan	nan	nan	nan	nan
1342.06884765625	0.0	80	2748557	100	73	365	1	1	155478.9996445	155479.0000939	80	155482.2971967	155482.2977276	40	155485.3188389	155485.3194385	100	del	155486.8877603	155487.4012969	155487.401775	120.0	2.0	155489.1926274
1345.3662109375	0.0	40	2755310	100	73	365	1	1	155478.9996445	155479.0000939	80	155482.2971967	155482.2977276	40	155485.3188389	155485.3194385	100	del	155486.8877603	155487.4012969	155487.401775	120.0	2.0	155489.1926274
1348.3876953125	0.0	100	2761498	100	73	365	1	1	155478.9996445	155479.0000939	80	155482.2971967	155482.2977276	40	155485.3188389	155485.3194385	100	del	155486.8877603	155487.4012969	155487.401775	120.0	2.0	155489.1926274
1350.47021484375	0.0	120	2765763	100	73	365	1	1	155478.9996445	155479.0000939	80	155482.2971967	155482.2977276	40	155485.3188389	155485.3194385	100	del	155486.8877603	155487.4012969	155487.401775	120.0	2.0	155489.1926274
1389.43115234375	0.0	80	2845555	101	50	30	1	0	155526.3636824	155526.3641677	80	155529.8033977	155529.8038957	40	155533.0583829	155533.0588769	100	del	155534.5602219	155535.0734373	155535.0739541	120.0	1.0	155535.497636
1392.87109375	0.0	40	2852600	101	50	30	1	0	155526.3636824	155526.3641677	80	155529.8033977	155529.8038957	40	155533.0583829	155533.0588769	100	del	155534.5602219	155535.0734373	155535.0739541	120.0	1.0	155535.497636
1396.1259765625	0.0	100	2859266	101	50	30	1	0	155526.3636824	155526.3641677	80	155529.8033977	155529.8038957	40	155533.0583829	155533.0588769	100	del	155534.5602219	155535.0734373	155535.0739541	120.0	1.0	155535.497636
1398.14111328125	0.0	120	2863393	101	50	30	1	0	155526.3636824	155526.3641677	80	155529.8033977	155529.8038957	40	155533.0583829	155533.0588769	100	del	155534.5602219	155535.0734373	155535.0739541	120.0	1.0	155535.497636
1401.00341796875	0.0	80	2869255	102	73	260	0	1	155537.935832	155537.936305	80	155541.0492101	155541.0499706	40	155544.3387724	155544.3392369	100	imm	155545.2563268	nan	nan	nan	nan	nan
1404.1162109375	0.0	40	2875630	102	73	260	0	1	155537.935832	155537.936305	80	155541.0492101	155541.0499706	40	155544.3387724	155544.3392369	100	imm	155545.2563268	nan	nan	nan	nan	nan
1407.40576171875	0.0	100	2882367	102	73	260	0	1	155537.935832	155537.936305	80	155541.0492101	155541.0499706	40	155544.3387724	155544.3392369	100	imm	155545.2563268	nan	nan	nan	nan	nan
1411.15673828125	0.0	80	2890049	103	67	10	0	1	155548.0896161	155548.0901101	80	155551.114525	155551.1150275	40	155554.4353199	155554.4357772	100	imm	155557.3764189	nan	nan	nan	nan	nan
1414.181640625	0.0	40	2896244	103	67	10	0	1	155548.0896161	155548.0901101	80	155551.114525	155551.1150275	40	155554.4353199	155554.4357772	100	imm	155557.3764189	nan	nan	nan	nan	nan
1417.50244140625	0.0	100	2903045	103	67	10	0	1	155548.0896161	155548.0901101	80	155551.114525	155551.1150275	40	155554.4353199	155554.4357772	100	imm	155557.3764189	nan	nan	nan	nan	nan
1423.142578125	0.0	80	2914596	104	90	1030	0	1	155560.0756491	155560.0761465	80	155563.109134	155563.1096464	40	155566.3681768	155566.3686465	100	imm	155567.4737369	nan	nan	nan	nan	nan
1426.17578125	0.0	40	2920808	104	90	1030	0	1	155560.0756491	155560.0761465	80	155563.109134	155563.1096464	40	155566.3681768	155566.3686465	100	imm	155567.4737369	nan	nan	nan	nan	nan
1429.4345703125	0.0	100	2927482	104	90	1030	0	1	155560.0756491	155560.0761465	80	155563.109134	155563.1096464	40	155566.3681768	155566.3686465	100	imm	155567.4737369	nan	nan	nan	nan	nan
1433.15576171875	0.0	80	2935103	105	90	1	1	1	155570.0892872	155570.0897959	80	155573.158398	155573.1589352	40	155576.2744807	155576.2750376	100	del	155579.7124919	155580.225808	155580.2262836	120.0	4.0	155581.0720001
1436.224609375	0.0	40	2941388	105	90	1	1	1	155570.0892872	155570.0897959	80	155573.158398	155573.1589352	40	155576.2744807	155576.2750376	100	del	155579.7124919	155580.225808	155580.2262836	120.0	4.0	155581.0720001
1439.3408203125	0.0	100	2947770	105	90	1	1	1	155570.0892872	155570.0897959	80	155573.158398	155573.1589352	40	155576.2744807	155576.2750376	100	del	155579.7124919	155580.225808	155580.2262836	120.0	4.0	155581.0720001
1443.2919921875	0.0	120	2955862	105	90	1	1	1	155570.0892872	155570.0897959	80	155573.158398	155573.1589352	40	155576.2744807	155576.2750376	100	del	155579.7124919	155580.225808	155580.2262836	120.0	4.0	155581.0720001
1446.2265625	0.0	80	2961872	106	53	1	1	0	155583.1605268	155583.1610106	80	155586.2631182	155586.2635717	40	155589.2981545	155589.2986053	100	del	155590.3127466	155590.827064	155590.8275665	120.0	3.0	155592.5925333
1449.3291015625	0.0	40	2968226	106	53	1	1	0	155583.1605268	155583.1610106	80	155586.2631182	155586.2635717	40	155589.2981545	155589.2986053	100	del	155590.3127466	155590.827064	155590.8275665	120.0	3.0	155592.5925333
1452.3642578125	0.0	100	2974442	106	53	1	1	0	155583.1605268	155583.1610106	80	155586.2631182	155586.2635717	40	155589.2981545	155589.2986053	100	del	155590.3127466	155590.827064	155590.8275665	120.0	3.0	155592.5925333
1453.89306640625	0.0	120	2977573	106	53	1	1	0	155583.1605268	155583.1610106	80	155586.2631182	155586.2635717	40	155589.2981545	155589.2986053	100	del	155590.3127466	155590.827064	155590.8275665	120.0	3.0	155592.5925333
1457.9921875	0.0	80	2985968	107	63	1030	0	0	155594.9262482	155594.9267626	80	155598.0757212	155598.0762109	40	155601.3587713	155601.3592797	100	imm	155602.0960091	nan	nan	nan	nan	nan
1461.1416015625	0.0	40	2992418	107	63	1030	0	0	155594.9262482	155594.9267626	80	155598.0757212	155598.0762109	40	155601.3587713	155601.3592797	100	imm	155602.0960091	nan	nan	nan	nan	nan
1464.42431640625	0.0	100	2999141	107	63	1030	0	0	155594.9262482	155594.9267626	80	155598.0757212	155598.0762109	40	155601.3587713	155601.3592797	100	imm	155602.0960091	nan	nan	nan	nan	nan
1468.029296875	0.0	80	3006524	108	50	1	1	1	155604.9638293	155604.9645774	80	155608.2212212	155608.2216932	40	155611.5037152	155611.5042146	100	del	155612.5443703	155613.0541758	155613.0545213	120.0	3.0	155617.016355
1471.28662109375	0.0	40	3013195	108	50	1	1	1	155604.9638293	155604.9645774	80	155608.2212212	155608.2216932	40	155611.5037152	155611.5042146	100	del	155612.5443703	155613.0541758	155613.0545213	120.0	3.0	155617.016355
1474.56884765625	0.0	100	3019917	108	50	1	1	1	155604.9638293	155604.9645774	80	155608.2212212	155608.2216932	40	155611.5037152	155611.5042146	100	del	155612.5443703	155613.0541758	155613.0545213	120.0	3.0	155617.016355
1476.11962890625	0.0	120	3023093	108	50	1	1	1	155604.9638293	155604.9645774	80	155608.2212212	155608.2216932	40	155611.5037152	155611.5042146	100	del	155612.5443703	155613.0541758	155613.0545213	120.0	3.0	155617.016355
1482.3212890625	0.0	80	3035794	109	100	260	0	1	155619.2561163	155619.2566837	80	155622.3257087	155622.3262003	40	155625.5838727	155625.5843586	100	del	155626.8478075	nan	nan	nan	nan	nan
1485.390625	0.0	40	3042080	109	100	260	0	1	155619.2561163	155619.2566837	80	155622.3257087	155622.3262003	40	155625.5838727	155625.5843586	100	del	155626.8478075	nan	nan	nan	nan	nan
1488.64892578125	0.0	100	3048753	109	100	260	0	1	155619.2561163	155619.2566837	80	155622.3257087	155622.3262003	40	155625.5838727	155625.5843586	100	del	155626.8478075	nan	nan	nan	nan	nan
1492.85986328125	0.0	80	3057377	110	90	730	1	0	155629.7949154	155629.795398	80	155633.2400263	155633.2405256	40	155636.3887595	155636.3892834	100	imm	155637.0964773	155637.6060521	155637.6064	120.0	2.0	155638.8239965
1496.3046875	0.0	40	3064432	110	90	730	1	0	155629.7949154	155629.795398	80	155633.2400263	155633.2405256	40	155636.3887595	155636.3892834	100	imm	155637.0964773	155637.6060521	155637.6064	120.0	2.0	155638.8239965
1499.45361328125	0.0	100	3070881	110	90	730	1	0	155629.7949154	155629.795398	80	155633.2400263	155633.2405256	40	155636.3887595	155636.3892834	100	imm	155637.0964773	155637.6060521	155637.6064	120.0	2.0	155638.8239965
1500.67041015625	0.0	120	3073373	110	90	730	1	0	155629.7949154	155629.795398	80	155633.2400263	155633.2405256	40	155636.3887595	155636.3892834	100	imm	155637.0964773	155637.6060521	155637.6064	120.0	2.0	155638.8239965
1504.009765625	0.0	80	3080212	111	60	730	1	1	155640.9453683	155640.9458821	80	155644.2361659	155644.2366251	40	155647.5697492	155647.5702538	100	imm	155651.1519458	155651.6628365	155651.6632702	120.0	2.0	155652.7361531
1507.30078125	0.0	40	3086952	111	60	730	1	1	155640.9453683	155640.9458821	80	155644.2361659	155644.2366251	40	155647.5697492	155647.5702538	100	imm	155651.1519458	155651.6628365	155651.6632702	120.0	2.0	155652.7361531
1510.63427734375	0.0	100	3093779	111	60	730	1	1	155640.9453683	155640.9458821	80	155644.2361659	155644.2366251	40	155647.5697492	155647.5702538	100	imm	155651.1519458	155651.6628365	155651.6632702	120.0	2.0	155652.7361531
1514.72705078125	0.0	120	3102161	111	60	730	1	1	155640.9453683	155640.9458821	80	155644.2361659	155644.2366251	40	155647.5697492	155647.5702538	100	imm	155651.1519458	155651.6628365	155651.6632702	120.0	2.0	155652.7361531
1518.025390625	0.0	80	3108916	112	77	180	1	0	155654.9612805	155654.9617606	80	155658.0717432	155658.0722916	40	155661.5592547	155661.5597463	100	imm	155662.1765907	155662.6869908	155662.6873683	120.0	3.0	155664.3125553
1521.1357421875	0.0	40	3115286	112	77	180	1	0	155654.9612805	155654.9617606	80	155658.0717432	155658.0722916	40	155661.5592547	155661.5597463	100	imm	155662.1765907	155662.6869908	155662.6873683	120.0	3.0	155664.3125553
1524.623046875	0.0	100	3122428	112	77	180	1	0	155654.9612805	155654.9617606	80	155658.0717432	155658.0722916	40	155661.5592547	155661.5597463	100	imm	155662.1765907	155662.6869908	155662.6873683	120.0	3.0	155664.3125553
1525.7509765625	0.0	120	3124738	112	77	180	1	0	155654.9612805	155654.9617606	80	155658.0717432	155658.0722916	40	155661.5592547	155661.5597463	100	imm	155662.1765907	155662.6869908	155662.6873683	120.0	3.0	155664.3125553
1529.4326171875	0.0	80	3132278	113	93	260	0	0	155666.3690319	155666.3695588	80	155669.4296935	155669.4301663	40	155672.5148004	155672.5152677	100	del	155673.8164046	nan	nan	nan	nan	nan
1532.49365234375	0.0	40	3138547	113	93	260	0	0	155666.3690319	155666.3695588	80	155669.4296935	155669.4301663	40	155672.5148004	155672.5152677	100	del	155673.8164046	nan	nan	nan	nan	nan
1535.57861328125	0.0	100	3144865	113	93	260	0	0	155666.3690319	155666.3695588	80	155669.4296935	155669.4301663	40	155672.5148004	155672.5152677	100	del	155673.8164046	nan	nan	nan	nan	nan
1539.4814453125	0.0	80	3152858	114	97	520	0	0	155676.4180713	155676.4185667	80	155679.7363387	155679.7368183	40	155683.0370018	155683.0374737	100	imm	155683.6240264	nan	nan	nan	nan	nan
1542.7998046875	0.0	40	3159654	114	97	520	0	0	155676.4180713	155676.4185667	80	155679.7363387	155679.7368183	40	155683.0370018	155683.0374737	100	imm	155683.6240264	nan	nan	nan	nan	nan
1546.10009765625	0.0	100	3166413	114	97	520	0	0	155676.4180713	155676.4185667	80	155679.7363387	155679.7368183	40	155683.0370018	155683.0374737	100	imm	155683.6240264	nan	nan	nan	nan	nan
1549.23193359375	0.0	80	3172827	115	63	1	1	0	155686.1685595	155686.1690475	80	155689.6419167	155689.6424021	40	155693.0199092	155693.0203829	100	del	155693.8799967	155694.3936364	155694.3941682	120.0	3.0	155699.6086484
1552.705078125	0.0	40	3179940	115	63	1	1	0	155686.1685595	155686.1690475	80	155689.6419167	155689.6424021	40	155693.0199092	155693.0203829	100	del	155693.8799967	155694.3936364	155694.3941682	120.0	3.0	155699.6086484
1556.0830078125	0.0	100	3186858	115	63	1	1	0	155686.1685595	155686.1690475	80	155689.6419167	155689.6424021	40	155693.0199092	155693.0203829	100	del	155693.8799967	155694.3936364	155694.3941682	120.0	3.0	155699.6086484
1557.45654296875	0.0	120	3189671	115	63	1	1	0	155686.1685595	155686.1690475	80	155689.6419167	155689.6424021	40	155693.0199092	155693.0203829	100	del	155693.8799967	155694.3936364	155694.3941682	120.0	3.0	155699.6086484
1565.05615234375	0.0	80	3205235	116	60	365	1	1	155701.9933804	155701.9938465	80	155705.0335045	155705.0339837	40	155708.4766167	155708.4770878	100	imm	155709.5439147	155710.0578745	155710.0583763	120.0	2.0	155710.7768819
1568.09619140625	0.0	40	3211461	116	60	365	1	1	155701.9933804	155701.9938465	80	155705.0335045	155705.0339837	40	155708.4766167	155708.4770878	100	imm	155709.5439147	155710.0578745	155710.0583763	120.0	2.0	155710.7768819
1571.5390625	0.0	100	3218512	116	60	365	1	1	155701.9933804	155701.9938465	80	155705.0335045	155705.0339837	40	155708.4766167	155708.4770878	100	imm	155709.5439147	155710.0578745	155710.0583763	120.0	2.0	155710.7768819
1573.12060546875	0.0	120	3221751	116	60	365	1	1	155701.9933804	155701.9938465	80	155705.0335045	155705.0339837	40	155708.4766167	155708.4770878	100	imm	155709.5439147	155710.0578745	155710.0583763	120.0	2.0	155710.7768819
1576.32275390625	0.0	80	3228309	117	90	80	0	1	155713.260177	155713.2606093	80	155716.75986	155716.760375	40	155720.2025509	155720.2030969	100	del	155721.1363126	nan	nan	nan	nan	nan
1579.822265625	0.0	40	3235476	117	90	80	0	1	155713.260177	155713.2606093	80	155716.75986	155716.760375	40	155720.2025509	155720.2030969	100	del	155721.1363126	nan	nan	nan	nan	nan
1583.26513671875	0.0	100	3242527	117	90	80	0	1	155713.260177	155713.2606093	80	155716.75986	155716.760375	40	155720.2025509	155720.2030969	100	del	155721.1363126	nan	nan	nan	nan	nan
1587.109375	0.0	80	3250400	118	90	520	0	0	155724.0471184	155724.0477154	80	155727.3118205	155727.3123192	40	155730.4142289	155730.4146888	100	imm	155731.0168436	nan	nan	nan	nan	nan
1590.3740234375	0.0	40	3257086	118	90	520	0	0	155724.0471184	155724.0477154	80	155727.3118205	155727.3123192	40	155730.4142289	155730.4146888	100	imm	155731.0168436	nan	nan	nan	nan	nan
1593.47607421875	0.0	100	3263439	118	90	520	0	0	155724.0471184	155724.0477154	80	155727.3118205	155727.3123192	40	155730.4142289	155730.4146888	100	imm	155731.0168436	nan	nan	nan	nan	nan
1596.7978515625	0.0	80	3270242	119	53	365	1	1	155733.7358486	155733.7362693	80	155736.8107684	155736.8112653	40	155739.8395383	155739.8399999	100	imm	155741.1602856	155741.6732106	155741.6737157	120.0	2.0	155743.4488194
1599.87255859375	0.0	40	3276539	119	53	365	1	1	155733.7358486	155733.7362693	80	155736.8107684	155736.8112653	40	155739.8395383	155739.8399999	100	imm	155741.1602856	155741.6732106	155741.6737157	120.0	2.0	155743.4488194
1602.9013671875	0.0	100	3282742	119	53	365	1	1	155733.7358486	155733.7362693	80	155736.8107684	155736.8112653	40	155739.8395383	155739.8399999	100	imm	155741.1602856	155741.6732106	155741.6737157	120.0	2.0	155743.4488194
1604.73486328125	0.0	120	3286497	119	53	365	1	1	155733.7358486	155733.7362693	80	155736.8107684	155736.8112653	40	155739.8395383	155739.8399999	100	imm	155741.1602856	155741.6732106	155741.6737157	120.0	2.0	155743.4488194
1608.99658203125	0.0	80	3295225	120	97	260	0	0	155745.9350749	155745.9355691	80	155749.0937308	155749.0942315	40	155752.2544149	155752.2549316	100	del	155753.4164541	nan	nan	nan	nan	nan
1612.1552734375	0.0	40	3301694	120	97	260	0	0	155745.9350749	155745.9355691	80	155749.0937308	155749.0942315	40	155752.2544149	155752.2549316	100	del	155753.4164541	nan	nan	nan	nan	nan
1615.31591796875	0.0	100	3308167	120	97	260	0	0	155745.9350749	155745.9355691	80	155749.0937308	155749.0942315	40	155752.2544149	155752.2549316	100	del	155753.4164541	nan	nan	nan	nan	nan
1674.52392578125	0.0	80	3429425	121	57	730	1	1	155811.4642533	155811.4647646	80	155814.7061008	155814.7065269	40	155818.0432634	155818.0437386	100	imm	155818.968287	155819.4775565	155819.4778493	120.0	1.0	155820.120166
1677.765625	0.0	40	3436064	121	57	730	1	1	155811.4642533	155811.4647646	80	155814.7061008	155814.7065269	40	155818.0432634	155818.0437386	100	imm	155818.968287	155819.4775565	155819.4778493	120.0	1.0	155820.120166
1681.10302734375	0.0	100	3442899	121	57	730	1	1	155811.4642533	155811.4647646	80	155814.7061008	155814.7065269	40	155818.0432634	155818.0437386	100	imm	155818.968287	155819.4775565	155819.4778493	120.0	1.0	155820.120166
1682.537109375	0.0	120	3445836	121	57	730	1	1	155811.4642533	155811.4647646	80	155814.7061008	155814.7065269	40	155818.0432634	155818.0437386	100	imm	155818.968287	155819.4775565	155819.4778493	120.0	1.0	155820.120166
1685.2080078125	0.0	80	3451306	122	57	260	0	1	155822.1485259	155822.1490732	80	155825.5771248	155825.5775732	40	155828.8708944	155828.871373	100	imm	155829.3285441	nan	nan	nan	nan	nan
1688.63623046875	0.0	40	3458327	122	57	260	0	1	155822.1485259	155822.1490732	80	155825.5771248	155825.5775732	40	155828.8708944	155828.871373	100	imm	155829.3285441	nan	nan	nan	nan	nan
1691.93017578125	0.0	100	3465073	122	57	260	0	1	155822.1485259	155822.1490732	80	155825.5771248	155825.5775732	40	155828.8708944	155828.871373	100	imm	155829.3285441	nan	nan	nan	nan	nan
1695.333984375	0.0	80	3472044	123	50	10	0	0	155832.274695	155832.275114	80	155835.4561562	155835.4566269	40	155838.6924395	155838.6929686	100	del	155839.416992	nan	nan	nan	nan	nan
1698.51513671875	0.0	40	3478559	123	50	10	0	0	155832.274695	155832.275114	80	155835.4561562	155835.4566269	40	155838.6924395	155838.6929686	100	del	155839.416992	nan	nan	nan	nan	nan
1701.75146484375	0.0	100	3485187	123	50	10	0	0	155832.274695	155832.275114	80	155835.4561562	155835.4566269	40	155838.6924395	155838.6929686	100	del	155839.416992	nan	nan	nan	nan	nan
1705.0205078125	0.0	80	3491882	124	63	520	0	0	155841.9617753	155841.9622535	80	155845.0577002	155845.0582015	40	155848.4027192	155848.40328	100	imm	155848.8736201	nan	nan	nan	nan	nan
1708.11669921875	0.0	40	3498223	124	63	520	0	0	155841.9617753	155841.9622535	80	155845.0577002	155845.0582015	40	155848.4027192	155848.40328	100	imm	155848.8736201	nan	nan	nan	nan	nan
1711.46142578125	0.0	100	3505073	124	63	520	0	0	155841.9617753	155841.9622535	80	155845.0577002	155845.0582015	40	155848.4027192	155848.40328	100	imm	155848.8736201	nan	nan	nan	nan	nan
1714.61669921875	0.0	80	3511535	125	60	1	1	0	155851.5580242	155851.5585246	80	155855.015224	155855.0156952	40	155858.0877118	155858.0881973	100	del	155858.8642154	155859.3779999	155859.3785185	120.0	3.0	155860.7207233
1718.07373046875	0.0	40	3518615	125	60	1	1	0	155851.5580242	155851.5585246	80	155855.015224	155855.0156952	40	155858.0877118	155858.0881973	100	del	155858.8642154	155859.3779999	155859.3785185	120.0	3.0	155860.7207233
1721.14599609375	0.0	100	3524907	125	60	1	1	0	155851.5580242	155851.5585246	80	155855.015224	155855.0156952	40	155858.0877118	155858.0881973	100	del	155858.8642154	155859.3779999	155859.3785185	120.0	3.0	155860.7207233
1722.4365234375	0.0	120	3527550	125	60	1	1	0	155851.5580242	155851.5585246	80	155855.015224	155855.0156952	40	155858.0877118	155858.0881973	100	del	155858.8642154	155859.3779999	155859.3785185	120.0	3.0	155860.7207233
1726.28759765625	0.0	80	3535437	126	73	10	0	1	155863.2291994	155863.2296892	80	155866.5067062	155866.5072293	40	155869.8775841	155869.8781486	100	del	155870.7041067	nan	nan	nan	nan	nan
1729.56494140625	0.0	40	3542149	126	73	10	0	1	155863.2291994	155863.2296892	80	155866.5067062	155866.5072293	40	155869.8775841	155869.8781486	100	del	155870.7041067	nan	nan	nan	nan	nan
1732.935546875	0.0	100	3549052	126	73	10	0	1	155863.2291994	155863.2296892	80	155866.5067062	155866.5072293	40	155869.8775841	155869.8781486	100	del	155870.7041067	nan	nan	nan	nan	nan
1736.78076171875	0.0	80	3556927	127	50	520	0	0	155873.7225196	155873.7230087	80	155876.8744414	155876.8749675	40	155880.0946104	155880.0951168	100	imm	155880.6328969	nan	nan	nan	nan	nan
1739.9326171875	0.0	40	3563382	127	50	520	0	0	155873.7225196	155873.7230087	80	155876.8744414	155876.8749675	40	155880.0946104	155880.0951168	100	imm	155880.6328969	nan	nan	nan	nan	nan
1743.15234375	0.0	100	3569976	127	50	520	0	0	155873.7225196	155873.7230087	80	155876.8744414	155876.8749675	40	155880.0946104	155880.0951168	100	imm	155880.6328969	nan	nan	nan	nan	nan
1746.44140625	0.0	80	3576712	128	70	1	1	0	155883.383736	155883.3842151	80	155886.7733332	155886.7737939	40	155890.1960567	155890.196541	100	del	155890.9687969	155891.4784098	155891.4787631	120.0	2.0	155892.4809026
1749.8310546875	0.0	40	3583654	128	70	1	1	0	155883.383736	155883.3842151	80	155886.7733332	155886.7737939	40	155890.1960567	155890.196541	100	del	155890.9687969	155891.4784098	155891.4787631	120.0	2.0	155892.4809026
1753.25341796875	0.0	100	3590663	128	70	1	1	0	155883.383736	155883.3842151	80	155886.7733332	155886.7737939	40	155890.1960567	155890.196541	100	del	155890.9687969	155891.4784098	155891.4787631	120.0	2.0	155892.4809026
1754.53564453125	0.0	120	3593289	128	70	1	1	0	155883.383736	155883.3842151	80	155886.7733332	155886.7737939	40	155890.1960567	155890.196541	100	del	155890.9687969	155891.4784098	155891.4787631	120.0	2.0	155892.4809026
1757.60400390625	0.0	80	3599573	129	87	10	0	1	155894.5463894	155894.5468947	80	155897.6431296	155897.643605	40	155900.8360917	155900.8366302	100	del	155901.8643582	nan	nan	nan	nan	nan
1760.70068359375	0.0	40	3605915	129	87	10	0	1	155894.5463894	155894.5468947	80	155897.6431296	155897.643605	40	155900.8360917	155900.8366302	100	del	155901.8643582	nan	nan	nan	nan	nan
1763.8935546875	0.0	100	3612454	129	87	10	0	1	155894.5463894	155894.5468947	80	155897.6431296	155897.643605	40	155900.8360917	155900.8366302	100	del	155901.8643582	nan	nan	nan	nan	nan
1767.46630859375	0.0	80	3619771	130	87	260	0	0	155904.4093631	155904.4098346	80	155907.677744	155907.6782061	40	155910.8591134	155910.8596093	100	imm	155911.4008027	nan	nan	nan	nan	nan
1770.73486328125	0.0	40	3626465	130	87	260	0	0	155904.4093631	155904.4098346	80	155907.677744	155907.6782061	40	155910.8591134	155910.8596093	100	imm	155911.4008027	nan	nan	nan	nan	nan
1773.916015625	0.0	100	3632980	130	87	260	0	0	155904.4093631	155904.4098346	80	155907.677744	155907.6782061	40	155910.8591134	155910.8596093	100	imm	155911.4008027	nan	nan	nan	nan	nan
1777.0634765625	0.0	80	3639426	131	67	730	1	1	155914.0064562	155914.0068681	80	155917.1183224	155917.1187785	40	155920.5848201	155920.5853267	100	imm	155921.3379971	155921.8507998	155921.8513061	120.0	2.0	155922.4648499
1780.17529296875	0.0	40	3645799	131	67	730	1	1	155914.0064562	155914.0068681	80	155917.1183224	155917.1187785	40	155920.5848201	155920.5853267	100	imm	155921.3379971	155921.8507998	155921.8513061	120.0	2.0	155922.4648499
1783.6416015625	0.0	100	3652898	131	67	730	1	1	155914.0064562	155914.0068681	80	155917.1183224	155917.1187785	40	155920.5848201	155920.5853267	100	imm	155921.3379971	155921.8507998	155921.8513061	120.0	2.0	155922.4648499
1784.90771484375	0.0	120	3655491	131	67	730	1	1	155914.0064562	155914.0068681	80	155917.1183224	155917.1187785	40	155920.5848201	155920.5853267	100	imm	155921.3379971	155921.8507998	155921.8513061	120.0	2.0	155922.4648499
1787.87451171875	0.0	80	3661567	132	53	180	1	0	155924.8177644	155924.8182762	80	155928.0606195	155928.0611062	40	155931.5237817	155931.5239929	100	imm	155932.1541349	155932.6669358	155932.6674039	120.0	4.0	155934.1368214
1791.1171875	0.0	40	3668208	132	53	180	1	0	155924.8177644	155924.8182762	80	155928.0606195	155928.0611062	40	155931.5237817	155931.5239929	100	imm	155932.1541349	155932.6669358	155932.6674039	120.0	4.0	155934.1368214
1794.58056640625	0.0	100	3675301	132	53	180	1	0	155924.8177644	155924.8182762	80	155928.0606195	155928.0611062	40	155931.5237817	155931.5239929	100	imm	155932.1541349	155932.6669358	155932.6674039	120.0	4.0	155934.1368214
1795.72314453125	0.0	120	3677641	132	53	180	1	0	155924.8177644	155924.8182762	80	155928.0606195	155928.0611062	40	155931.5237817	155931.5239929	100	imm	155932.1541349	155932.6669358	155932.6674039	120.0	4.0	155934.1368214
1799.26171875	0.0	80	3684888	133	80	1030	0	1	155936.2052881	155936.2057871	80	155939.5871013	155939.5876286	40	155942.9695358	155942.9699944	100	imm	155943.7367305	nan	nan	nan	nan	nan
1802.6435546875	0.0	40	3691814	133	80	1030	0	1	155936.2052881	155936.2057871	80	155939.5871013	155939.5876286	40	155942.9695358	155942.9699944	100	imm	155943.7367305	nan	nan	nan	nan	nan
1806.02587890625	0.0	100	3698741	133	80	1030	0	1	155936.2052881	155936.2057871	80	155939.5871013	155939.5876286	40	155942.9695358	155942.9699944	100	imm	155943.7367305	nan	nan	nan	nan	nan
1809.591796875	0.0	80	3706044	134	77	365	1	1	155946.536014	155946.5364865	80	155949.6362047	155949.6366329	40	155952.9476941	155952.9482369	100	imm	155953.6966821	155954.2100536	155954.2105586	120.0	1.0	155955.7767865
1812.69189453125	0.0	40	3712393	134	77	365	1	1	155946.536014	155946.5364865	80	155949.6362047	155949.6366329	40	155952.9476941	155952.9482369	100	imm	155953.6966821	155954.2100536	155954.2105586	120.0	1.0	155955.7767865
1816.00341796875	0.0	100	3719175	134	77	365	1	1	155946.536014	155946.5364865	80	155949.6362047	155949.6366329	40	155952.9476941	155952.9482369	100	imm	155953.6966821	155954.2100536	155954.2105586	120.0	1.0	155955.7767865
1817.265625	0.0	120	3721760	134	77	365	1	1	155946.536014	155946.5364865	80	155949.6362047	155949.6366329	40	155952.9476941	155952.9482369	100	imm	155953.6966821	155954.2100536	155954.2105586	120.0	1.0	155955.7767865
1820.99853515625	0.0	80	3729405	135	93	1	1	0	155957.9428981	155957.9433076	80	155961.0180479	155961.0185477	40	155964.1379667	155964.1384565	100	del	155966.4739807	155966.9864783	155966.9869459	120.0	2.0	155967.8339095
1824.07373046875	0.0	40	3735703	135	93	1	1	0	155957.9428981	155957.9433076	80	155961.0180479	155961.0185477	40	155964.1379667	155964.1384565	100	del	155966.4739807	155966.9864783	155966.9869459	120.0	2.0	155967.8339095
1827.193359375	0.0	100	3742092	135	93	1	1	0	155957.9428981	155957.9433076	80	155961.0180479	155961.0185477	40	155964.1379667	155964.1384565	100	del	155966.4739807	155966.9864783	155966.9869459	120.0	2.0	155967.8339095
1830.0419921875	0.0	120	3747926	135	93	1	1	0	155957.9428981	155957.9433076	80	155961.0180479	155961.0185477	40	155964.1379667	155964.1384565	100	del	155966.4739807	155966.9864783	155966.9869459	120.0	2.0	155967.8339095
1833.3525390625	0.0	80	3754706	136	53	1030	0	1	155970.2969939	155970.2975318	80	155973.3404407	155973.3408653	40	155976.4746494	155976.4751262	100	imm	155980.1697889	nan	nan	nan	nan	nan
1836.3955078125	0.0	40	3760938	136	53	1030	0	1	155970.2969939	155970.2975318	80	155973.3404407	155973.3408653	40	155976.4746494	155976.4751262	100	imm	155980.1697889	nan	nan	nan	nan	nan
1839.52978515625	0.0	100	3767357	136	53	1030	0	1	155970.2969939	155970.2975318	80	155973.3404407	155973.3408653	40	155976.4746494	155976.4751262	100	imm	155980.1697889	nan	nan	nan	nan	nan
1845.77001953125	0.0	80	3780137	137	87	1	1	0	155982.7152117	155982.7157225	80	155985.9435733	155985.9440018	40	155988.9647241	155988.9653056	100	del	155989.6489851	155990.1589915	155990.1593684	120.0	3.0	155991.1611457
1848.99853515625	0.0	40	3786749	137	87	1	1	0	155982.7152117	155982.7157225	80	155985.9435733	155985.9440018	40	155988.9647241	155988.9653056	100	del	155989.6489851	155990.1589915	155990.1593684	120.0	3.0	155991.1611457
1852.01953125	0.0	100	3792936	137	87	1	1	0	155982.7152117	155982.7157225	80	155985.9435733	155985.9440018	40	155988.9647241	155988.9653056	100	del	155989.6489851	155990.1589915	155990.1593684	120.0	3.0	155991.1611457
1853.2138671875	0.0	120	3795382	137	87	1	1	0	155982.7152117	155982.7157225	80	155985.9435733	155985.9440018	40	155988.9647241	155988.9653056	100	del	155989.6489851	155990.1589915	155990.1593684	120.0	3.0	155991.1611457
1856.68017578125	0.0	80	3802481	138	53	730	1	1	155993.625283	155993.625804	80	155996.7318722	155996.7323647	40	155999.7883193	155999.788665	100	imm	156003.2325924	156003.7442891	156003.7449162	120.0	2.0	156004.7523381
1859.78662109375	0.0	40	3808843	138	53	730	1	1	155993.625283	155993.625804	80	155996.7318722	155996.7323647	40	155999.7883193	155999.788665	100	imm	156003.2325924	156003.7442891	156003.7449162	120.0	2.0	156004.7523381
1862.8427734375	0.0	100	3815102	138	53	730	1	1	155993.625283	155993.625804	80	155996.7318722	155996.7323647	40	155999.7883193	155999.788665	100	imm	156003.2325924	156003.7442891	156003.7449162	120.0	2.0	156004.7523381
1866.798828125	0.0	120	3823204	138	53	730	1	1	155993.625283	155993.625804	80	155996.7318722	155996.7323647	40	155999.7883193	155999.788665	100	imm	156003.2325924	156003.7442891	156003.7449162	120.0	2.0	156004.7523381
1869.97705078125	0.0	80	3829713	139	70	1030	0	0	156006.9227534	156006.9232414	80	156010.1580334	156010.1585134	40	156013.2232923	156013.2237962	100	imm	156013.7211427	nan	nan	nan	nan	nan
1873.21240234375	0.0	40	3836339	139	70	1030	0	0	156006.9227534	156006.9232414	80	156010.1580334	156010.1585134	40	156013.2232923	156013.2237962	100	imm	156013.7211427	nan	nan	nan	nan	nan
1876.27734375	0.0	100	3842616	139	70	1030	0	0	156006.9227534	156006.9232414	80	156010.1580334	156010.1585134	40	156013.2232923	156013.2237962	100	imm	156013.7211427	nan	nan	nan	nan	nan
1879.79248046875	0.0	80	3849815	140	80	730	1	1	156016.7382192	156016.738737	80	156019.9122812	156019.9127454	40	156023.073729	156023.0742611	100	imm	156025.1539198	156025.6672061	156025.6676892	120.0	2.0	156027.1125747
1882.96630859375	0.0	40	3856315	140	80	730	1	1	156016.7382192	156016.738737	80	156019.9122812	156019.9127454	40	156023.073729	156023.0742611	100	imm	156025.1539198	156025.6672061	156025.6676892	120.0	2.0	156027.1125747
1886.12744140625	0.0	100	3862789	140	80	730	1	1	156016.7382192	156016.738737	80	156019.9122812	156019.9127454	40	156023.073729	156023.0742611	100	imm	156025.1539198	156025.6672061	156025.6676892	120.0	2.0	156027.1125747
1888.72119140625	0.0	120	3868101	140	80	730	1	1	156016.7382192	156016.738737	80	156019.9122812	156019.9127454	40	156023.073729	156023.0742611	100	imm	156025.1539198	156025.6672061	156025.6676892	120.0	2.0	156027.1125747
1939.84521484375	0.0	80	3972803	141	60	30	1	1	156076.7927589	156076.7933762	80	156079.9496112	156079.9500643	40	156082.9831247	156082.983517	100	del	156084.7536586	156085.2665116	156085.2670798	120.0	3.0	156086.3044791
1943.001953125	0.0	40	3979268	141	60	30	1	1	156076.7927589	156076.7933762	80	156079.9496112	156079.9500643	40	156082.9831247	156082.983517	100	del	156084.7536586	156085.2665116	156085.2670798	120.0	3.0	156086.3044791
