onset	duration	value	sample	trial_idx	val	del	is_cued	rev_opts	del_pres_displaytime	del_pres_triggertime	del_pres_triggercode	val_pres_displaytime	val_pres_triggertime	val_pres_triggercode	choice_displaytime	choice_triggertime	choice_triggercode	choice	choice_time	viv_displaytime	viv_triggertime	viv_triggercode	viv	viv_time
37.8564453125	0.0	80	77530	1	97	650	1	0	6983804.2793694	6983804.2808234	80	6983807.4820716	6983807.4829755	40	6983810.6114319	6983810.6123577	100	del	6983818.164915	6983818.6807389	6983818.6814837	120.0	3.0	6983829.1244704
41.05908203125	0.0	40	84089	1	97	650	1	0	6983804.2793694	6983804.2808234	80	6983807.4820716	6983807.4829755	40	6983810.6114319	6983810.6123577	100	del	6983818.164915	6983818.6807389	6983818.6814837	120.0	3.0	6983829.1244704
44.1884765625	0.0	100	90498	1	97	650	1	0	6983804.2793694	6983804.2808234	80	6983807.4820716	6983807.4829755	40	6983810.6114319	6983810.6123577	100	del	6983818.164915	6983818.6807389	6983818.6814837	120.0	3.0	6983829.1244704
52.25732421875	0.0	120	107023	1	97	650	1	0	6983804.2793694	6983804.2808234	80	6983807.4820716	6983807.4829755	40	6983810.6114319	6983810.6123577	100	del	6983818.164915	6983818.6807389	6983818.6814837	120.0	3.0	6983829.1244704
64.9619140625	0.0	80	133042	2	83	490	0	1	6983831.3851837	6983831.3858011	80	6983834.5623782	6983834.5630555	40	6983838.0524311	6983838.0532072	100	imm	6983856.7493074	nan	nan	nan	nan	nan
68.13916015625	0.0	40	139549	2	83	490	0	1	6983831.3851837	6983831.3858011	80	6983834.5623782	6983834.5630555	40	6983838.0524311	6983838.0532072	100	imm	6983856.7493074	nan	nan	nan	nan	nan
71.62890625	0.0	100	146696	2	83	490	0	1	6983831.3851837	6983831.3858011	80	6983834.5623782	6983834.5630555	40	6983838.0524311	6983838.0532072	100	imm	6983856.7493074	nan	nan	nan	nan	nan
93.310546875	0.0	80	191100	3	53	260	0	0	6983859.7346761	6983859.7355259	80	6983862.7703507	6983862.7711042	40	6983866.1543069	6983866.1550776	100	imm	6983869.0288585	nan	nan	nan	nan	nan
96.345703125	0.0	40	197316	3	53	260	0	0	6983859.7346761	6983859.7355259	80	6983862.7703507	6983862.7711042	40	6983866.1543069	6983866.1550776	100	imm	6983869.0288585	nan	nan	nan	nan	nan
99.7294921875	0.0	100	204246	3	53	260	0	0	6983859.7346761	6983859.7355259	80	6983862.7703507	6983862.7711042	40	6983866.1543069	6983866.1550776	100	imm	6983869.0288585	nan	nan	nan	nan	nan
105.2587890625	0.0	80	215570	4	63	365	1	1	6983871.6835711	6983871.6843462	80	6983874.9006371	6983874.900923	40	6983878.1848001	6983878.1853327	100	imm	6983881.1806026	6983881.6934616	6983881.69413	120.0	3.0	6983890.6214851
108.47607421875	0.0	40	222159	4	63	365	1	1	6983871.6835711	6983871.6843462	80	6983874.9006371	6983874.900923	40	6983878.1848001	6983878.1853327	100	imm	6983881.1806026	6983881.6934616	6983881.69413	120.0	3.0	6983890.6214851
111.76025390625	0.0	100	228885	4	63	365	1	1	6983871.6835711	6983871.6843462	80	6983874.9006371	6983874.900923	40	6983878.1848001	6983878.1853327	100	imm	6983881.1806026	6983881.6934616	6983881.69413	120.0	3.0	6983890.6214851
115.26904296875	0.0	120	236071	4	63	365	1	1	6983871.6835711	6983871.6843462	80	6983874.9006371	6983874.900923	40	6983878.1848001	6983878.1853327	100	imm	6983881.1806026	6983881.6934616	6983881.69413	120.0	3.0	6983890.6214851
126.6875	0.0	80	259456	5	83	180	1	1	6983893.1121148	6983893.1143032	80	6983896.3360175	6983896.3384624	40	6983899.848327	6983899.8509523	100	del	6983902.2305467	6983902.7438473	6983902.7445135	120.0	4.0	6983905.8528166
129.91064453125	0.0	40	266057	5	83	180	1	1	6983893.1121148	6983893.1143032	80	6983896.3360175	6983896.3384624	40	6983899.848327	6983899.8509523	100	del	6983902.2305467	6983902.7438473	6983902.7445135	120.0	4.0	6983905.8528166
133.42333984375	0.0	100	273251	5	83	180	1	1	6983893.1121148	6983893.1143032	80	6983896.3360175	6983896.3384624	40	6983899.848327	6983899.8509523	100	del	6983902.2305467	6983902.7438473	6983902.7445135	120.0	4.0	6983905.8528166
136.31884765625	0.0	120	279181	5	83	180	1	1	6983893.1121148	6983893.1143032	80	6983896.3360175	6983896.3384624	40	6983899.848327	6983899.8509523	100	del	6983902.2305467	6983902.7438473	6983902.7445135	120.0	4.0	6983905.8528166
141.5986328125	0.0	80	289994	6	100	365	1	1	6983908.0238412	6983908.0244834	80	6983911.3825774	6983911.3833197	40	6983914.7299726	6983914.730396	100	imm	6983916.5886724	6983917.1022337	6983917.1028764	120.0	3.0	6983922.6208127
144.95654296875	0.0	40	296871	6	100	365	1	1	6983908.0238412	6983908.0244834	80	6983911.3825774	6983911.3833197	40	6983914.7299726	6983914.730396	100	imm	6983916.5886724	6983917.1022337	6983917.1028764	120.0	3.0	6983922.6208127
148.30419921875	0.0	100	303727	6	100	365	1	1	6983908.0238412	6983908.0244834	80	6983911.3825774	6983911.3833197	40	6983914.7299726	6983914.730396	100	imm	6983916.5886724	6983917.1022337	6983917.1028764	120.0	3.0	6983922.6208127
150.6767578125	0.0	120	308586	6	100	365	1	1	6983908.0238412	6983908.0244834	80	6983911.3825774	6983911.3833197	40	6983914.7299726	6983914.730396	100	imm	6983916.5886724	6983917.1022337	6983917.1028764	120.0	3.0	6983922.6208127
158.4794921875	0.0	80	324566	7	97	365	1	0	6983924.905677	6983924.9061765	80	6983928.2631783	6983928.2636808	40	6983931.6118241	6983931.612336	100	imm	6983937.860679	6983938.3738528	6983938.3764362	120.0	3.0	6983941.6211124
161.8369140625	0.0	40	331442	7	97	365	1	0	6983924.905677	6983924.9061765	80	6983928.2631783	6983928.2636808	40	6983931.6118241	6983931.612336	100	imm	6983937.860679	6983938.3738528	6983938.3764362	120.0	3.0	6983941.6211124
165.185546875	0.0	100	338300	7	97	365	1	0	6983924.905677	6983924.9061765	80	6983928.2631783	6983928.2636808	40	6983931.6118241	6983931.612336	100	imm	6983937.860679	6983938.3738528	6983938.3764362	120.0	3.0	6983941.6211124
171.94775390625	0.0	120	352149	7	97	365	1	0	6983924.905677	6983924.9061765	80	6983928.2631783	6983928.2636808	40	6983931.6118241	6983931.612336	100	imm	6983937.860679	6983938.3738528	6983938.3764362	120.0	3.0	6983941.6211124
177.296875	0.0	80	363104	8	83	650	1	1	6983943.7235426	6983943.723938	80	6983946.7950761	6983946.7955745	40	6983950.309657	6983950.3101589	100	del	6983953.1814279	6983953.6922004	6983953.69259	120.0	2.0	6983960.7174486
180.36865234375	0.0	40	369395	8	83	650	1	1	6983943.7235426	6983943.723938	80	6983946.7950761	6983946.7955745	40	6983950.309657	6983950.3101589	100	del	6983953.1814279	6983953.6922004	6983953.69259	120.0	2.0	6983960.7174486
183.8828125	0.0	100	376592	8	83	650	1	1	6983943.7235426	6983943.723938	80	6983946.7950761	6983946.7955745	40	6983950.309657	6983950.3101589	100	del	6983953.1814279	6983953.6922004	6983953.69259	120.0	2.0	6983960.7174486
187.26513671875	0.0	120	383519	8	83	650	1	1	6983943.7235426	6983943.723938	80	6983946.7950761	6983946.7955745	40	6983950.309657	6983950.3101589	100	del	6983953.1814279	6983953.6922004	6983953.69259	120.0	2.0	6983960.7174486
196.38916015625	0.0	80	402205	9	100	490	0	0	6983962.8162863	6983962.8167202	80	6983965.8405562	6983965.8410726	40	6983969.1342529	6983969.1347481	100	na	6983978.8371165	nan	nan	nan	nan	nan
199.41357421875	0.0	40	408399	9	100	490	0	0	6983962.8162863	6983962.8167202	80	6983965.8405562	6983965.8410726	40	6983969.1342529	6983969.1347481	100	na	6983978.8371165	nan	nan	nan	nan	nan
202.70703125	0.0	100	415144	9	100	490	0	0	6983962.8162863	6983962.8167202	80	6983965.8405562	6983965.8410726	40	6983969.1342529	6983969.1347481	100	na	6983978.8371165	nan	nan	nan	nan	nan
215.36962890625	0.0	80	441077	10	70	40	0	1	6983981.7968936	6983981.7974634	80	6983985.138718	6983985.1391402	40	6983988.2457963	6983988.2462756	100	del	6984002.0213525	nan	nan	nan	nan	nan
218.7109375	0.0	40	447920	10	70	40	0	1	6983981.7968936	6983981.7974634	80	6983985.138718	6983985.1391402	40	6983988.2457963	6983988.2462756	100	del	6984002.0213525	nan	nan	nan	nan	nan
221.81787109375	0.0	100	454283	10	70	40	0	1	6983981.7968936	6983981.7974634	80	6983985.138718	6983985.1391402	40	6983988.2457963	6983988.2462756	100	del	6984002.0213525	nan	nan	nan	nan	nan
238.294921875	0.0	80	488028	11	73	650	1	1	6984004.7233637	6984004.7237652	80	6984007.9611154	6984007.9615861	40	6984011.464959	6984011.4654357	100	del	6984017.1408931	6984017.6518278	6984017.6521524	120.0	3.0	6984023.5495898
241.53271484375	0.0	40	494659	11	73	650	1	1	6984004.7233637	6984004.7237652	80	6984007.9611154	6984007.9615861	40	6984011.464959	6984011.4654357	100	del	6984017.1408931	6984017.6518278	6984017.6521524	120.0	3.0	6984023.5495898
245.03662109375	0.0	100	501835	11	73	650	1	1	6984004.7233637	6984004.7237652	80	6984007.9611154	6984007.9615861	40	6984011.464959	6984011.4654357	100	del	6984017.1408931	6984017.6518278	6984017.6521524	120.0	3.0	6984023.5495898
251.22314453125	0.0	120	514505	11	73	650	1	1	6984004.7233637	6984004.7237652	80	6984007.9611154	6984007.9615861	40	6984011.464959	6984011.4654357	100	del	6984017.1408931	6984017.6518278	6984017.6521524	120.0	3.0	6984023.5495898
259.2138671875	0.0	80	530870	12	50	180	1	1	6984025.6427491	6984025.6431097	80	6984029.0778705	6984029.078364	40	6984032.4135776	6984032.4141418	100	imm	6984034.0455255	6984034.5572675	6984034.5576856	120.0	4.0	6984045.6130137
262.64892578125	0.0	40	537905	12	50	180	1	1	6984025.6427491	6984025.6431097	80	6984029.0778705	6984029.078364	40	6984032.4135776	6984032.4141418	100	imm	6984034.0455255	6984034.5572675	6984034.5576856	120.0	4.0	6984045.6130137
265.98486328125	0.0	100	544737	12	50	180	1	1	6984025.6427491	6984025.6431097	80	6984029.0778705	6984029.078364	40	6984032.4135776	6984032.4141418	100	imm	6984034.0455255	6984034.5572675	6984034.5576856	120.0	4.0	6984045.6130137
268.12841796875	0.0	120	549127	12	50	180	1	1	6984025.6427491	6984025.6431097	80	6984029.0778705	6984029.078364	40	6984032.4135776	6984032.4141418	100	imm	6984034.0455255	6984034.5572675	6984034.5576856	120.0	4.0	6984045.6130137
281.38525390625	0.0	80	576277	13	50	870	0	1	6984047.8145774	6984047.8149856	80	6984050.9175766	6984050.9180523	40	6984054.1390182	6984054.1392294	100	imm	6984062.4689134	nan	nan	nan	nan	nan
284.48828125	0.0	40	582632	13	50	870	0	1	6984047.8145774	6984047.8149856	80	6984050.9175766	6984050.9180523	40	6984054.1390182	6984054.1392294	100	imm	6984062.4689134	nan	nan	nan	nan	nan
287.7099609375	0.0	100	589230	13	50	870	0	1	6984047.8145774	6984047.8149856	80	6984050.9175766	6984050.9180523	40	6984054.1390182	6984054.1392294	100	imm	6984062.4689134	nan	nan	nan	nan	nan
298.79736328125	0.0	80	611937	14	90	180	1	1	6984065.2268497	6984065.2275612	80	6984068.2954844	6984068.2959862	40	6984071.603451	6984071.603912	100	del	6984075.1412993	6984075.6524636	6984075.6528664	120.0	3.0	6984079.1095484
301.86572265625	0.0	40	618221	14	90	180	1	1	6984065.2268497	6984065.2275612	80	6984068.2954844	6984068.2959862	40	6984071.603451	6984071.603912	100	del	6984075.1412993	6984075.6524636	6984075.6528664	120.0	3.0	6984079.1095484
305.17333984375	0.0	100	624995	14	90	180	1	1	6984065.2268497	6984065.2275612	80	6984068.2954844	6984068.2959862	40	6984071.603451	6984071.603912	100	del	6984075.1412993	6984075.6524636	6984075.6528664	120.0	3.0	6984079.1095484
309.22216796875	0.0	120	633287	14	90	180	1	1	6984065.2268497	6984065.2275612	80	6984068.2954844	6984068.2959862	40	6984071.603451	6984071.603912	100	del	6984075.1412993	6984075.6524636	6984075.6528664	120.0	3.0	6984079.1095484
314.80615234375	0.0	80	644723	15	100	870	0	1	6984081.2367139	6984081.2371829	80	6984084.4364905	6984084.4370069	40	6984087.7407193	6984087.7412382	100	na	6984089.8370227	nan	nan	nan	nan	nan
318.005859375	0.0	40	651276	15	100	870	0	1	6984081.2367139	6984081.2371829	80	6984084.4364905	6984084.4370069	40	6984087.7407193	6984087.7412382	100	na	6984089.8370227	nan	nan	nan	nan	nan
321.31005859375	0.0	100	658043	15	100	870	0	1	6984081.2367139	6984081.2371829	80	6984084.4364905	6984084.4370069	40	6984087.7407193	6984087.7412382	100	na	6984089.8370227	nan	nan	nan	nan	nan
326.048828125	0.0	80	667748	16	100	180	1	1	6984092.4795445	6984092.4799814	80	6984095.6306492	6984095.6311014	40	6984098.9520883	6984098.9525861	100	del	6984104.4705246	6984104.9801574	6984104.9805475	120.0	4.0	6984107.0783159
329.19970703125	0.0	40	674201	16	100	180	1	1	6984092.4795445	6984092.4799814	80	6984095.6306492	6984095.6311014	40	6984098.9520883	6984098.9525861	100	del	6984104.4705246	6984104.9801574	6984104.9805475	120.0	4.0	6984107.0783159
332.521484375	0.0	100	681004	16	100	180	1	1	6984092.4795445	6984092.4799814	80	6984095.6306492	6984095.6311014	40	6984098.9520883	6984098.9525861	100	del	6984104.4705246	6984104.9801574	6984104.9805475	120.0	4.0	6984107.0783159
338.54931640625	0.0	120	693349	16	100	180	1	1	6984092.4795445	6984092.4799814	80	6984095.6306492	6984095.6311014	40	6984098.9520883	6984098.9525861	100	del	6984104.4705246	6984104.9801574	6984104.9805475	120.0	4.0	6984107.0783159
342.794921875	0.0	80	702044	17	80	140	0	1	6984109.226175	6984109.2266538	80	6984112.6457367	6984112.6462098	40	6984116.1504633	6984116.1510071	100	imm	6984121.6454082	nan	nan	nan	nan	nan
346.21435546875	0.0	40	709047	17	80	140	0	1	6984109.226175	6984109.2266538	80	6984112.6457367	6984112.6462098	40	6984116.1504633	6984116.1510071	100	imm	6984121.6454082	nan	nan	nan	nan	nan
349.71923828125	0.0	100	716225	17	80	140	0	1	6984109.226175	6984109.2266538	80	6984112.6457367	6984112.6462098	40	6984116.1504633	6984116.1510071	100	imm	6984121.6454082	nan	nan	nan	nan	nan
358.09375	0.0	80	733376	18	93	140	0	1	6984124.5251809	6984124.5255382	80	6984127.7045548	6984127.7050697	40	6984131.0099452	6984131.0104379	100	imm	6984140.942427	nan	nan	nan	nan	nan
361.27294921875	0.0	40	739887	18	93	140	0	1	6984124.5251809	6984124.5255382	80	6984127.7045548	6984127.7050697	40	6984131.0099452	6984131.0104379	100	imm	6984140.942427	nan	nan	nan	nan	nan
364.578125	0.0	100	746656	18	93	140	0	1	6984124.5251809	6984124.5255382	80	6984127.7045548	6984127.7050697	40	6984131.0099452	6984131.0104379	100	imm	6984140.942427	nan	nan	nan	nan	nan
377.080078125	0.0	80	772260	19	73	870	0	1	6984143.5120591	6984143.5124294	80	6984146.9727848	6984146.9732467	40	6984150.4261362	6984150.4265828	100	imm	6984153.8703438	nan	nan	nan	nan	nan
380.54052734375	0.0	40	779347	19	73	870	0	1	6984143.5120591	6984143.5124294	80	6984146.9727848	6984146.9732467	40	6984150.4261362	6984150.4265828	100	imm	6984153.8703438	nan	nan	nan	nan	nan
383.99365234375	0.0	100	786419	19	73	870	0	1	6984143.5120591	6984143.5124294	80	6984146.9727848	6984146.9732467	40	6984150.4261362	6984150.4265828	100	imm	6984153.8703438	nan	nan	nan	nan	nan
390.36376953125	0.0	80	799465	20	97	180	1	0	6984156.7959432	6984156.7964486	80	6984159.9341235	6984159.9346736	40	6984163.2445729	6984163.245015	100	del	6984167.0773091	6984167.5891646	6984167.5896101	120.0	4.0	6984169.0771724
393.50146484375	0.0	40	805891	20	97	180	1	0	6984156.7959432	6984156.7964486	80	6984159.9341235	6984159.9346736	40	6984163.2445729	6984163.245015	100	del	6984167.0773091	6984167.5891646	6984167.5896101	120.0	4.0	6984169.0771724
396.81201171875	0.0	100	812671	20	97	180	1	0	6984156.7959432	6984156.7964486	80	6984159.9341235	6984159.9346736	40	6984163.2445729	6984163.245015	100	del	6984167.0773091	6984167.5891646	6984167.5896101	120.0	4.0	6984169.0771724
401.15625	0.0	120	821568	20	97	180	1	0	6984156.7959432	6984156.7964486	80	6984159.9341235	6984159.9346736	40	6984163.2445729	6984163.245015	100	del	6984167.0773091	6984167.5891646	6984167.5896101	120.0	4.0	6984169.0771724
414.759765625	0.0	80	849428	21	57	870	0	1	6984181.1928951	6984181.1932264	80	6984184.4111849	6984184.4115353	40	6984187.5816348	6984187.5821361	100	imm	6984202.9098386	nan	nan	nan	nan	nan
417.97802734375	0.0	40	856019	21	57	870	0	1	6984181.1928951	6984181.1932264	80	6984184.4111849	6984184.4115353	40	6984187.5816348	6984187.5821361	100	imm	6984202.9098386	nan	nan	nan	nan	nan
421.1484375	0.0	100	862512	21	57	870	0	1	6984181.1928951	6984181.1932264	80	6984184.4111849	6984184.4115353	40	6984187.5816348	6984187.5821361	100	imm	6984202.9098386	nan	nan	nan	nan	nan
439.0751953125	0.0	80	899226	22	100	650	1	1	6984205.5089989	6984205.509507	80	6984208.6063667	6984208.6068651	40	6984211.8363443	6984211.8370127	100	del	6984226.6296846	6984227.1409445	6984227.1413667	120.0	3.0	6984229.6775273
442.17236328125	0.0	40	905569	22	100	650	1	1	6984205.5089989	6984205.509507	80	6984208.6063667	6984208.6068651	40	6984211.8363443	6984211.8370127	100	del	6984226.6296846	6984227.1409445	6984227.1413667	120.0	3.0	6984229.6775273
445.40283203125	0.0	100	912185	22	100	650	1	1	6984205.5089989	6984205.509507	80	6984208.6063667	6984208.6068651	40	6984211.8363443	6984211.8370127	100	del	6984226.6296846	6984227.1409445	6984227.1413667	120.0	3.0	6984229.6775273
460.70654296875	0.0	120	943527	22	100	650	1	1	6984205.5089989	6984205.509507	80	6984208.6063667	6984208.6068651	40	6984211.8363443	6984211.8370127	100	del	6984226.6296846	6984227.1409445	6984227.1413667	120.0	3.0	6984229.6775273
465.30322265625	0.0	80	952941	23	87	490	0	1	6984231.7377796	6984231.738218	80	6984235.0448115	6984235.0452866	40	6984238.2919508	6984238.2923397	100	na	6984241.2383908	nan	nan	nan	nan	nan
468.6103515625	0.0	40	959714	23	87	490	0	1	6984231.7377796	6984231.738218	80	6984235.0448115	6984235.0452866	40	6984238.2919508	6984238.2923397	100	na	6984241.2383908	nan	nan	nan	nan	nan
471.857421875	0.0	100	966364	23	87	490	0	1	6984231.7377796	6984231.738218	80	6984235.0448115	6984235.0452866	40	6984238.2919508	6984238.2923397	100	na	6984241.2383908	nan	nan	nan	nan	nan
477.6689453125	0.0	80	978266	24	63	140	0	1	6984244.1035769	6984244.1040788	80	6984247.4613213	6984247.4618131	40	6984250.794237	6984250.7947595	100	imm	6984258.8858102	nan	nan	nan	nan	nan
481.0263671875	0.0	40	985142	24	63	140	0	1	6984244.1035769	6984244.1040788	80	6984247.4613213	6984247.4618131	40	6984250.794237	6984250.7947595	100	imm	6984258.8858102	nan	nan	nan	nan	nan
484.359375	0.0	100	991968	24	63	140	0	1	6984244.1035769	6984244.1040788	80	6984247.4613213	6984247.4618131	40	6984250.794237	6984250.7947595	100	imm	6984258.8858102	nan	nan	nan	nan	nan
494.984375	0.0	80	1013728	25	77	650	1	0	6984261.4195119	6984261.4199519	80	6984264.4617118	6984264.4621736	40	6984267.630745	6984267.6310798	100	imm	6984271.2788852	6984271.7890532	6984271.7893949	120.0	3.0	6984276.2455851
498.0263671875	0.0	40	1019958	25	77	650	1	0	6984261.4195119	6984261.4199519	80	6984264.4617118	6984264.4621736	40	6984267.630745	6984267.6310798	100	imm	6984271.2788852	6984271.7890532	6984271.7893949	120.0	3.0	6984276.2455851
501.1953125	0.0	100	1026448	25	77	650	1	0	6984261.4195119	6984261.4199519	80	6984264.4617118	6984264.4621736	40	6984267.630745	6984267.6310798	100	imm	6984271.2788852	6984271.7890532	6984271.7893949	120.0	3.0	6984276.2455851
505.353515625	0.0	120	1034964	25	77	650	1	0	6984261.4195119	6984261.4199519	80	6984264.4617118	6984264.4621736	40	6984267.630745	6984267.6310798	100	imm	6984271.2788852	6984271.7890532	6984271.7893949	120.0	3.0	6984276.2455851
512.09033203125	0.0	80	1048761	26	80	365	1	1	6984278.5260282	6984278.5265173	80	6984281.8608171	6984281.861293	40	6984285.0781555	6984285.0786595	100	imm	6984286.7891846	6984287.3016677	6984287.302238	120.0	3.0	6984288.9172207
515.4248046875	0.0	40	1055590	26	80	365	1	1	6984278.5260282	6984278.5265173	80	6984281.8608171	6984281.861293	40	6984285.0781555	6984285.0786595	100	imm	6984286.7891846	6984287.3016677	6984287.302238	120.0	3.0	6984288.9172207
518.64208984375	0.0	100	1062179	26	80	365	1	1	6984278.5260282	6984278.5265173	80	6984281.8608171	6984281.861293	40	6984285.0781555	6984285.0786595	100	imm	6984286.7891846	6984287.3016677	6984287.302238	120.0	3.0	6984288.9172207
520.86572265625	0.0	120	1066733	26	80	365	1	1	6984278.5260282	6984278.5265173	80	6984281.8608171	6984281.861293	40	6984285.0781555	6984285.0786595	100	imm	6984286.7891846	6984287.3016677	6984287.302238	120.0	3.0	6984288.9172207
524.90625	0.0	80	1075008	27	63	40	0	0	6984291.3421649	6984291.3426309	80	6984294.7081664	6984294.7085928	40	6984298.206124	6984298.2066043	100	del	6984301.7265094	nan	nan	nan	nan	nan
528.27197265625	0.0	40	1081901	27	63	40	0	0	6984291.3421649	6984291.3426309	80	6984294.7081664	6984294.7085928	40	6984298.206124	6984298.2066043	100	del	6984301.7265094	nan	nan	nan	nan	nan
531.77001953125	0.0	100	1089065	27	63	40	0	0	6984291.3421649	6984291.3426309	80	6984294.7081664	6984294.7085928	40	6984298.206124	6984298.2066043	100	del	6984301.7265094	nan	nan	nan	nan	nan
538.07470703125	0.0	80	1101977	28	73	140	0	0	6984304.5113203	6984304.511814	80	6984307.6816147	6984307.6820751	40	6984310.7477381	6984310.748263	100	na	6984314.2932649	nan	nan	nan	nan	nan
541.2451171875	0.0	40	1108470	28	73	140	0	0	6984304.5113203	6984304.511814	80	6984307.6816147	6984307.6820751	40	6984310.7477381	6984310.748263	100	na	6984314.2932649	nan	nan	nan	nan	nan
544.31103515625	0.0	100	1114749	28	73	140	0	0	6984304.5113203	6984304.511814	80	6984307.6816147	6984307.6820751	40	6984310.7477381	6984310.748263	100	na	6984314.2932649	nan	nan	nan	nan	nan
550.67724609375	0.0	80	1127787	29	60	40	0	0	6984317.1142808	6984317.1147221	80	6984320.5112014	6984320.5116978	40	6984323.7366556	6984323.7371099	100	del	6984326.0212981	nan	nan	nan	nan	nan
554.07421875	0.0	40	1134744	29	60	40	0	0	6984317.1142808	6984317.1147221	80	6984320.5112014	6984320.5116978	40	6984323.7366556	6984323.7371099	100	del	6984326.0212981	nan	nan	nan	nan	nan
557.2998046875	0.0	100	1141350	29	60	40	0	0	6984317.1142808	6984317.1147221	80	6984320.5112014	6984320.5116978	40	6984323.7366556	6984323.7371099	100	del	6984326.0212981	nan	nan	nan	nan	nan
562.1474609375	0.0	80	1151278	30	60	140	0	1	6984328.5845085	6984328.585014	80	6984331.7254836	6984331.7259857	40	6984334.8153974	6984334.815884	100	del	6984339.2215377	nan	nan	nan	nan	nan
565.2880859375	0.0	40	1157710	30	60	140	0	1	6984328.5845085	6984328.585014	80	6984331.7254836	6984331.7259857	40	6984334.8153974	6984334.815884	100	del	6984339.2215377	nan	nan	nan	nan	nan
568.3779296875	0.0	100	1164038	30	60	140	0	1	6984328.5845085	6984328.585014	80	6984331.7254836	6984331.7259857	40	6984334.8153974	6984334.815884	100	del	6984339.2215377	nan	nan	nan	nan	nan
575.44287109375	0.0	80	1178507	31	60	490	0	1	6984341.8801477	6984341.8806911	80	6984345.1079095	6984345.10837	40	6984348.3856668	6984348.3862007	100	imm	6984355.4451091	nan	nan	nan	nan	nan
578.67041015625	0.0	40	1185117	31	60	490	0	1	6984341.8801477	6984341.8806911	80	6984345.1079095	6984345.10837	40	6984348.3856668	6984348.3862007	100	imm	6984355.4451091	nan	nan	nan	nan	nan
581.94775390625	0.0	100	1191829	31	60	490	0	1	6984341.8801477	6984341.8806911	80	6984345.1079095	6984345.10837	40	6984348.3856668	6984348.3862007	100	imm	6984355.4451091	nan	nan	nan	nan	nan
591.75341796875	0.0	80	1211911	32	53	100	1	1	6984358.1915563	6984358.192038	80	6984361.6371078	6984361.6375599	40	6984364.909022	6984364.9094681	100	imm	6984373.198886	6984373.7108205	6984373.7112457	120.0	3.0	6984376.541995
595.19921875	0.0	40	1218968	32	53	100	1	1	6984358.1915563	6984358.192038	80	6984361.6371078	6984361.6375599	40	6984364.909022	6984364.9094681	100	imm	6984373.198886	6984373.7108205	6984373.7112457	120.0	3.0	6984376.541995
598.470703125	0.0	100	1225668	32	53	100	1	1	6984358.1915563	6984358.192038	80	6984361.6371078	6984361.6375599	40	6984364.909022	6984364.9094681	100	imm	6984373.198886	6984373.7108205	6984373.7112457	120.0	3.0	6984376.541995
607.2724609375	0.0	120	1243694	32	53	100	1	1	6984358.1915563	6984358.192038	80	6984361.6371078	6984361.6375599	40	6984364.909022	6984364.9094681	100	imm	6984373.198886	6984373.7108205	6984373.7112457	120.0	3.0	6984376.541995
612.58935546875	0.0	80	1254583	33	93	100	1	0	6984379.0279067	6984379.0283748	80	6984382.3541429	6984382.35452	40	6984385.8465979	6984385.8470793	100	del	6984396.3657185	6984396.8760352	6984396.8763975	120.0	3.0	6984400.0855751
615.91552734375	0.0	40	1261395	33	93	100	1	0	6984379.0279067	6984379.0283748	80	6984382.3541429	6984382.35452	40	6984385.8465979	6984385.8470793	100	del	6984396.3657185	6984396.8760352	6984396.8763975	120.0	3.0	6984400.0855751
619.40771484375	0.0	100	1268547	33	93	100	1	0	6984379.0279067	6984379.0283748	80	6984382.3541429	6984382.35452	40	6984385.8465979	6984385.8470793	100	del	6984396.3657185	6984396.8760352	6984396.8763975	120.0	3.0	6984400.0855751
630.43701171875	0.0	120	1291135	33	93	100	1	0	6984379.0279067	6984379.0283748	80	6984382.3541429	6984382.35452	40	6984385.8465979	6984385.8470793	100	del	6984396.3657185	6984396.8760352	6984396.8763975	120.0	3.0	6984400.0855751
635.77978515625	0.0	80	1302077	34	63	100	1	0	6984402.2192285	6984402.2196172	80	6984405.5647324	6984405.5651842	40	6984408.7227143	6984408.7232459	100	del	6984410.7491105	6984411.2621897	6984411.2626417	120.0	3.0	6984413.3411309
639.12548828125	0.0	40	1308929	34	63	100	1	0	6984402.2192285	6984402.2196172	80	6984405.5647324	6984405.5651842	40	6984408.7227143	6984408.7232459	100	del	6984410.7491105	6984411.2621897	6984411.2626417	120.0	3.0	6984413.3411309
642.283203125	0.0	100	1315396	34	63	100	1	0	6984402.2192285	6984402.2196172	80	6984405.5647324	6984405.5651842	40	6984408.7227143	6984408.7232459	100	del	6984410.7491105	6984411.2621897	6984411.2626417	120.0	3.0	6984413.3411309
644.82275390625	0.0	120	1320597	34	63	100	1	0	6984402.2192285	6984402.2196172	80	6984405.5647324	6984405.5651842	40	6984408.7227143	6984408.7232459	100	del	6984410.7491105	6984411.2621897	6984411.2626417	120.0	3.0	6984413.3411309
649.2509765625	0.0	80	1329666	35	67	100	1	0	6984415.6907317	6984415.691138	80	6984419.0442769	6984419.0445799	40	6984422.0915008	6984422.0919578	100	del	6984434.4067727	6984434.918165	6984434.918543	120.0	4.0	6984435.8294782
652.6044921875	0.0	40	1336534	35	67	100	1	0	6984415.6907317	6984415.691138	80	6984419.0442769	6984419.0445799	40	6984422.0915008	6984422.0919578	100	del	6984434.4067727	6984434.918165	6984434.918543	120.0	4.0	6984435.8294782
655.65185546875	0.0	100	1342775	35	67	100	1	0	6984415.6907317	6984415.691138	80	6984419.0442769	6984419.0445799	40	6984422.0915008	6984422.0919578	100	del	6984434.4067727	6984434.918165	6984434.918543	120.0	4.0	6984435.8294782
668.47802734375	0.0	120	1369043	35	67	100	1	0	6984415.6907317	6984415.691138	80	6984419.0442769	6984419.0445799	40	6984422.0915008	6984422.0919578	100	del	6984434.4067727	6984434.918165	6984434.918543	120.0	4.0	6984435.8294782
671.53173828125	0.0	80	1375297	36	57	140	0	1	6984437.9721448	6984437.9725571	80	6984441.0916488	6984441.0921288	40	6984444.4334624	6984444.4336928	100	del	6984454.3896017	nan	nan	nan	nan	nan
674.6513671875	0.0	40	1381686	36	57	140	0	1	6984437.9721448	6984437.9725571	80	6984441.0916488	6984441.0921288	40	6984444.4334624	6984444.4336928	100	del	6984454.3896017	nan	nan	nan	nan	nan
677.99365234375	0.0	100	1388531	36	57	140	0	1	6984437.9721448	6984437.9725571	80	6984441.0916488	6984441.0921288	40	6984444.4334624	6984444.4336928	100	del	6984454.3896017	nan	nan	nan	nan	nan
690.888671875	0.0	80	1414940	37	70	260	0	0	6984457.3294384	6984457.3299327	80	6984460.5077982	6984460.5080985	40	6984463.9110968	6984463.911632	100	del	6984472.2131099	nan	nan	nan	nan	nan
694.06689453125	0.0	40	1421449	37	70	260	0	0	6984457.3294384	6984457.3299327	80	6984460.5077982	6984460.5080985	40	6984463.9110968	6984463.911632	100	del	6984472.2131099	nan	nan	nan	nan	nan
697.47021484375	0.0	100	1428419	37	70	260	0	0	6984457.3294384	6984457.3299327	80	6984460.5077982	6984460.5080985	40	6984463.9110968	6984463.911632	100	del	6984472.2131099	nan	nan	nan	nan	nan
708.62255859375	0.0	80	1451259	38	63	180	1	1	6984475.0638999	6984475.0642855	80	6984478.0747232	6984478.0751729	40	6984481.389136	6984481.3897686	100	imm	6984488.7254094	6984489.2362785	6984489.2366844	120.0	3.0	6984491.9015434
711.63330078125	0.0	40	1457425	38	63	180	1	1	6984475.0638999	6984475.0642855	80	6984478.0747232	6984478.0751729	40	6984481.389136	6984481.3897686	100	imm	6984488.7254094	6984489.2362785	6984489.2366844	120.0	3.0	6984491.9015434
714.9482421875	0.0	100	1464214	38	63	180	1	1	6984475.0638999	6984475.0642855	80	6984478.0747232	6984478.0751729	40	6984481.389136	6984481.3897686	100	imm	6984488.7254094	6984489.2362785	6984489.2366844	120.0	3.0	6984491.9015434
722.79443359375	0.0	120	1480283	38	63	180	1	1	6984475.0638999	6984475.0642855	80	6984478.0747232	6984478.0751729	40	6984481.389136	6984481.3897686	100	imm	6984488.7254094	6984489.2362785	6984489.2366844	120.0	3.0	6984491.9015434
727.66748046875	0.0	80	1490263	39	80	490	0	0	6984494.1094382	6984494.1098579	80	6984497.5754323	6984497.5759108	40	6984500.5901789	6984500.5909276	100	imm	6984504.44579	nan	nan	nan	nan	nan
731.1337890625	0.0	40	1497362	39	80	490	0	0	6984494.1094382	6984494.1098579	80	6984497.5754323	6984497.5759108	40	6984500.5901789	6984500.5909276	100	imm	6984504.44579	nan	nan	nan	nan	nan
734.14794921875	0.0	100	1503535	39	80	490	0	0	6984494.1094382	6984494.1098579	80	6984497.5754323	6984497.5759108	40	6984500.5901789	6984500.5909276	100	imm	6984504.44579	nan	nan	nan	nan	nan
740.7509765625	0.0	80	1517058	40	83	100	1	1	6984507.1930103	6984507.1935644	80	6984510.4133768	6984510.4138439	40	6984513.6568756	6984513.6573729	100	del	6984517.4219567	6984517.9314249	6984517.9315956	120.0	3.0	6984519.0539902
743.97119140625	0.0	40	1523653	40	83	100	1	1	6984507.1930103	6984507.1935644	80	6984510.4133768	6984510.4138439	40	6984513.6568756	6984513.6573729	100	del	6984517.4219567	6984517.9314249	6984517.9315956	120.0	3.0	6984519.0539902
747.21484375	0.0	100	1530296	40	83	100	1	1	6984507.1930103	6984507.1935644	80	6984510.4133768	6984510.4138439	40	6984513.6568756	6984513.6573729	100	del	6984517.4219567	6984517.9314249	6984517.9315956	120.0	3.0	6984519.0539902
751.4892578125	0.0	120	1539050	40	83	100	1	1	6984507.1930103	6984507.1935644	80	6984510.4133768	6984510.4138439	40	6984513.6568756	6984513.6573729	100	del	6984517.4219567	6984517.9314249	6984517.9315956	120.0	3.0	6984519.0539902
766.138671875	0.0	80	1569052	41	90	260	0	0	6984532.5815524	6984532.5820099	80	6984535.7503479	6984535.7508327	40	6984539.1540528	6984539.1545051	100	del	6984546.1894027	nan	nan	nan	nan	nan
769.3076171875	0.0	40	1575542	41	90	260	0	0	6984532.5815524	6984532.5820099	80	6984535.7503479	6984535.7508327	40	6984539.1540528	6984539.1545051	100	del	6984546.1894027	nan	nan	nan	nan	nan
772.7109375	0.0	100	1582512	41	90	260	0	0	6984532.5815524	6984532.5820099	80	6984535.7503479	6984535.7508327	40	6984539.1540528	6984539.1545051	100	del	6984546.1894027	nan	nan	nan	nan	nan
782.49951171875	0.0	80	1602559	42	87	140	0	1	6984548.9425568	6984548.9430645	80	6984551.9682091	6984551.9686801	40	6984555.0691561	6984555.0696566	100	na	6984562.0296849	nan	nan	nan	nan	nan
785.52490234375	0.0	40	1608755	42	87	140	0	1	6984548.9425568	6984548.9430645	80	6984551.9682091	6984551.9686801	40	6984555.0691561	6984555.0696566	100	na	6984562.0296849	nan	nan	nan	nan	nan
788.6259765625	0.0	100	1615106	42	87	140	0	1	6984548.9425568	6984548.9430645	80	6984551.9682091	6984551.9686801	40	6984555.0691561	6984555.0696566	100	na	6984562.0296849	nan	nan	nan	nan	nan
798.46484375	0.0	80	1635256	43	50	260	0	0	6984564.9084245	6984564.9089381	80	6984568.1531934	6984568.1536635	40	6984571.243016	6984571.2434841	100	imm	6984575.7741087	nan	nan	nan	nan	nan
801.70947265625	0.0	40	1641901	43	50	260	0	0	6984564.9084245	6984564.9089381	80	6984568.1531934	6984568.1536635	40	6984571.243016	6984571.2434841	100	imm	6984575.7741087	nan	nan	nan	nan	nan
804.79931640625	0.0	100	1648229	43	50	260	0	0	6984564.9084245	6984564.9089381	80	6984568.1531934	6984568.1536635	40	6984571.243016	6984571.2434841	100	imm	6984575.7741087	nan	nan	nan	nan	nan
812.0146484375	0.0	80	1663006	44	93	650	1	1	6984578.4585633	6984578.4587901	80	6984581.7701565	6984581.7706111	40	6984584.8789358	6984584.879424	100	imm	6984588.326068	6984588.8382047	6984588.8385853	120.0	3.0	6984590.069874
815.326171875	0.0	40	1669788	44	93	650	1	1	6984578.4585633	6984578.4587901	80	6984581.7701565	6984581.7706111	40	6984584.8789358	6984584.879424	100	imm	6984588.326068	6984588.8382047	6984588.8385853	120.0	3.0	6984590.069874
818.4345703125	0.0	100	1676154	44	93	650	1	1	6984578.4585633	6984578.4587901	80	6984581.7701565	6984581.7706111	40	6984584.8789358	6984584.879424	100	imm	6984588.326068	6984588.8382047	6984588.8385853	120.0	3.0	6984590.069874
822.39404296875	0.0	120	1684263	44	93	650	1	1	6984578.4585633	6984578.4587901	80	6984581.7701565	6984581.7706111	40	6984584.8789358	6984584.879424	100	imm	6984588.326068	6984588.8382047	6984588.8385853	120.0	3.0	6984590.069874
826.0078125	0.0	80	1691664	45	57	40	0	1	6984592.4523164	6984592.4526442	80	6984595.5812318	6984595.5816229	40	6984599.0537811	6984599.054292	100	imm	6984601.1735783	nan	nan	nan	nan	nan
829.13671875	0.0	40	1698072	45	57	40	0	1	6984592.4523164	6984592.4526442	80	6984595.5812318	6984595.5816229	40	6984599.0537811	6984599.054292	100	imm	6984601.1735783	nan	nan	nan	nan	nan
832.609375	0.0	100	1705184	45	57	40	0	1	6984592.4523164	6984592.4526442	80	6984595.5812318	6984595.5816229	40	6984599.0537811	6984599.054292	100	imm	6984601.1735783	nan	nan	nan	nan	nan
837.38037109375	0.0	80	1714955	46	97	100	1	1	6984603.8251908	6984603.8256377	80	6984607.2154259	6984607.2160781	40	6984610.3232455	6984610.32365	100	imm	6984618.7816977	6984619.2934595	6984619.2939063	120.0	3.0	6984620.1740789
840.7705078125	0.0	40	1721898	46	97	100	1	1	6984603.8251908	6984603.8256377	80	6984607.2154259	6984607.2160781	40	6984610.3232455	6984610.32365	100	imm	6984618.7816977	6984619.2934595	6984619.2939063	120.0	3.0	6984620.1740789
843.87841796875	0.0	100	1728263	46	97	100	1	1	6984603.8251908	6984603.8256377	80	6984607.2154259	6984607.2160781	40	6984610.3232455	6984610.32365	100	imm	6984618.7816977	6984619.2934595	6984619.2939063	120.0	3.0	6984620.1740789
852.84814453125	0.0	120	1746633	46	97	100	1	1	6984603.8251908	6984603.8256377	80	6984607.2154259	6984607.2160781	40	6984610.3232455	6984610.32365	100	imm	6984618.7816977	6984619.2934595	6984619.2939063	120.0	3.0	6984620.1740789
855.8876953125	0.0	80	1752858	47	53	140	0	0	6984622.3330558	6984622.333525	80	6984625.3859716	6984625.3864367	40	6984628.6877028	6984628.6885562	100	na	6984634.1662718	nan	nan	nan	nan	nan
858.9404296875	0.0	40	1759110	47	53	140	0	0	6984622.3330558	6984622.333525	80	6984625.3859716	6984625.3864367	40	6984628.6877028	6984628.6885562	100	na	6984634.1662718	nan	nan	nan	nan	nan
862.2421875	0.0	100	1765872	47	53	140	0	0	6984622.3330558	6984622.333525	80	6984625.3859716	6984625.3864367	40	6984628.6877028	6984628.6885562	100	na	6984634.1662718	nan	nan	nan	nan	nan
870.57763671875	0.0	80	1782943	48	80	40	0	0	6984637.0233652	6984637.0237492	80	6984640.3040415	6984640.3045191	40	6984643.5339586	6984643.5344568	100	del	6984648.6379748	nan	nan	nan	nan	nan
873.8583984375	0.0	40	1789662	48	80	40	0	0	6984637.0233652	6984637.0237492	80	6984640.3040415	6984640.3045191	40	6984643.5339586	6984643.5344568	100	del	6984648.6379748	nan	nan	nan	nan	nan
877.087890625	0.0	100	1796276	48	80	40	0	0	6984637.0233652	6984637.0237492	80	6984640.3040415	6984640.3045191	40	6984643.5339586	6984643.5344568	100	del	6984648.6379748	nan	nan	nan	nan	nan
885.03173828125	0.0	80	1812545	49	70	100	1	0	6984651.4775962	6984651.4782065	80	6984654.8091007	6984654.8096446	40	6984658.1621656	6984658.1626336	100	imm	6984659.7501118	6984660.2602531	6984660.260598	120.0	3.0	6984661.1899978
888.36279296875	0.0	40	1819367	49	70	100	1	0	6984651.4775962	6984651.4782065	80	6984654.8091007	6984654.8096446	40	6984658.1621656	6984658.1626336	100	imm	6984659.7501118	6984660.2602531	6984660.260598	120.0	3.0	6984661.1899978
891.7158203125	0.0	100	1826234	49	70	100	1	0	6984651.4775962	6984651.4782065	80	6984654.8091007	6984654.8096446	40	6984658.1621656	6984658.1626336	100	imm	6984659.7501118	6984660.2602531	6984660.260598	120.0	3.0	6984661.1899978
893.81396484375	0.0	120	1830531	49	70	100	1	0	6984651.4775962	6984651.4782065	80	6984654.8091007	6984654.8096446	40	6984658.1621656	6984658.1626336	100	imm	6984659.7501118	6984660.2602531	6984660.260598	120.0	3.0	6984661.1899978
897.07568359375	0.0	80	1837211	50	97	140	0	1	6984663.5220413	6984663.5226169	80	6984667.0024025	6984667.0028065	40	6984670.1198141	6984670.1202644	100	na	6984674.461829	nan	nan	nan	nan	nan
900.5556640625	0.0	40	1844338	50	97	140	0	1	6984663.5220413	6984663.5226169	80	6984667.0024025	6984667.0028065	40	6984670.1198141	6984670.1202644	100	na	6984674.461829	nan	nan	nan	nan	nan
903.67333984375	0.0	100	1850723	50	97	140	0	1	6984663.5220413	6984663.5226169	80	6984667.0024025	6984667.0028065	40	6984670.1198141	6984670.1202644	100	na	6984674.461829	nan	nan	nan	nan	nan
910.88818359375	0.0	80	1865499	51	57	490	0	0	6984677.3347963	6984677.3353491	80	6984680.461082	6984680.4615706	40	6984683.5351001	6984683.5355409	100	imm	6984684.4463229	nan	nan	nan	nan	nan
914.01416015625	0.0	40	1871901	51	57	490	0	0	6984677.3347963	6984677.3353491	80	6984680.461082	6984680.4615706	40	6984683.5351001	6984683.5355409	100	imm	6984684.4463229	nan	nan	nan	nan	nan
917.08837890625	0.0	100	1878197	51	57	490	0	0	6984677.3347963	6984677.3353491	80	6984680.461082	6984680.4615706	40	6984683.5351001	6984683.5355409	100	imm	6984684.4463229	nan	nan	nan	nan	nan
920.818359375	0.0	80	1885836	52	93	180	1	1	6984687.2653239	6984687.265814	80	6984690.4979684	6984690.4984346	40	6984693.74107	6984693.7415971	100	imm	6984703.5903081	6984704.1014192	6984704.1018303	120.0	3.0	6984705.1973961
924.05078125	0.0	40	1892456	52	93	180	1	1	6984687.2653239	6984687.265814	80	6984690.4979684	6984690.4984346	40	6984693.74107	6984693.7415971	100	imm	6984703.5903081	6984704.1014192	6984704.1018303	120.0	3.0	6984705.1973961
927.2939453125	0.0	100	1899098	52	93	180	1	1	6984687.2653239	6984687.265814	80	6984690.4979684	6984690.4984346	40	6984693.74107	6984693.7415971	100	imm	6984703.5903081	6984704.1014192	6984704.1018303	120.0	3.0	6984705.1973961
937.65380859375	0.0	120	1920315	52	93	180	1	1	6984687.2653239	6984687.265814	80	6984690.4979684	6984690.4984346	40	6984693.74107	6984693.7415971	100	imm	6984703.5903081	6984704.1014192	6984704.1018303	120.0	3.0	6984705.1973961
941.09619140625	0.0	80	1927365	53	97	14	1	1	6984707.5440598	6984707.5445668	80	6984710.9376885	6984710.9383974	40	6984714.1265683	6984714.1270576	100	imm	6984720.1421164	6984720.6527088	6984720.6530129	120.0	3.0	6984721.5820527
944.490234375	0.0	40	1934316	53	97	14	1	1	6984707.5440598	6984707.5445668	80	6984710.9376885	6984710.9383974	40	6984714.1265683	6984714.1270576	100	imm	6984720.1421164	6984720.6527088	6984720.6530129	120.0	3.0	6984721.5820527
947.6787109375	0.0	100	1940846	53	97	14	1	1	6984707.5440598	6984707.5445668	80	6984710.9376885	6984710.9383974	40	6984714.1265683	6984714.1270576	100	imm	6984720.1421164	6984720.6527088	6984720.6530129	120.0	3.0	6984721.5820527
954.20458984375	0.0	120	1954211	53	97	14	1	1	6984707.5440598	6984707.5445668	80	6984710.9376885	6984710.9383974	40	6984714.1265683	6984714.1270576	100	imm	6984720.1421164	6984720.6527088	6984720.6530129	120.0	3.0	6984721.5820527
957.4794921875	0.0	80	1960918	54	80	180	1	1	6984723.9274221	6984723.9279151	80	6984727.1431649	6984727.1436697	40	6984730.5776478	6984730.5781561	100	imm	6984732.2293741	6984732.7369465	6984732.7371064	120.0	3.0	6984733.9981643
960.69482421875	0.0	40	1967503	54	80	180	1	1	6984723.9274221	6984723.9279151	80	6984727.1431649	6984727.1436697	40	6984730.5776478	6984730.5781561	100	imm	6984732.2293741	6984732.7369465	6984732.7371064	120.0	3.0	6984733.9981643
964.12939453125	0.0	100	1974537	54	80	180	1	1	6984723.9274221	6984723.9279151	80	6984727.1431649	6984727.1436697	40	6984730.5776478	6984730.5781561	100	imm	6984732.2293741	6984732.7369465	6984732.7371064	120.0	3.0	6984733.9981643
966.2890625	0.0	120	1978960	54	80	180	1	1	6984723.9274221	6984723.9279151	80	6984727.1431649	6984727.1436697	40	6984730.5776478	6984730.5781561	100	imm	6984732.2293741	6984732.7369465	6984732.7371064	120.0	3.0	6984733.9981643
969.982421875	0.0	80	1986524	55	67	14	1	0	6984736.4310871	6984736.4315865	80	6984739.5672449	6984739.5677704	40	6984742.8873838	6984742.8878395	100	imm	6984745.3341612	6984745.8461901	6984745.8466439	120.0	3.0	6984747.0294161
973.11865234375	0.0	40	1992947	55	67	14	1	0	6984736.4310871	6984736.4315865	80	6984739.5672449	6984739.5677704	40	6984742.8873838	6984742.8878395	100	imm	6984745.3341612	6984745.8461901	6984745.8466439	120.0	3.0	6984747.0294161
976.43896484375	0.0	100	1999747	55	67	14	1	0	6984736.4310871	6984736.4315865	80	6984739.5672449	6984739.5677704	40	6984742.8873838	6984742.8878395	100	imm	6984745.3341612	6984745.8461901	6984745.8466439	120.0	3.0	6984747.0294161
979.3974609375	0.0	120	2005806	55	67	14	1	0	6984736.4310871	6984736.4315865	80	6984739.5672449	6984739.5677704	40	6984742.8873838	6984742.8878395	100	imm	6984745.3341612	6984745.8461901	6984745.8466439	120.0	3.0	6984747.0294161
982.888671875	0.0	80	2012956	56	90	40	0	1	6984749.3374998	6984749.3379957	80	6984752.6155858	6984752.6161817	40	6984756.0634192	6984756.0639001	100	del	6984758.2694743	nan	nan	nan	nan	nan
986.1669921875	0.0	40	2019670	56	90	40	0	1	6984749.3374998	6984749.3379957	80	6984752.6155858	6984752.6161817	40	6984756.0634192	6984756.0639001	100	del	6984758.2694743	nan	nan	nan	nan	nan
989.6142578125	0.0	100	2026730	56	90	40	0	1	6984749.3374998	6984749.3379957	80	6984752.6155858	6984752.6161817	40	6984756.0634192	6984756.0639001	100	del	6984758.2694743	nan	nan	nan	nan	nan
994.47021484375	0.0	80	2036675	57	77	870	0	1	6984760.9192848	6984760.9197699	80	6984764.0858764	6984764.0863771	40	6984767.1583805	6984767.1588859	100	del	6984767.8057775	nan	nan	nan	nan	nan
997.63671875	0.0	40	2043160	57	77	870	0	1	6984760.9192848	6984760.9197699	80	6984764.0858764	6984764.0863771	40	6984767.1583805	6984767.1588859	100	del	6984767.8057775	nan	nan	nan	nan	nan
1000.708984375	0.0	100	2049452	57	77	870	0	1	6984760.9192848	6984760.9197699	80	6984764.0858764	6984764.0863771	40	6984767.1583805	6984767.1588859	100	del	6984767.8057775	nan	nan	nan	nan	nan
1004.34375	0.0	80	2056896	58	77	260	0	1	6984770.7929167	6984770.7934787	80	6984774.1234984	6984774.123978	40	6984777.3761866	6984777.3766912	100	imm	6984780.0536034	nan	nan	nan	nan	nan
1007.673828125	0.0	40	2063716	58	77	260	0	1	6984770.7929167	6984770.7934787	80	6984774.1234984	6984774.123978	40	6984777.3761866	6984777.3766912	100	imm	6984780.0536034	nan	nan	nan	nan	nan
1010.9267578125	0.0	100	2070378	58	77	260	0	1	6984770.7929167	6984770.7934787	80	6984774.1234984	6984774.123978	40	6984777.3761866	6984777.3766912	100	imm	6984780.0536034	nan	nan	nan	nan	nan
1016.4404296875	0.0	80	2081670	59	83	870	0	1	6984782.8903099	6984782.8907815	80	6984786.1703377	6984786.1708147	40	6984789.5071075	6984789.5075665	100	na	6984793.5022885	nan	nan	nan	nan	nan
1019.720703125	0.0	40	2088388	59	83	870	0	1	6984782.8903099	6984782.8907815	80	6984786.1703377	6984786.1708147	40	6984789.5071075	6984789.5075665	100	na	6984793.5022885	nan	nan	nan	nan	nan
1023.05712890625	0.0	100	2095221	59	83	870	0	1	6984782.8903099	6984782.8907815	80	6984786.1703377	6984786.1708147	40	6984789.5071075	6984789.5075665	100	na	6984793.5022885	nan	nan	nan	nan	nan
1029.84130859375	0.0	80	2109115	60	83	140	0	1	6984796.291529	6984796.2920397	80	6984799.6601485	6984799.6606383	40	6984802.9353244	6984802.9358337	100	imm	6984813.2948662	nan	nan	nan	nan	nan
1033.2099609375	0.0	40	2116014	60	83	140	0	1	6984796.291529	6984796.2920397	80	6984799.6601485	6984799.6606383	40	6984802.9353244	6984802.9358337	100	imm	6984813.2948662	nan	nan	nan	nan	nan
1036.48486328125	0.0	100	2122721	60	83	140	0	1	6984796.291529	6984796.2920397	80	6984799.6601485	6984799.6606383	40	6984802.9353244	6984802.9358337	100	imm	6984813.2948662	nan	nan	nan	nan	nan
1054.8837890625	0.0	80	2160402	61	87	870	0	0	6984821.3344285	6984821.3348388	80	6984824.4517205	6984824.4522303	40	6984827.5175228	6984827.5180421	100	del	6984831.5738429	nan	nan	nan	nan	nan
1058.0009765625	0.0	40	2166786	61	87	870	0	0	6984821.3344285	6984821.3348388	80	6984824.4517205	6984824.4522303	40	6984827.5175228	6984827.5180421	100	del	6984831.5738429	nan	nan	nan	nan	nan
1061.06640625	0.0	100	2173064	61	87	870	0	0	6984821.3344285	6984821.3348388	80	6984824.4517205	6984824.4522303	40	6984827.5175228	6984827.5180421	100	del	6984831.5738429	nan	nan	nan	nan	nan
1067.69140625	0.0	80	2186632	62	100	100	1	0	6984834.1427426	6984834.1431171	80	6984837.1802872	6984837.1806384	40	6984840.3957796	6984840.3961795	100	del	6984844.6457199	6984845.1574144	6984845.157867	120.0	3.0	6984846.5578296
1070.72900390625	0.0	40	2192853	62	100	100	1	0	6984834.1427426	6984834.1431171	80	6984837.1802872	6984837.1806384	40	6984840.3957796	6984840.3961795	100	del	6984844.6457199	6984845.1574144	6984845.157867	120.0	3.0	6984846.5578296
1073.9443359375	0.0	100	2199438	62	100	100	1	0	6984834.1427426	6984834.1431171	80	6984837.1802872	6984837.1806384	40	6984840.3957796	6984840.3961795	100	del	6984844.6457199	6984845.1574144	6984845.157867	120.0	3.0	6984846.5578296
1078.7060546875	0.0	120	2209190	62	100	100	1	0	6984834.1427426	6984834.1431171	80	6984837.1802872	6984837.1806384	40	6984840.3957796	6984840.3961795	100	del	6984844.6457199	6984845.1574144	6984845.157867	120.0	3.0	6984846.5578296
1082.34619140625	0.0	80	2216645	63	73	100	1	0	6984848.7979652	6984848.7984278	80	6984851.98937	6984851.9898388	40	6984855.3837455	6984855.3843161	100	del	6984860.8621016	6984861.3740059	6984861.3744905	120.0	3.0	6984862.8700084
1085.53759765625	0.0	40	2223181	63	73	100	1	0	6984848.7979652	6984848.7984278	80	6984851.98937	6984851.9898388	40	6984855.3837455	6984855.3843161	100	del	6984860.8621016	6984861.3740059	6984861.3744905	120.0	3.0	6984862.8700084
1088.93212890625	0.0	100	2230133	63	73	100	1	0	6984848.7979652	6984848.7984278	80	6984851.98937	6984851.9898388	40	6984855.3837455	6984855.3843161	100	del	6984860.8621016	6984861.3740059	6984861.3744905	120.0	3.0	6984862.8700084
1094.92236328125	0.0	120	2242401	63	73	100	1	0	6984848.7979652	6984848.7984278	80	6984851.98937	6984851.9898388	40	6984855.3837455	6984855.3843161	100	del	6984860.8621016	6984861.3740059	6984861.3744905	120.0	3.0	6984862.8700084
1098.74658203125	0.0	80	2250233	64	93	870	0	1	6984865.1984399	6984865.1989062	80	6984868.5931382	6984868.5936198	40	6984872.072839	6984872.0733558	100	na	6984882.1738921	nan	nan	nan	nan	nan
1102.14111328125	0.0	40	2257185	64	93	870	0	1	6984865.1984399	6984865.1989062	80	6984868.5931382	6984868.5936198	40	6984872.072839	6984872.0733558	100	na	6984882.1738921	nan	nan	nan	nan	nan
1105.62060546875	0.0	100	2264311	64	93	870	0	1	6984865.1984399	6984865.1989062	80	6984868.5931382	6984868.5936198	40	6984872.072839	6984872.0733558	100	na	6984882.1738921	nan	nan	nan	nan	nan
1118.7255859375	0.0	80	2291150	65	70	650	1	1	6984885.1781061	6984885.1785984	80	6984888.2803405	6984888.2806933	40	6984891.3639071	6984891.3644057	100	imm	6984895.7255496	6984896.2358648	6984896.2361988	120.0	3.0	6984897.5673915
1121.82763671875	0.0	40	2297503	65	70	650	1	1	6984885.1781061	6984885.1785984	80	6984888.2803405	6984888.2806933	40	6984891.3639071	6984891.3644057	100	imm	6984895.7255496	6984896.2358648	6984896.2361988	120.0	3.0	6984897.5673915
1124.9111328125	0.0	100	2303818	65	70	650	1	1	6984885.1781061	6984885.1785984	80	6984888.2803405	6984888.2806933	40	6984891.3639071	6984891.3644057	100	imm	6984895.7255496	6984896.2358648	6984896.2361988	120.0	3.0	6984897.5673915
1129.78271484375	0.0	120	2313795	65	70	650	1	1	6984885.1781061	6984885.1785984	80	6984888.2803405	6984888.2806933	40	6984891.3639071	6984891.3644057	100	imm	6984895.7255496	6984896.2358648	6984896.2361988	120.0	3.0	6984897.5673915
1133.4765625	0.0	80	2321360	66	67	140	0	1	6984899.9294255	6984899.9298762	80	6984902.984512	6984902.9850132	40	6984906.2602446	6984906.2606978	100	del	6984913.823041	nan	nan	nan	nan	nan
1136.53125	0.0	40	2327616	66	67	140	0	1	6984899.9294255	6984899.9298762	80	6984902.984512	6984902.9850132	40	6984906.2602446	6984906.2606978	100	del	6984913.823041	nan	nan	nan	nan	nan
1139.80712890625	0.0	100	2334325	66	67	140	0	1	6984899.9294255	6984899.9298762	80	6984902.984512	6984902.9850132	40	6984906.2602446	6984906.2606978	100	del	6984913.823041	nan	nan	nan	nan	nan
1150.15185546875	0.0	80	2355511	67	77	40	0	1	6984916.6053177	6984916.6057672	80	6984920.0435205	6984920.0439813	40	6984923.2995733	6984923.3000742	100	del	6984925.9505403	nan	nan	nan	nan	nan
1153.58984375	0.0	40	2362552	67	77	40	0	1	6984916.6053177	6984916.6057672	80	6984920.0435205	6984920.0439813	40	6984923.2995733	6984923.3000742	100	del	6984925.9505403	nan	nan	nan	nan	nan
1156.84619140625	0.0	100	2369221	67	77	40	0	1	6984916.6053177	6984916.6057672	80	6984920.0435205	6984920.0439813	40	6984923.2995733	6984923.3000742	100	del	6984925.9505403	nan	nan	nan	nan	nan
1162.21044921875	0.0	80	2380207	68	80	100	1	0	6984928.6639789	6984928.6643823	80	6984932.0070608	6984932.0075586	40	6984935.3903139	6984935.3907415	100	imm	6984949.3910407	6984949.9015804	6984949.9019684	120.0	3.0	6984951.6621263
1165.55322265625	0.0	40	2387053	68	80	100	1	0	6984928.6639789	6984928.6643823	80	6984932.0070608	6984932.0075586	40	6984935.3903139	6984935.3907415	100	imm	6984949.3910407	6984949.9015804	6984949.9019684	120.0	3.0	6984951.6621263
1168.9365234375	0.0	100	2393982	68	80	100	1	0	6984928.6639789	6984928.6643823	80	6984932.0070608	6984932.0075586	40	6984935.3903139	6984935.3907415	100	imm	6984949.3910407	6984949.9015804	6984949.9019684	120.0	3.0	6984951.6621263
1183.447265625	0.0	120	2423700	68	80	100	1	0	6984928.6639789	6984928.6643823	80	6984932.0070608	6984932.0075586	40	6984935.3903139	6984935.3907415	100	imm	6984949.3910407	6984949.9015804	6984949.9019684	120.0	3.0	6984951.6621263
1187.48291015625	0.0	80	2431965	69	80	14	1	1	6984953.9372665	6984953.9377675	80	6984957.1186727	6984957.1191799	40	6984960.206705	6984960.2072147	100	del	6984976.1101728	6984976.620171	6984976.620631	120.0	3.0	6984977.5821957
1190.6640625	0.0	40	2438480	69	80	14	1	1	6984953.9372665	6984953.9377675	80	6984957.1186727	6984957.1191799	40	6984960.206705	6984960.2072147	100	del	6984976.1101728	6984976.620171	6984976.620631	120.0	3.0	6984977.5821957
1193.751953125	0.0	100	2444804	69	80	14	1	1	6984953.9372665	6984953.9377675	80	6984957.1186727	6984957.1191799	40	6984960.206705	6984960.2072147	100	del	6984976.1101728	6984976.620171	6984976.620631	120.0	3.0	6984977.5821957
1210.1650390625	0.0	120	2478418	69	80	14	1	1	6984953.9372665	6984953.9377675	80	6984957.1186727	6984957.1191799	40	6984960.206705	6984960.2072147	100	del	6984976.1101728	6984976.620171	6984976.620631	120.0	3.0	6984977.5821957
1213.43310546875	0.0	80	2485111	70	53	40	0	0	6984979.8882941	6984979.8887428	80	6984983.0271766	6984983.0276703	40	6984986.0623304	6984986.0627405	100	na	6984991.4865356	nan	nan	nan	nan	nan
1216.57177734375	0.0	40	2491539	70	53	40	0	0	6984979.8882941	6984979.8887428	80	6984983.0271766	6984983.0276703	40	6984986.0623304	6984986.0627405	100	na	6984991.4865356	nan	nan	nan	nan	nan
1219.60693359375	0.0	100	2497755	70	53	40	0	0	6984979.8882941	6984979.8887428	80	6984983.0271766	6984983.0276703	40	6984986.0623304	6984986.0627405	100	na	6984991.4865356	nan	nan	nan	nan	nan
1227.9228515625	0.0	80	2514786	71	67	870	0	1	6984994.3783033	6984994.3786252	80	6984997.5072031	6984997.507648	40	6985000.7424297	6985000.7429524	100	del	6985004.2154771	nan	nan	nan	nan	nan
1231.0517578125	0.0	40	2521194	71	67	870	0	1	6984994.3783033	6984994.3786252	80	6984997.5072031	6984997.507648	40	6985000.7424297	6985000.7429524	100	del	6985004.2154771	nan	nan	nan	nan	nan
1234.28662109375	0.0	100	2527819	71	67	870	0	1	6984994.3783033	6984994.3786252	80	6984997.5072031	6984997.507648	40	6985000.7424297	6985000.7429524	100	del	6985004.2154771	nan	nan	nan	nan	nan
1240.6201171875	0.0	80	2540790	72	63	260	0	0	6985007.0761516	6985007.0767383	80	6985010.2634403	6985010.2639115	40	6985013.6444897	6985013.6449968	100	del	6985019.2140953	nan	nan	nan	nan	nan
1243.8076171875	0.0	40	2547318	72	63	260	0	0	6985007.0761516	6985007.0767383	80	6985010.2634403	6985010.2639115	40	6985013.6444897	6985013.6449968	100	del	6985019.2140953	nan	nan	nan	nan	nan
1247.1884765625	0.0	100	2554242	72	63	260	0	0	6985007.0761516	6985007.0767383	80	6985010.2634403	6985010.2639115	40	6985013.6444897	6985013.6449968	100	del	6985019.2140953	nan	nan	nan	nan	nan
1255.4716796875	0.0	80	2571206	73	57	100	1	0	6985021.9278582	6985021.9282937	80	6985025.2769305	6985025.2774162	40	6985028.6420939	6985028.6426232	100	del	6985034.4380802	6985034.9482556	6985034.948666	120.0	3.0	6985037.0625293
1258.8203125	0.0	40	2578064	73	57	100	1	0	6985021.9278582	6985021.9282937	80	6985025.2769305	6985025.2774162	40	6985028.6420939	6985028.6426232	100	del	6985034.4380802	6985034.9482556	6985034.948666	120.0	3.0	6985037.0625293
1262.185546875	0.0	100	2584956	73	57	100	1	0	6985021.9278582	6985021.9282937	80	6985025.2769305	6985025.2774162	40	6985028.6420939	6985028.6426232	100	del	6985034.4380802	6985034.9482556	6985034.948666	120.0	3.0	6985037.0625293
1268.49169921875	0.0	120	2597871	73	57	100	1	0	6985021.9278582	6985021.9282937	80	6985025.2769305	6985025.2774162	40	6985028.6420939	6985028.6426232	100	del	6985034.4380802	6985034.9482556	6985034.948666	120.0	3.0	6985037.0625293
1272.841796875	0.0	80	2606780	74	93	490	0	1	6985039.298446	6985039.2989677	80	6985042.3156109	6985042.3160143	40	6985045.4939459	6985045.494459	100	del	6985054.0939925	nan	nan	nan	nan	nan
1275.85888671875	0.0	40	2612959	74	93	490	0	1	6985039.298446	6985039.2989677	80	6985042.3156109	6985042.3160143	40	6985045.4939459	6985045.494459	100	del	6985054.0939925	nan	nan	nan	nan	nan
1279.037109375	0.0	100	2619468	74	93	490	0	1	6985039.298446	6985039.2989677	80	6985042.3156109	6985042.3160143	40	6985045.4939459	6985045.494459	100	del	6985054.0939925	nan	nan	nan	nan	nan
1290.3662109375	0.0	80	2642670	75	67	490	0	0	6985056.8235939	6985056.8240652	80	6985059.9667246	6985059.9671904	40	6985063.0781555	6985063.078676	100	na	6985068.7105511	nan	nan	nan	nan	nan
1293.50927734375	0.0	40	2649107	75	67	490	0	0	6985056.8235939	6985056.8240652	80	6985059.9667246	6985059.9671904	40	6985063.0781555	6985063.078676	100	na	6985068.7105511	nan	nan	nan	nan	nan
1296.62060546875	0.0	100	2655479	75	67	490	0	0	6985056.8235939	6985056.8240652	80	6985059.9667246	6985059.9671904	40	6985063.0781555	6985063.078676	100	na	6985068.7105511	nan	nan	nan	nan	nan
1305.181640625	0.0	80	2673012	76	77	14	1	1	6985071.639452	6985071.6399407	80	6985074.8619913	6985074.8625638	40	6985078.3187619	6985078.3192711	100	del	6985082.8947111	6985083.406262	6985083.4067607	120.0	3.0	6985085.0943907
1308.404296875	0.0	40	2679612	76	77	14	1	1	6985071.639452	6985071.6399407	80	6985074.8619913	6985074.8625638	40	6985078.3187619	6985078.3192711	100	del	6985082.8947111	6985083.406262	6985083.4067607	120.0	3.0	6985085.0943907
1311.86083984375	0.0	100	2686691	76	77	14	1	1	6985071.639452	6985071.6399407	80	6985074.8619913	6985074.8625638	40	6985078.3187619	6985078.3192711	100	del	6985082.8947111	6985083.406262	6985083.4067607	120.0	3.0	6985085.0943907
1316.9482421875	0.0	120	2697110	76	77	14	1	1	6985071.639452	6985071.6399407	80	6985074.8619913	6985074.8625638	40	6985078.3187619	6985078.3192711	100	del	6985082.8947111	6985083.406262	6985083.4067607	120.0	3.0	6985085.0943907
1320.84619140625	0.0	80	2705093	77	60	180	1	0	6985087.3042348	6985087.3046807	80	6985090.6962167	6985090.6966894	40	6985093.9076065	6985093.9080925	100	del	6985103.1826889	6985103.6940134	6985103.6944494	120.0	3.0	6985105.6466803
1324.23779296875	0.0	40	2712039	77	60	180	1	0	6985087.3042348	6985087.3046807	80	6985090.6962167	6985090.6966894	40	6985093.9076065	6985093.9080925	100	del	6985103.1826889	6985103.6940134	6985103.6944494	120.0	3.0	6985105.6466803
1327.44921875	0.0	100	2718616	77	60	180	1	0	6985087.3042348	6985087.3046807	80	6985090.6962167	6985090.6966894	40	6985093.9076065	6985093.9080925	100	del	6985103.1826889	6985103.6940134	6985103.6944494	120.0	3.0	6985105.6466803
1337.2353515625	0.0	120	2738658	77	60	180	1	0	6985087.3042348	6985087.3046807	80	6985090.6962167	6985090.6966894	40	6985093.9076065	6985093.9080925	100	del	6985103.1826889	6985103.6940134	6985103.6944494	120.0	3.0	6985105.6466803
1341.6064453125	0.0	80	2747610	78	73	180	1	0	6985108.0653297	6985108.0657738	80	6985111.4502792	6985111.4508214	40	6985114.651957	6985114.6524263	100	del	6985120.9021523	6985121.4119052	6985121.412233	120.0	3.0	6985122.3500653
1344.99169921875	0.0	40	2754543	78	73	180	1	0	6985108.0653297	6985108.0657738	80	6985111.4502792	6985111.4508214	40	6985114.651957	6985114.6524263	100	del	6985120.9021523	6985121.4119052	6985121.412233	120.0	3.0	6985122.3500653
1348.19287109375	0.0	100	2761099	78	73	180	1	0	6985108.0653297	6985108.0657738	80	6985111.4502792	6985111.4508214	40	6985114.651957	6985114.6524263	100	del	6985120.9021523	6985121.4119052	6985121.412233	120.0	3.0	6985122.3500653
1354.95263671875	0.0	120	2774943	78	73	180	1	0	6985108.0653297	6985108.0657738	80	6985111.4502792	6985111.4508214	40	6985114.651957	6985114.6524263	100	del	6985120.9021523	6985121.4119052	6985121.412233	120.0	3.0	6985122.3500653
1358.013671875	0.0	80	2781212	79	87	365	1	1	6985124.4727709	6985124.4735363	80	6985127.8758364	6985127.8763194	40	6985131.3638811	6985131.3642794	100	del	6985134.5341696	6985135.0469706	6985135.0474522	120.0	3.0	6985137.9740202
1361.41650390625	0.0	40	2788181	79	87	365	1	1	6985124.4727709	6985124.4735363	80	6985127.8758364	6985127.8763194	40	6985131.3638811	6985131.3642794	100	del	6985134.5341696	6985135.0469706	6985135.0474522	120.0	3.0	6985137.9740202
1364.90478515625	0.0	100	2795325	79	87	365	1	1	6985124.4727709	6985124.4735363	80	6985127.8758364	6985127.8763194	40	6985131.3638811	6985131.3642794	100	del	6985134.5341696	6985135.0469706	6985135.0474522	120.0	3.0	6985137.9740202
1368.58740234375	0.0	120	2802867	79	87	365	1	1	6985124.4727709	6985124.4735363	80	6985127.8758364	6985127.8763194	40	6985131.3638811	6985131.3642794	100	del	6985134.5341696	6985135.0469706	6985135.0474522	120.0	3.0	6985137.9740202
1373.69189453125	0.0	80	2813321	80	50	365	1	1	6985140.1514154	6985140.1519064	80	6985143.4947576	6985143.4952238	40	6985146.7273848	6985146.7278348	100	del	6985154.7577781	6985155.2705201	6985155.2709621	120.0	3.0	6985156.0866472
1377.03515625	0.0	40	2820168	80	50	365	1	1	6985140.1514154	6985140.1519064	80	6985143.4947576	6985143.4952238	40	6985146.7273848	6985146.7278348	100	del	6985154.7577781	6985155.2705201	6985155.2709621	120.0	3.0	6985156.0866472
1380.267578125	0.0	100	2826788	80	50	365	1	1	6985140.1514154	6985140.1519064	80	6985143.4947576	6985143.4952238	40	6985146.7273848	6985146.7278348	100	del	6985154.7577781	6985155.2705201	6985155.2709621	120.0	3.0	6985156.0866472
1388.810546875	0.0	120	2844284	80	50	365	1	1	6985140.1514154	6985140.1519064	80	6985143.4947576	6985143.4952238	40	6985146.7273848	6985146.7278348	100	del	6985154.7577781	6985155.2705201	6985155.2709621	120.0	3.0	6985156.0866472
1396.271484375	0.0	80	2859564	81	67	365	1	1	6985162.7316301	6985162.7321205	80	6985166.123612	6985166.1241239	40	6985169.220159	6985169.2206739	100	del	6985173.8458989	6985174.3580462	6985174.3584899	120.0	3.0	6985175.9101268
1399.6630859375	0.0	40	2866510	81	67	365	1	1	6985162.7316301	6985162.7321205	80	6985166.123612	6985166.1241239	40	6985169.220159	6985169.2206739	100	del	6985173.8458989	6985174.3580462	6985174.3584899	120.0	3.0	6985175.9101268
1402.759765625	0.0	100	2872852	81	67	365	1	1	6985162.7316301	6985162.7321205	80	6985166.123612	6985166.1241239	40	6985169.220159	6985169.2206739	100	del	6985173.8458989	6985174.3580462	6985174.3584899	120.0	3.0	6985175.9101268
1407.8974609375	0.0	120	2883374	81	67	365	1	1	6985162.7316301	6985162.7321205	80	6985166.123612	6985166.1241239	40	6985169.220159	6985169.2206739	100	del	6985173.8458989	6985174.3580462	6985174.3584899	120.0	3.0	6985175.9101268
1411.89599609375	0.0	80	2891563	82	93	365	1	0	6985178.3567985	6985178.3572889	80	6985181.8591928	6985181.8596768	40	6985185.128221	6985185.1286827	100	del	6985192.5823439	6985193.0927868	6985193.0932158	120.0	3.0	6985194.5681077
1415.3984375	0.0	40	2898736	82	93	365	1	0	6985178.3567985	6985178.3572889	80	6985181.8591928	6985181.8596768	40	6985185.128221	6985185.1286827	100	del	6985192.5823439	6985193.0927868	6985193.0932158	120.0	3.0	6985194.5681077
1418.66748046875	0.0	100	2905431	82	93	365	1	0	6985178.3567985	6985178.3572889	80	6985181.8591928	6985181.8596768	40	6985185.128221	6985185.1286827	100	del	6985192.5823439	6985193.0927868	6985193.0932158	120.0	3.0	6985194.5681077
1426.6318359375	0.0	120	2921742	82	93	365	1	0	6985178.3567985	6985178.3572889	80	6985181.8591928	6985181.8596768	40	6985185.128221	6985185.1286827	100	del	6985192.5823439	6985193.0927868	6985193.0932158	120.0	3.0	6985194.5681077
1430.56298828125	0.0	80	2929793	83	100	140	0	1	6985197.0242303	6985197.0246488	80	6985200.3257884	6985200.326209	40	6985203.4161438	6985203.4166698	100	na	6985207.9266442	nan	nan	nan	nan	nan
1433.86474609375	0.0	40	2936555	83	100	140	0	1	6985197.0242303	6985197.0246488	80	6985200.3257884	6985200.326209	40	6985203.4161438	6985203.4166698	100	na	6985207.9266442	nan	nan	nan	nan	nan
1436.955078125	0.0	100	2942884	83	100	140	0	1	6985197.0242303	6985197.0246488	80	6985200.3257884	6985200.326209	40	6985203.4161438	6985203.4166698	100	na	6985207.9266442	nan	nan	nan	nan	nan
1444.08203125	0.0	80	2957480	84	83	14	1	0	6985210.543422	6985210.5438556	80	6985213.7544513	6985213.7548703	40	6985217.1418552	6985217.1423357	100	imm	6985218.6703598	6985219.1797624	6985219.1801179	120.0	2.0	6985220.5978722
1447.29296875	0.0	40	2964056	84	83	14	1	0	6985210.543422	6985210.5438556	80	6985213.7544513	6985213.7548703	40	6985217.1418552	6985217.1423357	100	imm	6985218.6703598	6985219.1797624	6985219.1801179	120.0	2.0	6985220.5978722
1450.68017578125	0.0	100	2970993	84	83	14	1	0	6985210.543422	6985210.5438556	80	6985213.7544513	6985213.7548703	40	6985217.1418552	6985217.1423357	100	imm	6985218.6703598	6985219.1797624	6985219.1801179	120.0	2.0	6985220.5978722
1452.7177734375	0.0	120	2975166	84	83	14	1	0	6985210.543422	6985210.5438556	80	6985213.7544513	6985213.7548703	40	6985217.1418552	6985217.1423357	100	imm	6985218.6703598	6985219.1797624	6985219.1801179	120.0	2.0	6985220.5978722
1456.564453125	0.0	80	2983044	85	83	40	0	1	6985223.0263175	6985223.0267818	80	6985226.4298876	6985226.4303369	40	6985229.6024473	6985229.6029637	100	imm	6985237.7034607	nan	nan	nan	nan	nan
1459.9677734375	0.0	40	2990014	85	83	40	0	1	6985223.0263175	6985223.0267818	80	6985226.4298876	6985226.4303369	40	6985229.6024473	6985229.6029637	100	imm	6985237.7034607	nan	nan	nan	nan	nan
1463.140625	0.0	100	2996512	85	83	40	0	1	6985223.0263175	6985223.0267818	80	6985226.4298876	6985226.4303369	40	6985229.6024473	6985229.6029637	100	imm	6985237.7034607	nan	nan	nan	nan	nan
1474.02490234375	0.0	80	3018803	86	60	870	0	1	6985240.4870717	6985240.4875121	80	6985243.5389657	6985243.5393723	40	6985246.6063962	6985246.6068451	100	imm	6985249.0460467	nan	nan	nan	nan	nan
1477.07666015625	0.0	40	3025053	86	60	870	0	1	6985240.4870717	6985240.4875121	80	6985243.5389657	6985243.5393723	40	6985246.6063962	6985246.6068451	100	imm	6985249.0460467	nan	nan	nan	nan	nan
1480.14404296875	0.0	100	3031335	86	60	870	0	1	6985240.4870717	6985240.4875121	80	6985243.5389657	6985243.5393723	40	6985246.6063962	6985246.6068451	100	imm	6985249.0460467	nan	nan	nan	nan	nan
1485.16845703125	0.0	80	3041625	87	70	180	1	0	6985251.6312779	6985251.6317394	80	6985254.9785966	6985254.9790448	40	6985258.2394427	6985258.2399908	100	del	6985267.8395863	6985268.3485533	6985268.3489173	120.0	3.0	6985271.2301534
1488.515625	0.0	40	3048480	87	70	180	1	0	6985251.6312779	6985251.6317394	80	6985254.9785966	6985254.9790448	40	6985258.2394427	6985258.2399908	100	del	6985267.8395863	6985268.3485533	6985268.3489173	120.0	3.0	6985271.2301534
1491.77685546875	0.0	100	3055159	87	70	180	1	0	6985251.6312779	6985251.6317394	80	6985254.9785966	6985254.9790448	40	6985258.2394427	6985258.2399908	100	del	6985267.8395863	6985268.3485533	6985268.3489173	120.0	3.0	6985271.2301534
1501.88525390625	0.0	120	3075861	87	70	180	1	0	6985251.6312779	6985251.6317394	80	6985254.9785966	6985254.9790448	40	6985258.2394427	6985258.2399908	100	del	6985267.8395863	6985268.3485533	6985268.3489173	120.0	3.0	6985271.2301534
1506.87548828125	0.0	80	3086081	88	50	650	1	1	6985273.3385852	6985273.3390286	80	6985276.5937084	6985276.5941014	40	6985279.6806535	6985279.6811775	100	del	6985283.0716419	6985283.5813153	6985283.5816636	120.0	2.0	6985284.6154042
1510.13037109375	0.0	40	3092747	88	50	650	1	1	6985273.3385852	6985273.3390286	80	6985276.5937084	6985276.5941014	40	6985279.6806535	6985279.6811775	100	del	6985283.0716419	6985283.5813153	6985283.5816636	120.0	2.0	6985284.6154042
1513.21728515625	0.0	100	3099069	88	50	650	1	1	6985273.3385852	6985273.3390286	80	6985276.5937084	6985276.5941014	40	6985279.6806535	6985279.6811775	100	del	6985283.0716419	6985283.5813153	6985283.5816636	120.0	2.0	6985284.6154042
1517.11767578125	0.0	120	3107057	88	50	650	1	1	6985273.3385852	6985273.3390286	80	6985276.5937084	6985276.5941014	40	6985279.6806535	6985279.6811775	100	del	6985283.0716419	6985283.5813153	6985283.5816636	120.0	2.0	6985284.6154042
1520.1943359375	0.0	80	3113358	89	87	650	1	0	6985286.657987	6985286.6584508	80	6985290.0908472	6985290.091338	40	6985293.3875652	6985293.3881135	100	imm	6985302.0062427	6985302.5163062	6985302.5166226	120.0	3.0	6985305.2141787
1523.626953125	0.0	40	3120388	89	87	650	1	0	6985286.657987	6985286.6584508	80	6985290.0908472	6985290.091338	40	6985293.3875652	6985293.3881135	100	imm	6985302.0062427	6985302.5163062	6985302.5166226	120.0	3.0	6985305.2141787
1526.923828125	0.0	100	3127140	89	87	650	1	0	6985286.657987	6985286.6584508	80	6985290.0908472	6985290.091338	40	6985293.3875652	6985293.3881135	100	imm	6985302.0062427	6985302.5163062	6985302.5166226	120.0	3.0	6985305.2141787
1536.05224609375	0.0	120	3145835	89	87	650	1	0	6985286.657987	6985286.6584508	80	6985290.0908472	6985290.091338	40	6985293.3875652	6985293.3881135	100	imm	6985302.0062427	6985302.5163062	6985302.5166226	120.0	3.0	6985305.2141787
1541.2294921875	0.0	80	3156438	90	93	40	0	0	6985307.6936363	6985307.6940994	80	6985311.0493705	6985311.049857	40	6985314.3541639	6985314.354671	100	imm	6985320.3900337	nan	nan	nan	nan	nan
1544.5849609375	0.0	40	3163310	90	93	40	0	0	6985307.6936363	6985307.6940994	80	6985311.0493705	6985311.049857	40	6985314.3541639	6985314.354671	100	imm	6985320.3900337	nan	nan	nan	nan	nan
1547.8896484375	0.0	100	3170078	90	93	40	0	0	6985307.6936363	6985307.6940994	80	6985311.0493705	6985311.049857	40	6985314.3541639	6985314.354671	100	imm	6985320.3900337	nan	nan	nan	nan	nan
1556.8505859375	0.0	80	3188430	91	67	260	0	1	6985323.3150416	6985323.315524	80	6985326.7619427	6985326.7624586	40	6985330.2705686	6985330.2709821	100	del	6985334.1264364	nan	nan	nan	nan	nan
1560.29736328125	0.0	40	3195489	91	67	260	0	1	6985323.3150416	6985323.315524	80	6985326.7619427	6985326.7624586	40	6985330.2705686	6985330.2709821	100	del	6985334.1264364	nan	nan	nan	nan	nan
1563.8056640625	0.0	100	3202674	91	67	260	0	1	6985323.3150416	6985323.315524	80	6985326.7619427	6985326.7624586	40	6985330.2705686	6985330.2709821	100	del	6985334.1264364	nan	nan	nan	nan	nan
1570.1787109375	0.0	80	3215726	92	57	14	1	0	6985336.6435153	6985336.6440349	80	6985340.0841223	6985340.0845463	40	6985343.4037247	6985343.4042392	100	del	6985346.3580738	6985346.8673967	6985346.867679	120.0	3.0	6985347.903776
1573.619140625	0.0	40	3222772	92	57	14	1	0	6985336.6435153	6985336.6440349	80	6985340.0841223	6985340.0845463	40	6985343.4037247	6985343.4042392	100	del	6985346.3580738	6985346.8673967	6985346.867679	120.0	3.0	6985347.903776
1576.9384765625	0.0	100	3229570	92	57	14	1	0	6985336.6435153	6985336.6440349	80	6985340.0841223	6985340.0845463	40	6985343.4037247	6985343.4042392	100	del	6985346.3580738	6985346.8673967	6985346.867679	120.0	3.0	6985347.903776
1580.40185546875	0.0	120	3236663	92	57	14	1	0	6985336.6435153	6985336.6440349	80	6985340.0841223	6985340.0845463	40	6985343.4037247	6985343.4042392	100	del	6985346.3580738	6985346.8673967	6985346.867679	120.0	3.0	6985347.903776
1583.953125	0.0	80	3243936	93	100	40	0	0	6985350.4183185	6985350.4187443	80	6985353.6888892	6985353.6893054	40	6985356.9378074	6985356.9381682	100	imm	6985365.8703846	nan	nan	nan	nan	nan
1587.22314453125	0.0	40	3250633	93	100	40	0	0	6985350.4183185	6985350.4187443	80	6985353.6888892	6985353.6893054	40	6985356.9378074	6985356.9381682	100	imm	6985365.8703846	nan	nan	nan	nan	nan
1590.47216796875	0.0	100	3257287	93	100	40	0	0	6985350.4183185	6985350.4187443	80	6985353.6888892	6985353.6893054	40	6985356.9378074	6985356.9381682	100	imm	6985365.8703846	nan	nan	nan	nan	nan
1602.322265625	0.0	80	3281556	94	77	490	0	0	6985368.7880416	6985368.7885081	80	6985371.9093974	6985371.9098732	40	6985375.1712637	6985375.1717378	100	del	6985376.118236	nan	nan	nan	nan	nan
1605.443359375	0.0	40	3287948	94	77	490	0	0	6985368.7880416	6985368.7885081	80	6985371.9093974	6985371.9098732	40	6985375.1712637	6985375.1717378	100	del	6985376.118236	nan	nan	nan	nan	nan
1608.705078125	0.0	100	3294628	94	77	490	0	0	6985368.7880416	6985368.7885081	80	6985371.9093974	6985371.9098732	40	6985375.1712637	6985375.1717378	100	del	6985376.118236	nan	nan	nan	nan	nan
1612.6201171875	0.0	80	3302646	95	60	260	0	0	6985379.0862862	6985379.0867429	80	6985382.3811435	6985382.3816256	40	6985385.81698	6985385.8174844	100	del	6985387.1983629	nan	nan	nan	nan	nan
1615.9150390625	0.0	40	3309394	95	60	260	0	0	6985379.0862862	6985379.0867429	80	6985382.3811435	6985382.3816256	40	6985385.81698	6985385.8174844	100	del	6985387.1983629	nan	nan	nan	nan	nan
1619.3505859375	0.0	100	3316430	95	60	260	0	0	6985379.0862862	6985379.0867429	80	6985382.3811435	6985382.3816256	40	6985385.81698	6985385.8174844	100	del	6985387.1983629	nan	nan	nan	nan	nan
1623.61474609375	0.0	80	3325163	96	50	140	0	0	6985390.0815255	6985390.0818693	80	6985393.3807847	6985393.381147	40	6985396.5163248	6985396.5167826	100	del	6985397.4624797	nan	nan	nan	nan	nan
1626.9140625	0.0	40	3331920	96	50	140	0	0	6985390.0815255	6985390.0818693	80	6985393.3807847	6985393.381147	40	6985396.5163248	6985396.5167826	100	del	6985397.4624797	nan	nan	nan	nan	nan
1630.0498046875	0.0	100	3338342	96	50	140	0	0	6985390.0815255	6985390.0818693	80	6985393.3807847	6985393.381147	40	6985396.5163248	6985396.5167826	100	del	6985397.4624797	nan	nan	nan	nan	nan
1633.84619140625	0.0	80	3346117	97	87	100	1	0	6985400.3127781	6985400.3132852	80	6985403.3622806	6985403.362768	40	6985406.6882175	6985406.688618	100	del	6985409.1107778	6985409.6203201	6985409.6206769	120.0	3.0	6985410.7660879
1636.8955078125	0.0	40	3352362	97	87	100	1	0	6985400.3127781	6985400.3132852	80	6985403.3622806	6985403.362768	40	6985406.6882175	6985406.688618	100	del	6985409.1107778	6985409.6203201	6985409.6206769	120.0	3.0	6985410.7660879
1640.22119140625	0.0	100	3359173	97	87	100	1	0	6985400.3127781	6985400.3132852	80	6985403.3622806	6985403.362768	40	6985406.6882175	6985406.688618	100	del	6985409.1107778	6985409.6203201	6985409.6206769	120.0	3.0	6985410.7660879
1643.1533203125	0.0	120	3365178	97	87	100	1	0	6985400.3127781	6985400.3132852	80	6985403.3622806	6985403.362768	40	6985406.6882175	6985406.688618	100	del	6985409.1107778	6985409.6203201	6985409.6206769	120.0	3.0	6985410.7660879
1646.6416015625	0.0	80	3372322	98	90	100	1	0	6985413.1086826	6985413.109024	80	6985416.4808218	6985416.4812994	40	6985419.9391093	6985419.93973	100	del	6985428.4220761	6985428.9335609	6985428.9340029	120.0	3.0	6985430.3103678
1650.013671875	0.0	40	3379228	98	90	100	1	0	6985413.1086826	6985413.109024	80	6985416.4808218	6985416.4812994	40	6985419.9391093	6985419.93973	100	del	6985428.4220761	6985428.9335609	6985428.9340029	120.0	3.0	6985430.3103678
1653.47216796875	0.0	100	3386311	98	90	100	1	0	6985413.1086826	6985413.109024	80	6985416.4808218	6985416.4812994	40	6985419.9391093	6985419.93973	100	del	6985428.4220761	6985428.9335609	6985428.9340029	120.0	3.0	6985430.3103678
1662.4658203125	0.0	120	3404730	98	90	100	1	0	6985413.1086826	6985413.109024	80	6985416.4808218	6985416.4812994	40	6985419.9391093	6985419.93973	100	del	6985428.4220761	6985428.9335609	6985428.9340029	120.0	3.0	6985430.3103678
1666.34765625	0.0	80	3412680	99	70	490	0	0	6985432.8152265	6985432.8156747	80	6985436.2074608	6985436.2079493	40	6985439.5098303	6985439.5102907	100	imm	6985444.0383078	nan	nan	nan	nan	nan
1669.73974609375	0.0	40	3419627	99	70	490	0	0	6985432.8152265	6985432.8156747	80	6985436.2074608	6985436.2079493	40	6985439.5098303	6985439.5102907	100	imm	6985444.0383078	nan	nan	nan	nan	nan
1673.0419921875	0.0	100	3426390	99	70	490	0	0	6985432.8152265	6985432.8156747	80	6985436.2074608	6985436.2079493	40	6985439.5098303	6985439.5102907	100	imm	6985444.0383078	nan	nan	nan	nan	nan
1680.55078125	0.0	80	3441768	100	73	365	1	1	6985447.0190046	6985447.0196254	80	6985450.3166644	6985450.3171387	40	6985453.3356703	6985453.3360808	100	del	6985456.8639644	6985457.3760439	6985457.3765011	120.0	3.0	6985459.950307
1683.8486328125	0.0	40	3448522	100	73	365	1	1	6985447.0190046	6985447.0196254	80	6985450.3166644	6985450.3171387	40	6985453.3356703	6985453.3360808	100	del	6985456.8639644	6985457.3760439	6985457.3765011	120.0	3.0	6985459.950307
1686.86767578125	0.0	100	3454705	100	73	365	1	1	6985447.0190046	6985447.0196254	80	6985450.3166644	6985450.3171387	40	6985453.3356703	6985453.3360808	100	del	6985456.8639644	6985457.3760439	6985457.3765011	120.0	3.0	6985459.950307
1690.90771484375	0.0	120	3462979	100	73	365	1	1	6985447.0190046	6985447.0196254	80	6985450.3166644	6985450.3171387	40	6985453.3356703	6985453.3360808	100	del	6985456.8639644	6985457.3760439	6985457.3765011	120.0	3.0	6985459.950307
1699.17724609375	0.0	80	3479915	101	50	100	1	0	6985465.6458784	6985465.6463083	80	6985469.0847776	6985469.0853026	40	6985472.3402781	6985472.3407605	100	del	6985473.6946043	6985474.2059646	6985474.2063942	120.0	3.0	6985475.118965
1702.6162109375	0.0	40	3486958	101	50	100	1	0	6985465.6458784	6985465.6463083	80	6985469.0847776	6985469.0853026	40	6985472.3402781	6985472.3407605	100	del	6985473.6946043	6985474.2059646	6985474.2063942	120.0	3.0	6985475.118965
1705.87158203125	0.0	100	3493625	101	50	100	1	0	6985465.6458784	6985465.6463083	80	6985469.0847776	6985469.0853026	40	6985472.3402781	6985472.3407605	100	del	6985473.6946043	6985474.2059646	6985474.2063942	120.0	3.0	6985475.118965
1707.7373046875	0.0	120	3497446	101	50	100	1	0	6985465.6458784	6985465.6463083	80	6985469.0847776	6985469.0853026	40	6985472.3402781	6985472.3407605	100	del	6985473.6946043	6985474.2059646	6985474.2063942	120.0	3.0	6985475.118965
1711.08447265625	0.0	80	3504301	102	73	260	0	1	6985477.5535829	6985477.5538791	80	6985480.6663028	6985480.6668876	40	6985483.9542381	6985483.9547149	100	na	6985491.8782239	nan	nan	nan	nan	nan
1714.197265625	0.0	40	3510676	102	73	260	0	1	6985477.5535829	6985477.5538791	80	6985480.6663028	6985480.6668876	40	6985483.9542381	6985483.9547149	100	na	6985491.8782239	nan	nan	nan	nan	nan
1717.4853515625	0.0	100	3517410	102	73	260	0	1	6985477.5535829	6985477.5538791	80	6985480.6663028	6985480.6668876	40	6985483.9542381	6985483.9547149	100	na	6985491.8782239	nan	nan	nan	nan	nan
1728.2392578125	0.0	80	3539434	103	67	40	0	1	6985494.708602	6985494.7090503	80	6985497.7328704	6985497.7333382	40	6985501.0530031	6985501.0534721	100	del	6985506.7431199	nan	nan	nan	nan	nan
1731.26318359375	0.0	40	3545627	103	67	40	0	1	6985494.708602	6985494.7090503	80	6985497.7328704	6985497.7333382	40	6985501.0530031	6985501.0534721	100	del	6985506.7431199	nan	nan	nan	nan	nan
1734.58349609375	0.0	100	3552427	103	67	40	0	1	6985494.708602	6985494.7090503	80	6985497.7328704	6985497.7333382	40	6985501.0530031	6985501.0534721	100	del	6985506.7431199	nan	nan	nan	nan	nan
1742.9755859375	0.0	80	3569614	104	90	870	0	1	6985509.4451458	6985509.4456656	80	6985512.4773222	6985512.4778107	40	6985515.7354481	6985515.7359318	100	imm	6985524.4542554	nan	nan	nan	nan	nan
1746.00732421875	0.0	40	3575823	104	90	870	0	1	6985509.4451458	6985509.4456656	80	6985512.4773222	6985512.4778107	40	6985515.7354481	6985515.7359318	100	imm	6985524.4542554	nan	nan	nan	nan	nan
1749.265625	0.0	100	3582496	104	90	870	0	1	6985509.4451458	6985509.4456656	80	6985512.4773222	6985512.4778107	40	6985515.7354481	6985515.7359318	100	imm	6985524.4542554	nan	nan	nan	nan	nan
1760.59716796875	0.0	80	3605703	105	90	14	1	1	6985527.0674591	6985527.0679681	80	6985530.136712	6985530.1372517	40	6985533.2522879	6985533.252745	100	imm	6985537.6465082	6985538.158128	6985538.1586191	120.0	3.0	6985541.1424576
1763.66650390625	0.0	40	3611989	105	90	14	1	1	6985527.0674591	6985527.0679681	80	6985530.136712	6985530.1372517	40	6985533.2522879	6985533.252745	100	imm	6985537.6465082	6985538.158128	6985538.1586191	120.0	3.0	6985541.1424576
1766.78173828125	0.0	100	3618369	105	90	14	1	1	6985527.0674591	6985527.0679681	80	6985530.136712	6985530.1372517	40	6985533.2522879	6985533.252745	100	imm	6985537.6465082	6985538.158128	6985538.1586191	120.0	3.0	6985541.1424576
1771.6875	0.0	120	3628416	105	90	14	1	1	6985527.0674591	6985527.0679681	80	6985530.136712	6985530.1372517	40	6985533.2522879	6985533.252745	100	imm	6985537.6465082	6985538.158128	6985538.1586191	120.0	3.0	6985541.1424576
1776.75830078125	0.0	80	3638801	106	53	14	1	0	6985543.2290366	6985543.2295255	80	6985546.3310174	6985546.3315177	40	6985549.3652468	6985549.3657302	100	del	6985550.894502	6985551.4047261	6985551.4050463	120.0	3.0	6985552.246504
1779.8603515625	0.0	40	3645154	106	53	14	1	0	6985543.2290366	6985543.2295255	80	6985546.3310174	6985546.3315177	40	6985549.3652468	6985549.3657302	100	del	6985550.894502	6985551.4047261	6985551.4050463	120.0	3.0	6985552.246504
1782.89453125	0.0	100	3651368	106	53	14	1	0	6985543.2290366	6985543.2295255	80	6985546.3310174	6985546.3315177	40	6985549.3652468	6985549.3657302	100	del	6985550.894502	6985551.4047261	6985551.4050463	120.0	3.0	6985552.246504
1784.93359375	0.0	120	3655544	106	53	14	1	0	6985543.2290366	6985543.2295255	80	6985546.3310174	6985546.3315177	40	6985549.3652468	6985549.3657302	100	del	6985550.894502	6985551.4047261	6985551.4050463	120.0	3.0	6985552.246504
1788.10498046875	0.0	80	3662039	107	63	870	0	0	6985554.5759598	6985554.5763014	80	6985557.7244596	6985557.7249426	40	6985561.0069202	6985561.0074844	100	del	6985565.486489	nan	nan	nan	nan	nan
1791.25341796875	0.0	40	3668487	107	63	870	0	0	6985554.5759598	6985554.5763014	80	6985557.7244596	6985557.7249426	40	6985561.0069202	6985561.0074844	100	del	6985565.486489	nan	nan	nan	nan	nan
1794.53564453125	0.0	100	3675209	107	63	870	0	0	6985554.5759598	6985554.5763014	80	6985557.7244596	6985557.7249426	40	6985561.0069202	6985561.0074844	100	del	6985565.486489	nan	nan	nan	nan	nan
1801.8798828125	0.0	80	3690250	108	50	14	1	1	6985568.3510893	6985568.3515894	80	6985571.6086685	6985571.6092227	40	6985574.8893962	6985574.8899351	100	del	6985583.6390184	6985584.1500454	6985584.1504143	120.0	3.0	6985584.9347396
1805.13720703125	0.0	40	3696921	108	50	14	1	1	6985568.3510893	6985568.3515894	80	6985571.6086685	6985571.6092227	40	6985574.8893962	6985574.8899351	100	del	6985583.6390184	6985584.1500454	6985584.1504143	120.0	3.0	6985584.9347396
1808.41796875	0.0	100	3703640	108	50	14	1	1	6985568.3510893	6985568.3515894	80	6985571.6086685	6985571.6092227	40	6985574.8893962	6985574.8899351	100	del	6985583.6390184	6985584.1500454	6985584.1504143	120.0	3.0	6985584.9347396
1817.67822265625	0.0	120	3722605	108	50	14	1	1	6985568.3510893	6985568.3515894	80	6985571.6086685	6985571.6092227	40	6985574.8893962	6985574.8899351	100	del	6985583.6390184	6985584.1500454	6985584.1504143	120.0	3.0	6985584.9347396
1820.70068359375	0.0	80	3728795	109	100	260	0	1	6985587.1728022	6985587.1732748	80	6985590.2422169	6985590.2427103	40	6985593.5001704	6985593.5007011	100	imm	6985597.7424125	nan	nan	nan	nan	nan
1823.77001953125	0.0	40	3735081	109	100	260	0	1	6985587.1728022	6985587.1732748	80	6985590.2422169	6985590.2427103	40	6985593.5001704	6985593.5007011	100	imm	6985597.7424125	nan	nan	nan	nan	nan
1827.02783203125	0.0	100	3741753	109	100	260	0	1	6985587.1728022	6985587.1732748	80	6985590.2422169	6985590.2427103	40	6985593.5001704	6985593.5007011	100	imm	6985597.7424125	nan	nan	nan	nan	nan
1834.2109375	0.0	80	3756464	110	90	650	1	0	6985600.6833183	6985600.6836126	80	6985604.127874	6985604.128363	40	6985607.2760721	6985607.2765554	100	imm	6985610.9344582	6985611.4476653	6985611.4481145	120.0	3.0	6985612.2545905
1837.6552734375	0.0	40	3763518	110	90	650	1	0	6985600.6833183	6985600.6836126	80	6985604.127874	6985604.128363	40	6985607.2760721	6985607.2765554	100	imm	6985610.9344582	6985611.4476653	6985611.4481145	120.0	3.0	6985612.2545905
1840.8037109375	0.0	100	3769966	110	90	650	1	0	6985600.6833183	6985600.6836126	80	6985604.127874	6985604.128363	40	6985607.2760721	6985607.2765554	100	imm	6985610.9344582	6985611.4476653	6985611.4481145	120.0	3.0	6985612.2545905
1844.97509765625	0.0	120	3778509	110	90	650	1	0	6985600.6833183	6985600.6836126	80	6985604.127874	6985604.128363	40	6985607.2760721	6985607.2765554	100	imm	6985610.9344582	6985611.4476653	6985611.4481145	120.0	3.0	6985612.2545905
1847.900390625	0.0	80	3784500	111	60	650	1	1	6985614.3731562	6985614.3735758	80	6985617.6632691	6985617.6637681	40	6985620.9965793	6985620.9970316	100	del	6985628.0872378	6985628.5982356	6985628.5985951	120.0	3.0	6985629.3042166
1851.1904296875	0.0	40	3791238	111	60	650	1	1	6985614.3731562	6985614.3735758	80	6985617.6632691	6985617.6637681	40	6985620.9965793	6985620.9970316	100	del	6985628.0872378	6985628.5982356	6985628.5985951	120.0	3.0	6985629.3042166
1854.52392578125	0.0	100	3798065	111	60	650	1	1	6985614.3731562	6985614.3735758	80	6985617.6632691	6985617.6637681	40	6985620.9965793	6985620.9970316	100	del	6985628.0872378	6985628.5982356	6985628.5985951	120.0	3.0	6985629.3042166
1862.125	0.0	120	3813632	111	60	650	1	1	6985614.3731562	6985614.3735758	80	6985617.6632691	6985617.6637681	40	6985620.9965793	6985620.9970316	100	del	6985628.0872378	6985628.5982356	6985628.5985951	120.0	3.0	6985629.3042166
1865.0546875	0.0	80	3819632	112	77	180	1	0	6985631.5276733	6985631.5280914	80	6985634.6379159	6985634.6383833	40	6985638.124744	6985638.1252528	100	del	6985640.1030621	6985640.6141238	6985640.6146674	120.0	4.0	6985641.4143426
1868.16455078125	0.0	40	3826001	112	77	180	1	0	6985631.5276733	6985631.5280914	80	6985634.6379159	6985634.6383833	40	6985638.124744	6985638.1252528	100	del	6985640.1030621	6985640.6141238	6985640.6146674	120.0	4.0	6985641.4143426
1871.6513671875	0.0	100	3833142	112	77	180	1	0	6985631.5276733	6985631.5280914	80	6985634.6379159	6985634.6383833	40	6985638.124744	6985638.1252528	100	del	6985640.1030621	6985640.6141238	6985640.6146674	120.0	4.0	6985641.4143426
1874.140625	0.0	120	3838240	112	77	180	1	0	6985631.5276733	6985631.5280914	80	6985634.6379159	6985634.6383833	40	6985638.124744	6985638.1252528	100	del	6985640.1030621	6985640.6141238	6985640.6146674	120.0	4.0	6985641.4143426
1876.99609375	0.0	80	3844088	113	93	260	0	0	6985643.469787	6985643.4702504	80	6985646.5301077	6985646.5305464	40	6985649.6141302	6985649.6146473	100	imm	6985654.4152306	nan	nan	nan	nan	nan
1880.056640625	0.0	40	3850356	113	93	260	0	0	6985643.469787	6985643.4702504	80	6985646.5301077	6985646.5305464	40	6985649.6141302	6985649.6146473	100	imm	6985654.4152306	nan	nan	nan	nan	nan
1883.140625	0.0	100	3856672	113	93	260	0	0	6985643.469787	6985643.4702504	80	6985646.5301077	6985646.5305464	40	6985649.6141302	6985649.6146473	100	imm	6985654.4152306	nan	nan	nan	nan	nan
1890.5419921875	0.0	80	3871830	114	97	490	0	0	6985657.0158044	6985657.0161967	80	6985660.3337717	6985660.3342701	40	6985663.6336583	6985663.6340727	100	na	6985671.5505522	nan	nan	nan	nan	nan
1893.85986328125	0.0	40	3878625	114	97	490	0	0	6985657.0158044	6985657.0161967	80	6985660.3337717	6985660.3342701	40	6985663.6336583	6985663.6340727	100	na	6985671.5505522	nan	nan	nan	nan	nan
1897.15966796875	0.0	100	3885383	114	97	490	0	0	6985657.0158044	6985657.0161967	80	6985660.3337717	6985660.3342701	40	6985663.6336583	6985663.6340727	100	na	6985671.5505522	nan	nan	nan	nan	nan
1907.61865234375	0.0	80	3906803	115	63	14	1	0	6985674.0931812	6985674.0936801	80	6985677.5664836	6985677.5669367	40	6985680.9439872	6985680.944443	100	del	6985683.5589368	6985684.0684725	6985684.0687793	120.0	3.0	6985685.1263428
1911.09228515625	0.0	40	3913917	115	63	14	1	0	6985674.0931812	6985674.0936801	80	6985677.5664836	6985677.5669367	40	6985680.9439872	6985680.944443	100	del	6985683.5589368	6985684.0684725	6985684.0687793	120.0	3.0	6985685.1263428
1914.46923828125	0.0	100	3920833	115	63	14	1	0	6985674.0931812	6985674.0936801	80	6985677.5664836	6985677.5669367	40	6985680.9439872	6985680.944443	100	del	6985683.5589368	6985684.0684725	6985684.0687793	120.0	3.0	6985685.1263428
1917.59375	0.0	120	3927232	115	63	14	1	0	6985674.0931812	6985674.0936801	80	6985677.5664836	6985677.5669367	40	6985680.9439872	6985680.944443	100	del	6985683.5589368	6985684.0684725	6985684.0687793	120.0	3.0	6985685.1263428
1921.037109375	0.0	80	3934284	116	60	365	1	1	6985687.5116064	6985687.5120955	80	6985690.5507434	6985690.5512069	40	6985693.9934236	6985693.9938773	100	del	6985695.8077649	6985696.3169828	6985696.317346	120.0	3.0	6985697.3190414
1924.076171875	0.0	40	3940508	116	60	365	1	1	6985687.5116064	6985687.5120955	80	6985690.5507434	6985690.5512069	40	6985693.9934236	6985693.9938773	100	del	6985695.8077649	6985696.3169828	6985696.317346	120.0	3.0	6985697.3190414
1927.5185546875	0.0	100	3947558	116	60	365	1	1	6985687.5116064	6985687.5120955	80	6985690.5507434	6985690.5512069	40	6985693.9934236	6985693.9938773	100	del	6985695.8077649	6985696.3169828	6985696.317346	120.0	3.0	6985697.3190414
1929.841796875	0.0	120	3952316	116	60	365	1	1	6985687.5116064	6985687.5120955	80	6985690.5507434	6985690.5512069	40	6985693.9934236	6985693.9938773	100	del	6985695.8077649	6985696.3169828	6985696.317346	120.0	3.0	6985697.3190414
1933.326171875	0.0	80	3959452	117	90	140	0	1	6985699.8011651	6985699.8015969	80	6985703.3009272	6985703.3013158	40	6985706.7432081	6985706.7436971	100	imm	6985717.7831979	nan	nan	nan	nan	nan
1936.82568359375	0.0	40	3966619	117	90	140	0	1	6985699.8011651	6985699.8015969	80	6985703.3009272	6985703.3013158	40	6985706.7432081	6985706.7436971	100	imm	6985717.7831979	nan	nan	nan	nan	nan
1940.26806640625	0.0	100	3973669	117	90	140	0	1	6985699.8011651	6985699.8015969	80	6985703.3009272	6985703.3013158	40	6985706.7432081	6985706.7436971	100	imm	6985717.7831979	nan	nan	nan	nan	nan
1954.216796875	0.0	80	4002236	118	90	490	0	0	6985720.6925695	6985720.6930481	80	6985723.9569726	6985723.9574166	40	6985727.0591321	6985727.0596146	100	imm	6985728.2312872	nan	nan	nan	nan	nan
1957.4814453125	0.0	40	4008922	118	90	490	0	0	6985720.6925695	6985720.6930481	80	6985723.9569726	6985723.9574166	40	6985727.0591321	6985727.0596146	100	imm	6985728.2312872	nan	nan	nan	nan	nan
1960.58349609375	0.0	100	4015275	118	90	490	0	0	6985720.6925695	6985720.6930481	80	6985723.9569726	6985723.9574166	40	6985727.0591321	6985727.0596146	100	imm	6985728.2312872	nan	nan	nan	nan	nan
1964.4716796875	0.0	80	4023238	119	53	365	1	1	6985730.9476376	6985730.9480853	80	6985734.0218696	6985734.0222654	40	6985737.047303	6985737.0476783	100	del	6985739.6793073	6985740.1913401	6985740.1918111	120.0	3.0	6985741.0628538
1967.5458984375	0.0	40	4029534	119	53	365	1	1	6985730.9476376	6985730.9480853	80	6985734.0218696	6985734.0222654	40	6985737.047303	6985737.0476783	100	del	6985739.6793073	6985740.1913401	6985740.1918111	120.0	3.0	6985741.0628538
1970.5712890625	0.0	100	4035730	119	53	365	1	1	6985730.9476376	6985730.9480853	80	6985734.0218696	6985734.0222654	40	6985737.047303	6985737.0476783	100	del	6985739.6793073	6985740.1913401	6985740.1918111	120.0	3.0	6985741.0628538
1973.71533203125	0.0	120	4042169	119	53	365	1	1	6985730.9476376	6985730.9480853	80	6985734.0218696	6985734.0222654	40	6985737.047303	6985737.0476783	100	del	6985739.6793073	6985740.1913401	6985740.1918111	120.0	3.0	6985741.0628538
1977.0703125	0.0	80	4049040	120	97	260	0	0	6985743.5466736	6985743.5471275	80	6985746.705202	6985746.7057001	40	6985749.8657433	6985749.8662046	100	imm	6985750.5118884	nan	nan	nan	nan	nan
1980.22900390625	0.0	40	4055509	120	97	260	0	0	6985743.5466736	6985743.5471275	80	6985746.705202	6985746.7057001	40	6985749.8657433	6985749.8662046	100	imm	6985750.5118884	nan	nan	nan	nan	nan
1983.38916015625	0.0	100	4061981	120	97	260	0	0	6985743.5466736	6985743.5471275	80	6985746.705202	6985746.7057001	40	6985749.8657433	6985749.8662046	100	imm	6985750.5118884	nan	nan	nan	nan	nan
1992.9208984375	0.0	80	4081502	121	57	650	1	1	6985759.3975747	6985759.3980365	80	6985762.6387045	6985762.6392012	40	6985765.9768017	6985765.9772826	100	imm	6985767.0144922	6985767.5278637	6985767.5283448	120.0	3.0	6985769.3753316
1996.162109375	0.0	40	4088140	121	57	650	1	1	6985759.3975747	6985759.3980365	80	6985762.6387045	6985762.6392012	40	6985765.9768017	6985765.9772826	100	imm	6985767.0144922	6985767.5278637	6985767.5283448	120.0	3.0	6985769.3753316
1999.5	0.0	100	4094976	121	57	650	1	1	6985759.3975747	6985759.3980365	80	6985762.6387045	6985762.6392012	40	6985765.9768017	6985765.9772826	100	imm	6985767.0144922	6985767.5278637	6985767.5283448	120.0	3.0	6985769.3753316
2001.05078125	0.0	120	4098152	121	57	650	1	1	6985759.3975747	6985759.3980365	80	6985762.6387045	6985762.6392012	40	6985765.9768017	6985765.9772826	100	imm	6985767.0144922	6985767.5278637	6985767.5283448	120.0	3.0	6985769.3753316
2004.92578125	0.0	80	4106088	122	57	260	0	1	6985771.4026365	6985771.4030908	80	6985774.8306938	6985774.831085	40	6985778.1237352	6985778.1241958	100	del	6985784.5028928	nan	nan	nan	nan	nan
2008.353515625	0.0	40	4113108	122	57	260	0	1	6985771.4026365	6985771.4030908	80	6985774.8306938	6985774.831085	40	6985778.1237352	6985778.1241958	100	del	6985784.5028928	nan	nan	nan	nan	nan
2011.646484375	0.0	100	4119852	122	57	260	0	1	6985771.4026365	6985771.4030908	80	6985774.8306938	6985774.831085	40	6985778.1237352	6985778.1241958	100	del	6985784.5028928	nan	nan	nan	nan	nan
2020.96923828125	0.0	80	4138945	123	50	40	0	0	6985787.4466511	6985787.4471329	80	6985790.6278485	6985790.6283162	40	6985793.8659424	6985793.8665379	100	del	6985794.8945367	nan	nan	nan	nan	nan
2024.150390625	0.0	40	4145460	123	50	40	0	0	6985787.4466511	6985787.4471329	80	6985790.6278485	6985790.6283162	40	6985793.8659424	6985793.8665379	100	del	6985794.8945367	nan	nan	nan	nan	nan
2027.38818359375	0.0	100	4152091	123	50	40	0	0	6985787.4466511	6985787.4471329	80	6985790.6278485	6985790.6283162	40	6985793.8659424	6985793.8665379	100	del	6985794.8945367	nan	nan	nan	nan	nan
2030.9580078125	0.0	80	4159402	124	63	490	0	0	6985797.4356933	6985797.4359968	80	6985800.5317704	6985800.5322613	40	6985803.8757492	6985803.8762456	100	imm	6985809.830873	nan	nan	nan	nan	nan
2034.0537109375	0.0	40	4165742	124	63	490	0	0	6985797.4356933	6985797.4359968	80	6985800.5317704	6985800.5322613	40	6985803.8757492	6985803.8762456	100	imm	6985809.830873	nan	nan	nan	nan	nan
2037.39794921875	0.0	100	4172591	124	63	490	0	0	6985797.4356933	6985797.4359968	80	6985800.5317704	6985800.5322613	40	6985803.8757492	6985803.8762456	100	imm	6985809.830873	nan	nan	nan	nan	nan
2046.03515625	0.0	80	4190280	125	60	14	1	0	6985812.5131476	6985812.5135519	80	6985815.9694576	6985815.9699483	40	6985819.0412361	6985819.0417507	100	del	6985825.2146526	6985825.7238783	6985825.7242006	120.0	3.0	6985826.7348875
2049.4912109375	0.0	40	4197358	125	60	14	1	0	6985812.5131476	6985812.5135519	80	6985815.9694576	6985815.9699483	40	6985819.0412361	6985819.0417507	100	del	6985825.2146526	6985825.7238783	6985825.7242006	120.0	3.0	6985826.7348875
2052.56298828125	0.0	100	4203649	125	60	14	1	0	6985812.5131476	6985812.5135519	80	6985815.9694576	6985815.9699483	40	6985819.0412361	6985819.0417507	100	del	6985825.2146526	6985825.7238783	6985825.7242006	120.0	3.0	6985826.7348875
2059.2451171875	0.0	120	4217334	125	60	14	1	0	6985812.5131476	6985812.5135519	80	6985815.9694576	6985815.9699483	40	6985819.0412361	6985819.0417507	100	del	6985825.2146526	6985825.7238783	6985825.7242006	120.0	3.0	6985826.7348875
2062.76416015625	0.0	80	4224541	126	73	40	0	1	6985829.2427255	6985829.2433702	80	6985832.5205491	6985832.521048	40	6985835.8905766	6985835.891173	100	imm	6985841.7826129	nan	nan	nan	nan	nan
2066.0419921875	0.0	40	4231254	126	73	40	0	1	6985829.2427255	6985829.2433702	80	6985832.5205491	6985832.521048	40	6985835.8905766	6985835.891173	100	imm	6985841.7826129	nan	nan	nan	nan	nan
2069.412109375	0.0	100	4238156	126	73	40	0	1	6985829.2427255	6985829.2433702	80	6985832.5205491	6985832.521048	40	6985835.8905766	6985835.891173	100	imm	6985841.7826129	nan	nan	nan	nan	nan
2078.31982421875	0.0	80	4256399	127	50	490	0	0	6985844.7987464	6985844.7991154	80	6985847.9499787	6985847.9504475	40	6985851.1699829	6985851.1705295	100	del	6985852.5508213	nan	nan	nan	nan	nan
2081.470703125	0.0	40	4262852	127	50	490	0	0	6985844.7987464	6985844.7991154	80	6985847.9499787	6985847.9504475	40	6985851.1699829	6985851.1705295	100	del	6985852.5508213	nan	nan	nan	nan	nan
2084.69091796875	0.0	100	4269447	127	50	490	0	0	6985844.7987464	6985844.7991154	80	6985847.9499787	6985847.9504475	40	6985851.1699829	6985851.1705295	100	del	6985852.5508213	nan	nan	nan	nan	nan
2088.81884765625	0.0	80	4277901	128	70	14	1	0	6985855.2984684	6985855.2988501	80	6985858.6879167	6985858.6884149	40	6985862.1102638	6985862.1107565	100	imm	6985865.534991	6985866.0468711	6985866.0473143	120.0	3.0	6985866.903535
2092.20849609375	0.0	40	4284843	128	70	14	1	0	6985855.2984684	6985855.2988501	80	6985858.6879167	6985858.6884149	40	6985862.1102638	6985862.1107565	100	imm	6985865.534991	6985866.0468711	6985866.0473143	120.0	3.0	6985866.903535
2095.630859375	0.0	100	4291852	128	70	14	1	0	6985855.2984684	6985855.2988501	80	6985858.6879167	6985858.6884149	40	6985862.1102638	6985862.1107565	100	imm	6985865.534991	6985866.0468711	6985866.0473143	120.0	3.0	6985866.903535
2099.5673828125	0.0	120	4299914	128	70	14	1	0	6985855.2984684	6985855.2988501	80	6985858.6879167	6985858.6884149	40	6985862.1102638	6985862.1107565	100	imm	6985865.534991	6985866.0468711	6985866.0473143	120.0	3.0	6985866.903535
2102.48828125	0.0	80	4305896	129	87	40	0	1	6985868.9681435	6985868.9686063	80	6985872.0647733	6985872.0652767	40	6985875.2579429	6985875.2583815	100	imm	6985877.3675234	nan	nan	nan	nan	nan
2105.5849609375	0.0	40	4312238	129	87	40	0	1	6985868.9681435	6985868.9686063	80	6985872.0647733	6985872.0652767	40	6985875.2579429	6985875.2583815	100	imm	6985877.3675234	nan	nan	nan	nan	nan
2108.77783203125	0.0	100	4318777	129	87	40	0	1	6985868.9681435	6985868.9686063	80	6985872.0647733	6985872.0652767	40	6985875.2579429	6985875.2583815	100	imm	6985877.3675234	nan	nan	nan	nan	nan
2113.4326171875	0.0	80	4328310	130	87	260	0	0	6985879.9127926	6985879.9132549	80	6985883.1813392	6985883.1819116	40	6985886.3625355	6985886.3630327	100	imm	6985888.3346267	nan	nan	nan	nan	nan
2116.701171875	0.0	40	4335004	130	87	260	0	0	6985879.9127926	6985879.9132549	80	6985883.1813392	6985883.1819116	40	6985886.3625355	6985886.3630327	100	imm	6985888.3346267	nan	nan	nan	nan	nan
2119.88232421875	0.0	100	4341519	130	87	260	0	0	6985879.9127926	6985879.9132549	80	6985883.1813392	6985883.1819116	40	6985886.3625355	6985886.3630327	100	imm	6985888.3346267	nan	nan	nan	nan	nan
2124.4599609375	0.0	80	4350894	131	67	650	1	1	6985890.9403342	6985890.9408143	80	6985894.0527713	6985894.0533124	40	6985897.5186349	6985897.519152	100	del	6985903.35905	6985903.8681493	6985903.8685419	120.0	3.0	6985904.7266215
2127.572265625	0.0	40	4357268	131	67	650	1	1	6985890.9403342	6985890.9408143	80	6985894.0527713	6985894.0533124	40	6985897.5186349	6985897.519152	100	del	6985903.35905	6985903.8681493	6985903.8685419	120.0	3.0	6985904.7266215
2131.0380859375	0.0	100	4364366	131	67	650	1	1	6985890.9403342	6985890.9408143	80	6985894.0527713	6985894.0533124	40	6985897.5186349	6985897.519152	100	del	6985903.35905	6985903.8681493	6985903.8685419	120.0	3.0	6985904.7266215
2137.38720703125	0.0	120	4377369	131	67	650	1	1	6985890.9403342	6985890.9408143	80	6985894.0527713	6985894.0533124	40	6985897.5186349	6985897.519152	100	del	6985903.35905	6985903.8681493	6985903.8685419	120.0	3.0	6985904.7266215
2140.59814453125	0.0	80	4383945	132	53	180	1	0	6985907.0789085	6985907.0794037	80	6985910.320686	6985910.3211601	40	6985913.7901882	6985913.7906006	100	del	6985916.8956025	6985917.4073161	6985917.4077525	120.0	4.0	6985918.9923629
2143.83984375	0.0	40	4390584	132	53	180	1	0	6985907.0789085	6985907.0794037	80	6985910.320686	6985910.3211601	40	6985913.7901882	6985913.7906006	100	del	6985916.8956025	6985917.4073161	6985917.4077525	120.0	4.0	6985918.9923629
2147.30908203125	0.0	100	4397689	132	53	180	1	0	6985907.0789085	6985907.0794037	80	6985910.320686	6985910.3211601	40	6985913.7901882	6985913.7906006	100	del	6985916.8956025	6985917.4073161	6985917.4077525	120.0	4.0	6985918.9923629
2150.92626953125	0.0	120	4405097	132	53	180	1	0	6985907.0789085	6985907.0794037	80	6985910.320686	6985910.3211601	40	6985913.7901882	6985913.7906006	100	del	6985916.8956025	6985917.4073161	6985917.4077525	120.0	4.0	6985918.9923629
2154.5791015625	0.0	80	4412578	133	80	870	0	1	6985921.0602932	6985921.0607227	80	6985924.4405568	6985924.4410455	40	6985927.8182694	6985927.818602	100	na	6985938.0548205	nan	nan	nan	nan	nan
2157.95947265625	0.0	40	4419501	133	80	870	0	1	6985921.0602932	6985921.0607227	80	6985924.4405568	6985924.4410455	40	6985927.8182694	6985927.818602	100	na	6985938.0548205	nan	nan	nan	nan	nan
2161.3369140625	0.0	100	4426418	133	80	870	0	1	6985921.0602932	6985921.0607227	80	6985924.4405568	6985924.4410455	40	6985927.8182694	6985927.818602	100	na	6985938.0548205	nan	nan	nan	nan	nan
2174.373046875	0.0	80	4453116	134	77	365	1	1	6985940.8545748	6985940.855052	80	6985943.9541266	6985943.9545769	40	6985947.2660889	6985947.2665621	100	del	6985949.7035297	6985950.2145432	6985950.2149331	120.0	3.0	6985952.0307545
2177.47216796875	0.0	40	4459463	134	77	365	1	1	6985940.8545748	6985940.855052	80	6985943.9541266	6985943.9545769	40	6985947.2660889	6985947.2665621	100	del	6985949.7035297	6985950.2145432	6985950.2149331	120.0	3.0	6985952.0307545
2180.7841796875	0.0	100	4466246	134	77	365	1	1	6985940.8545748	6985940.855052	80	6985943.9541266	6985943.9545769	40	6985947.2660889	6985947.2665621	100	del	6985949.7035297	6985950.2145432	6985950.2149331	120.0	3.0	6985952.0307545
2183.732421875	0.0	120	4472284	134	77	365	1	1	6985940.8545748	6985940.855052	80	6985943.9541266	6985943.9545769	40	6985947.2660889	6985947.2665621	100	del	6985949.7035297	6985950.2145432	6985950.2149331	120.0	3.0	6985952.0307545
2187.7138671875	0.0	80	4480438	135	93	14	1	0	6985954.1961506	6985954.1966463	80	6985957.2706415	6985957.2710515	40	6985960.3901816	6985960.390679	100	imm	6985961.1829288	6985961.6941241	6985961.6945845	120.0	2.0	6985962.2720817
2190.78857421875	0.0	40	4486735	135	93	14	1	0	6985954.1961506	6985954.1966463	80	6985957.2706415	6985957.2710515	40	6985960.3901816	6985960.390679	100	imm	6985961.1829288	6985961.6941241	6985961.6945845	120.0	2.0	6985962.2720817
2193.90771484375	0.0	100	4493123	135	93	14	1	0	6985954.1961506	6985954.1966463	80	6985957.2706415	6985957.2710515	40	6985960.3901816	6985960.390679	100	imm	6985961.1829288	6985961.6941241	6985961.6945845	120.0	2.0	6985962.2720817
2195.2119140625	0.0	120	4495794	135	93	14	1	0	6985954.1961506	6985954.1966463	80	6985957.2706415	6985957.2710515	40	6985960.3901816	6985960.390679	100	imm	6985961.1829288	6985961.6941241	6985961.6945845	120.0	2.0	6985962.2720817
2198.2548828125	0.0	80	4502026	136	53	870	0	1	6985964.7371391	6985964.7376935	80	6985967.7808388	6985967.7813398	40	6985970.915308	6985970.9158232	100	del	6985978.8708147	nan	nan	nan	nan	nan
