onset	duration	value	sample	trial_idx	val	del	is_cued	rev_opts	del_pres_displaytime	del_pres_triggertime	del_pres_triggercode	val_pres_displaytime	val_pres_triggertime	val_pres_triggercode	choice_displaytime	choice_triggertime	choice_triggercode	choice	choice_time	viv	viv_time	viv_displaytime	viv_triggertime	viv_triggercode
30.37353515625	0.0	80	62205	1	87	420	0	0	1074049.3303869	1074049.3309199	80	1074052.5880461	1074052.5885084	40	1074055.8645503	1074055.8650262	100	del	1074057.5940584	nan	nan	nan	nan	nan
33.63134765625	0.0	40	68877	1	87	420	0	0	1074049.3303869	1074049.3309199	80	1074052.5880461	1074052.5885084	40	1074055.8645503	1074055.8650262	100	del	1074057.5940584	nan	nan	nan	nan	nan
36.90771484375	0.0	100	75587	1	87	420	0	0	1074049.3303869	1074049.3309199	80	1074052.5880461	1074052.5885084	40	1074055.8645503	1074055.8650262	100	del	1074057.5940584	nan	nan	nan	nan	nan
41.62548828125	0.0	80	85249	2	93	60	1	0	1074060.5827139	1074060.5831216	80	1074063.785104	1074063.7856393	40	1074066.8585646	1074066.859088	100	del	1074069.5381888	2.0	1074072.529897	1074070.0589399	1074070.0595068	120.0
44.828125	0.0	40	91808	2	93	60	1	0	1074060.5827139	1074060.5831216	80	1074063.785104	1074063.7856393	40	1074066.8585646	1074066.859088	100	del	1074069.5381888	2.0	1074072.529897	1074070.0589399	1074070.0595068	120.0
47.9013671875	0.0	100	98102	2	93	60	1	0	1074060.5827139	1074060.5831216	80	1074063.785104	1074063.7856393	40	1074066.8585646	1074066.859088	100	del	1074069.5381888	2.0	1074072.529897	1074070.0589399	1074070.0595068	120.0
51.1015625	0.0	120	104656	2	93	60	1	0	1074060.5827139	1074060.5831216	80	1074063.785104	1074063.7856393	40	1074066.8585646	1074066.859088	100	del	1074069.5381888	2.0	1074072.529897	1074070.0589399	1074070.0595068	120.0
55.70458984375	0.0	80	114083	3	53	20	0	1	1074074.6621075	1074074.6623994	80	1074078.0121392	1074078.0126461	40	1074081.4454806	1074081.4459851	100	del	1074083.7602913	nan	nan	nan	nan	nan
59.0546875	0.0	40	120944	3	53	20	0	1	1074074.6621075	1074074.6623994	80	1074078.0121392	1074078.0126461	40	1074081.4454806	1074081.4459851	100	del	1074083.7602913	nan	nan	nan	nan	nan
62.48779296875	0.0	100	127975	3	53	20	0	1	1074074.6621075	1074074.6623994	80	1074078.0121392	1074078.0126461	40	1074081.4454806	1074081.4459851	100	del	1074083.7602913	nan	nan	nan	nan	nan
67.80517578125	0.0	80	138865	4	57	110	0	1	1074086.7627384	1074086.7632469	80	1074089.8777994	1074089.8782781	40	1074093.2714933	1074093.2720213	100	imm	1074094.0970513	nan	nan	nan	nan	nan
70.919921875	0.0	40	145244	4	57	110	0	1	1074086.7627384	1074086.7632469	80	1074089.8777994	1074089.8782781	40	1074093.2714933	1074093.2720213	100	imm	1074094.0970513	nan	nan	nan	nan	nan
74.3134765625	0.0	100	152194	4	57	110	0	1	1074086.7627384	1074086.7632469	80	1074089.8777994	1074089.8782781	40	1074093.2714933	1074093.2720213	100	imm	1074094.0970513	nan	nan	nan	nan	nan
77.951171875	0.0	80	159644	5	67	720	1	1	1074096.9089614	1074096.9094711	80	1074100.1183855	1074100.1188324	40	1074103.3871727	1074103.3876996	100	imm	1074104.2969015	3.0	1074106.0809782	1074104.8079768	1074104.8084017	120.0
81.16015625	0.0	40	166216	5	67	720	1	1	1074096.9089614	1074096.9094711	80	1074100.1183855	1074100.1188324	40	1074103.3871727	1074103.3876996	100	imm	1074104.2969015	3.0	1074106.0809782	1074104.8079768	1074104.8084017	120.0
84.42919921875	0.0	100	172911	5	67	720	1	1	1074096.9089614	1074096.9094711	80	1074100.1183855	1074100.1188324	40	1074103.3871727	1074103.3876996	100	imm	1074104.2969015	3.0	1074106.0809782	1074104.8079768	1074104.8084017	120.0
85.849609375	0.0	120	175820	5	67	720	1	1	1074096.9089614	1074096.9094711	80	1074100.1183855	1074100.1188324	40	1074103.3871727	1074103.3876996	100	imm	1074104.2969015	3.0	1074106.0809782	1074104.8079768	1074104.8084017	120.0
89.38037109375	0.0	80	183051	6	100	210	0	1	1074108.3388333	1074108.3391521	80	1074111.6712726	1074111.671706	40	1074115.0552202	1074115.0556897	100	imm	1074116.9691635	nan	nan	nan	nan	nan
92.712890625	0.0	40	189876	6	100	210	0	1	1074108.3388333	1074108.3391521	80	1074111.6712726	1074111.671706	40	1074115.0552202	1074115.0556897	100	imm	1074116.9691635	nan	nan	nan	nan	nan
96.0966796875	0.0	100	196806	6	100	210	0	1	1074108.3388333	1074108.3391521	80	1074111.6712726	1074111.671706	40	1074115.0552202	1074115.0556897	100	imm	1074116.9691635	nan	nan	nan	nan	nan
100.6748046875	0.0	80	206182	7	93	20	0	0	1074119.6333551	1074119.6336601	80	1074122.6853537	1074122.6857537	40	1074126.111744	1074126.1122488	100	del	1074127.2492258	nan	nan	nan	nan	nan
103.7265625	0.0	40	212432	7	93	20	0	0	1074119.6333551	1074119.6336601	80	1074122.6853537	1074122.6857537	40	1074126.111744	1074126.1122488	100	del	1074127.2492258	nan	nan	nan	nan	nan
107.15283203125	0.0	100	219449	7	93	20	0	0	1074119.6333551	1074119.6336601	80	1074122.6853537	1074122.6857537	40	1074126.111744	1074126.1122488	100	del	1074127.2492258	nan	nan	nan	nan	nan
110.9990234375	0.0	80	227326	8	100	60	1	1	1074129.958115	1074129.95839	80	1074133.3530505	1074133.3534788	40	1074136.4556961	1074136.4562203	100	del	1074137.4577858	3.0	1074139.368793	1074137.967181	1074137.9675267	120.0
114.39404296875	0.0	40	234279	8	100	60	1	1	1074129.958115	1074129.95839	80	1074133.3530505	1074133.3534788	40	1074136.4556961	1074136.4562203	100	del	1074137.4577858	3.0	1074139.368793	1074137.967181	1074137.9675267	120.0
117.49658203125	0.0	100	240633	8	100	60	1	1	1074129.958115	1074129.95839	80	1074133.3530505	1074133.3534788	40	1074136.4556961	1074136.4562203	100	del	1074137.4577858	3.0	1074139.368793	1074137.967181	1074137.9675267	120.0
119.00830078125	0.0	120	243729	8	100	60	1	1	1074129.958115	1074129.95839	80	1074133.3530505	1074133.3534788	40	1074136.4556961	1074136.4562203	100	del	1074137.4577858	3.0	1074139.368793	1074137.967181	1074137.9675267	120.0
122.47607421875	0.0	80	250831	9	83	420	0	1	1074141.4354224	1074141.4357132	80	1074144.8956264	1074144.8961791	40	1074148.3475561	1074148.3480349	100	imm	1074149.5764308	nan	nan	nan	nan	nan
125.9365234375	0.0	40	257918	9	83	420	0	1	1074141.4354224	1074141.4357132	80	1074144.8956264	1074144.8961791	40	1074148.3475561	1074148.3480349	100	imm	1074149.5764308	nan	nan	nan	nan	nan
129.38818359375	0.0	100	264987	9	83	420	0	1	1074141.4354224	1074141.4357132	80	1074144.8956264	1074144.8961791	40	1074148.3475561	1074148.3480349	100	imm	1074149.5764308	nan	nan	nan	nan	nan
133.63134765625	0.0	80	273677	10	90	720	1	0	1074152.5908843	1074152.5913822	80	1074156.0315836	1074156.0320269	40	1074159.0638402	1074159.0643154	100	imm	1074159.6650058	2.0	1074161.4410761	1074160.1753647	1074160.1760672	120.0
137.072265625	0.0	40	280724	10	90	720	1	0	1074152.5908843	1074152.5913822	80	1074156.0315836	1074156.0320269	40	1074159.0638402	1074159.0643154	100	imm	1074159.6650058	2.0	1074161.4410761	1074160.1753647	1074160.1760672	120.0
140.1044921875	0.0	100	286934	10	90	720	1	0	1074152.5908843	1074152.5913822	80	1074156.0315836	1074156.0320269	40	1074159.0638402	1074159.0643154	100	imm	1074159.6650058	2.0	1074161.4410761	1074160.1753647	1074160.1760672	120.0
141.21630859375	0.0	120	289211	10	90	720	1	0	1074152.5908843	1074152.5913822	80	1074156.0315836	1074156.0320269	40	1074159.0638402	1074159.0643154	100	imm	1074159.6650058	2.0	1074161.4410761	1074160.1753647	1074160.1760672	120.0
144.76806640625	0.0	80	296485	11	50	720	1	1	1074163.7278466	1074163.7283095	80	1074167.2342331	1074167.2346809	40	1074170.5029097	1074170.503424	100	del	1074172.5603243	3.0	1074175.5210312	1074173.0689937	1074173.069268	120.0
148.2744140625	0.0	40	303666	11	50	720	1	1	1074163.7278466	1074163.7283095	80	1074167.2342331	1074167.2346809	40	1074170.5029097	1074170.503424	100	del	1074172.5603243	3.0	1074175.5210312	1074173.0689937	1074173.069268	120.0
151.54296875	0.0	100	310360	11	50	720	1	1	1074163.7278466	1074163.7283095	80	1074167.2342331	1074167.2346809	40	1074170.5029097	1074170.503424	100	del	1074172.5603243	3.0	1074175.5210312	1074173.0689937	1074173.069268	120.0
154.10888671875	0.0	120	315615	11	50	720	1	1	1074163.7278466	1074163.7283095	80	1074167.2342331	1074167.2346809	40	1074170.5029097	1074170.503424	100	del	1074172.5603243	3.0	1074175.5210312	1074173.0689937	1074173.069268	120.0
159.01025390625	0.0	80	325653	12	100	240	1	0	1074177.9703045	1074177.9706695	80	1074181.0128412	1074181.0132896	40	1074184.5195513	1074184.5200546	100	del	1074185.6649098	3.0	1074187.7127702	1074186.1750759	1074186.1753693	120.0
162.052734375	0.0	40	331884	12	100	240	1	0	1074177.9703045	1074177.9706695	80	1074181.0128412	1074181.0132896	40	1074184.5195513	1074184.5200546	100	del	1074185.6649098	3.0	1074187.7127702	1074186.1750759	1074186.1753693	120.0
165.5595703125	0.0	100	339066	12	100	240	1	0	1074177.9703045	1074177.9706695	80	1074181.0128412	1074181.0132896	40	1074184.5195513	1074184.5200546	100	del	1074185.6649098	3.0	1074187.7127702	1074186.1750759	1074186.1753693	120.0
167.21484375	0.0	120	342456	12	100	240	1	0	1074177.9703045	1074177.9706695	80	1074181.0128412	1074181.0132896	40	1074184.5195513	1074184.5200546	100	del	1074185.6649098	3.0	1074187.7127702	1074186.1750759	1074186.1753693	120.0
171.2275390625	0.0	80	350674	13	60	420	0	1	1074190.1878962	1074190.188393	80	1074193.4757751	1074193.4760607	40	1074196.704496	1074196.7049696	100	del	1074197.4802499	nan	nan	nan	nan	nan
174.51513671875	0.0	40	357407	13	60	420	0	1	1074190.1878962	1074190.188393	80	1074193.4757751	1074193.4760607	40	1074196.704496	1074196.7049696	100	del	1074197.4802499	nan	nan	nan	nan	nan
177.744140625	0.0	100	364020	13	60	420	0	1	1074190.1878962	1074190.188393	80	1074193.4757751	1074193.4760607	40	1074196.704496	1074196.7049696	100	del	1074197.4802499	nan	nan	nan	nan	nan
181.20166015625	0.0	80	371101	14	70	720	1	1	1074200.1620579	1074200.1623466	80	1074203.5298295	1074203.5303225	40	1074206.5498595	1074206.5503945	100	imm	1074207.0323386	2.0	1074209.3841173	1074207.5425392	1074207.5430015	120.0
184.5693359375	0.0	40	377998	14	70	720	1	1	1074200.1620579	1074200.1623466	80	1074203.5298295	1074203.5303225	40	1074206.5498595	1074206.5503945	100	imm	1074207.0323386	2.0	1074209.3841173	1074207.5425392	1074207.5430015	120.0
187.58935546875	0.0	100	384183	14	70	720	1	1	1074200.1620579	1074200.1623466	80	1074203.5298295	1074203.5303225	40	1074206.5498595	1074206.5503945	100	imm	1074207.0323386	2.0	1074209.3841173	1074207.5425392	1074207.5430015	120.0
188.58203125	0.0	120	386216	14	70	720	1	1	1074200.1620579	1074200.1623466	80	1074203.5298295	1074203.5303225	40	1074206.5498595	1074206.5503945	100	imm	1074207.0323386	2.0	1074209.3841173	1074207.5425392	1074207.5430015	120.0
192.626953125	0.0	80	394500	15	80	210	0	0	1074211.5877639	1074211.5882805	80	1074215.0569844	1074215.0575872	40	1074218.3438371	1074218.3443498	100	del	1074221.3046538	nan	nan	nan	nan	nan
196.09619140625	0.0	40	401605	15	80	210	0	0	1074211.5877639	1074211.5882805	80	1074215.0569844	1074215.0575872	40	1074218.3438371	1074218.3443498	100	del	1074221.3046538	nan	nan	nan	nan	nan
199.3828125	0.0	100	408336	15	80	210	0	0	1074211.5877639	1074211.5882805	80	1074215.0569844	1074215.0575872	40	1074218.3438371	1074218.3443498	100	del	1074221.3046538	nan	nan	nan	nan	nan
205.09619140625	0.0	80	420037	16	100	420	0	0	1074224.0573347	1074224.0578427	80	1074227.3132466	1074227.3136628	40	1074230.4806594	1074230.4811329	100	del	1074231.4240973	nan	nan	nan	nan	nan
208.35205078125	0.0	40	426705	16	100	420	0	0	1074224.0573347	1074224.0578427	80	1074227.3132466	1074227.3136628	40	1074230.4806594	1074230.4811329	100	del	1074231.4240973	nan	nan	nan	nan	nan
211.51953125	0.0	100	433192	16	100	420	0	0	1074224.0573347	1074224.0578427	80	1074227.3132466	1074227.3136628	40	1074230.4806594	1074230.4811329	100	del	1074231.4240973	nan	nan	nan	nan	nan
215.45556640625	0.0	80	441253	17	53	4	1	1	1074234.4167808	1074234.4174403	80	1074237.9151434	1074237.9156805	40	1074241.1854124	1074241.1859541	100	del	1074242.8649437	4.0	1074244.7361766	1074243.3761666	1074243.3765697	120.0
218.95361328125	0.0	40	448417	17	53	4	1	1	1074234.4167808	1074234.4174403	80	1074237.9151434	1074237.9156805	40	1074241.1854124	1074241.1859541	100	del	1074242.8649437	4.0	1074244.7361766	1074243.3761666	1074243.3765697	120.0
222.22412109375	0.0	100	455115	17	53	4	1	1	1074234.4167808	1074234.4174403	80	1074237.9151434	1074237.9156805	40	1074241.1854124	1074241.1859541	100	del	1074242.8649437	4.0	1074244.7361766	1074243.3761666	1074243.3765697	120.0
224.41455078125	0.0	120	459601	17	53	4	1	1	1074234.4167808	1074234.4174403	80	1074237.9151434	1074237.9156805	40	1074241.1854124	1074241.1859541	100	del	1074242.8649437	4.0	1074244.7361766	1074243.3761666	1074243.3765697	120.0
228.28466796875	0.0	80	467527	18	50	210	0	1	1074247.2463199	1074247.2467982	80	1074250.4840813	1074250.4845222	40	1074253.7099231	1074253.7104826	100	imm	1074254.3208466	nan	nan	nan	nan	nan
231.5224609375	0.0	40	474158	18	50	210	0	1	1074247.2463199	1074247.2467982	80	1074250.4840813	1074250.4845222	40	1074253.7099231	1074253.7104826	100	imm	1074254.3208466	nan	nan	nan	nan	nan
234.748046875	0.0	100	480764	18	50	210	0	1	1074247.2463199	1074247.2467982	80	1074250.4840813	1074250.4845222	40	1074253.7099231	1074253.7104826	100	imm	1074254.3208466	nan	nan	nan	nan	nan
237.982421875	0.0	80	487388	19	60	720	1	0	1074256.9445067	1074256.9450438	80	1074260.0504166	1074260.0508489	40	1074263.4797369	1074263.4802651	100	imm	1074265.6565672	3.0	1074268.105741	1074266.1678259	1074266.1682201	120.0
241.08837890625	0.0	40	493749	19	60	720	1	0	1074256.9445067	1074256.9450438	80	1074260.0504166	1074260.0508489	40	1074263.4797369	1074263.4802651	100	imm	1074265.6565672	3.0	1074268.105741	1074266.1678259	1074266.1682201	120.0
244.517578125	0.0	100	500772	19	60	720	1	0	1074256.9445067	1074256.9450438	80	1074260.0504166	1074260.0508489	40	1074263.4797369	1074263.4802651	100	imm	1074265.6565672	3.0	1074268.105741	1074266.1678259	1074266.1682201	120.0
247.20556640625	0.0	120	506277	19	60	720	1	0	1074256.9445067	1074256.9450438	80	1074260.0504166	1074260.0508489	40	1074263.4797369	1074263.4802651	100	imm	1074265.6565672	3.0	1074268.105741	1074266.1678259	1074266.1682201	120.0
251.521484375	0.0	80	515116	20	73	210	0	0	1074270.483653	1074270.4840793	80	1074273.7547876	1074273.7551601	40	1074277.182634	1074277.1831446	100	imm	1074279.4496447	nan	nan	nan	nan	nan
254.79248046875	0.0	40	521815	20	73	210	0	0	1074270.483653	1074270.4840793	80	1074273.7547876	1074273.7551601	40	1074277.182634	1074277.1831446	100	imm	1074279.4496447	nan	nan	nan	nan	nan
258.22021484375	0.0	100	528835	20	73	210	0	0	1074270.483653	1074270.4840793	80	1074273.7547876	1074273.7551601	40	1074277.182634	1074277.1831446	100	imm	1074279.4496447	nan	nan	nan	nan	nan
277.15966796875	0.0	80	567623	21	53	720	1	0	1074296.1227477	1074296.1232203	80	1074299.4064499	1074299.4069334	40	1074302.5275915	1074302.5280694	100	imm	1074303.8885542	3.0	1074305.9440444	1074304.3996031	1074304.4000163	120.0
280.443359375	0.0	40	574348	21	53	720	1	0	1074296.1227477	1074296.1232203	80	1074299.4064499	1074299.4069334	40	1074302.5275915	1074302.5280694	100	imm	1074303.8885542	3.0	1074305.9440444	1074304.3996031	1074304.4000163	120.0
283.564453125	0.0	100	580740	21	53	720	1	0	1074296.1227477	1074296.1232203	80	1074299.4064499	1074299.4069334	40	1074302.5275915	1074302.5280694	100	imm	1074303.8885542	3.0	1074305.9440444	1074304.3996031	1074304.4000163	120.0
285.4365234375	0.0	120	584574	21	53	720	1	0	1074296.1227477	1074296.1232203	80	1074299.4064499	1074299.4069334	40	1074302.5275915	1074302.5280694	100	imm	1074303.8885542	3.0	1074305.9440444	1074304.3996031	1074304.4000163	120.0
289.28564453125	0.0	80	592457	22	90	210	0	1	1074308.2490224	1074308.2492968	80	1074311.3279118	1074311.3283664	40	1074314.3675406	1074314.3680494	100	del	1074315.7446666	nan	nan	nan	nan	nan
292.36474609375	0.0	40	598763	22	90	210	0	1	1074308.2490224	1074308.2492968	80	1074311.3279118	1074311.3283664	40	1074314.3675406	1074314.3680494	100	del	1074315.7446666	nan	nan	nan	nan	nan
295.404296875	0.0	100	604988	22	90	210	0	1	1074308.2490224	1074308.2492968	80	1074311.3279118	1074311.3283664	40	1074314.3675406	1074314.3680494	100	del	1074315.7446666	nan	nan	nan	nan	nan
299.640625	0.0	80	613664	23	93	180	1	1	1074318.603893	1074318.6043441	80	1074321.9164528	1074321.9169193	40	1074325.0395501	1074325.0402703	100	del	1074326.3045252	2.0	1074328.1920124	1074326.8146992	1074326.8150607	120.0
302.953125	0.0	40	620448	23	93	180	1	1	1074318.603893	1074318.6043441	80	1074321.9164528	1074321.9169193	40	1074325.0395501	1074325.0402703	100	del	1074326.3045252	2.0	1074328.1920124	1074326.8146992	1074326.8150607	120.0
306.076171875	0.0	100	626844	23	93	180	1	1	1074318.603893	1074318.6043441	80	1074321.9164528	1074321.9169193	40	1074325.0395501	1074325.0402703	100	del	1074326.3045252	2.0	1074328.1920124	1074326.8146992	1074326.8150607	120.0
307.85107421875	0.0	120	630479	23	93	180	1	1	1074318.603893	1074318.6043441	80	1074321.9164528	1074321.9169193	40	1074325.0395501	1074325.0402703	100	del	1074326.3045252	2.0	1074328.1920124	1074326.8146992	1074326.8150607	120.0
311.44384765625	0.0	80	637837	24	60	210	0	1	1074330.4073212	1074330.4074856	80	1074333.7297349	1074333.7301856	40	1074337.0203682	1074337.0208745	100	imm	1074340.3053185	nan	nan	nan	nan	nan
314.76611328125	0.0	40	644641	24	60	210	0	1	1074330.4073212	1074330.4074856	80	1074333.7297349	1074333.7301856	40	1074337.0203682	1074337.0208745	100	imm	1074340.3053185	nan	nan	nan	nan	nan
318.056640625	0.0	100	651380	24	60	210	0	1	1074330.4073212	1074330.4074856	80	1074333.7297349	1074333.7301856	40	1074337.0203682	1074337.0208745	100	imm	1074340.3053185	nan	nan	nan	nan	nan
323.9189453125	0.0	80	663386	25	87	1240	0	0	1074342.8829567	1074342.8833312	80	1074345.975214	1074345.9757684	40	1074348.9891956	1074348.9896556	100	imm	1074351.4161566	nan	nan	nan	nan	nan
327.01123046875	0.0	40	669719	25	87	1240	0	0	1074342.8829567	1074342.8833312	80	1074345.975214	1074345.9757684	40	1074348.9891956	1074348.9896556	100	imm	1074351.4161566	nan	nan	nan	nan	nan
330.02490234375	0.0	100	675891	25	87	1240	0	0	1074342.8829567	1074342.8833312	80	1074345.975214	1074345.9757684	40	1074348.9891956	1074348.9896556	100	imm	1074351.4161566	nan	nan	nan	nan	nan
335.17822265625	0.0	80	686445	26	67	1240	0	0	1074354.1426579	1074354.1430604	80	1074357.3948443	1074357.3953623	40	1074360.489607	1074360.4900436	100	imm	1074361.1518288	nan	nan	nan	nan	nan
338.4306640625	0.0	40	693106	26	67	1240	0	0	1074354.1426579	1074354.1430604	80	1074357.3948443	1074357.3953623	40	1074360.489607	1074360.4900436	100	imm	1074361.1518288	nan	nan	nan	nan	nan
341.52490234375	0.0	100	699443	26	67	1240	0	0	1074354.1426579	1074354.1430604	80	1074357.3948443	1074357.3953623	40	1074360.489607	1074360.4900436	100	imm	1074361.1518288	nan	nan	nan	nan	nan
345.0390625	0.0	80	706640	27	93	110	0	1	1074364.0037389	1074364.0041649	80	1074367.020687	1074367.0211816	40	1074370.094574	1074370.0951086	100	del	1074373.1045384	nan	nan	nan	nan	nan
348.05615234375	0.0	40	712819	27	93	110	0	1	1074364.0037389	1074364.0041649	80	1074367.020687	1074367.0211816	40	1074370.094574	1074370.0951086	100	del	1074373.1045384	nan	nan	nan	nan	nan
351.1298828125	0.0	100	719114	27	93	110	0	1	1074364.0037389	1074364.0041649	80	1074367.020687	1074367.0211816	40	1074370.094574	1074370.0951086	100	del	1074373.1045384	nan	nan	nan	nan	nan
357.13134765625	0.0	80	731405	28	63	4	1	1	1074376.0963304	1074376.0967516	80	1074379.5918334	1074379.5922817	40	1074382.6211194	1074382.6216173	100	del	1074383.8321713	4.0	1074386.3840918	1074384.3422011	1074384.3426372	120.0
360.626953125	0.0	40	738564	28	63	4	1	1	1074376.0963304	1074376.0967516	80	1074379.5918334	1074379.5922817	40	1074382.6211194	1074382.6216173	100	del	1074383.8321713	4.0	1074386.3840918	1074384.3422011	1074384.3426372	120.0
363.65625	0.0	100	744768	28	63	4	1	1	1074376.0963304	1074376.0967516	80	1074379.5918334	1074379.5922817	40	1074382.6211194	1074382.6216173	100	del	1074383.8321713	4.0	1074386.3840918	1074384.3422011	1074384.3426372	120.0
365.376953125	0.0	120	748292	28	63	4	1	1	1074376.0963304	1074376.0967516	80	1074379.5918334	1074379.5922817	40	1074382.6211194	1074382.6216173	100	del	1074383.8321713	4.0	1074386.3840918	1074384.3422011	1074384.3426372	120.0
369.67724609375	0.0	80	757099	29	73	20	0	0	1074388.642669	1074388.6429199	80	1074392.081569	1074392.0821039	40	1074395.2162833	1074395.2168154	100	del	1074397.0077815	nan	nan	nan	nan	nan
373.1162109375	0.0	40	764142	29	73	20	0	0	1074388.642669	1074388.6429199	80	1074392.081569	1074392.0821039	40	1074395.2162833	1074395.2168154	100	del	1074397.0077815	nan	nan	nan	nan	nan
376.2509765625	0.0	100	770562	29	73	20	0	0	1074388.642669	1074388.6429199	80	1074392.081569	1074392.0821039	40	1074395.2162833	1074395.2168154	100	del	1074397.0077815	nan	nan	nan	nan	nan
380.97509765625	0.0	80	780237	30	77	4	1	0	1074399.9403241	1074399.9407982	80	1074403.355749	1074403.3562738	40	1074406.6840436	1074406.684512	100	del	1074407.9362816	4.0	1074409.9999597	1074408.4456809	1074408.4460129	120.0
384.39013671875	0.0	40	787231	30	77	4	1	0	1074399.9403241	1074399.9407982	80	1074403.355749	1074403.3562738	40	1074406.6840436	1074406.684512	100	del	1074407.9362816	4.0	1074409.9999597	1074408.4456809	1074408.4460129	120.0
387.71826171875	0.0	100	794047	30	77	4	1	0	1074399.9403241	1074399.9407982	80	1074403.355749	1074403.3562738	40	1074406.6840436	1074406.684512	100	del	1074407.9362816	4.0	1074409.9999597	1074408.4456809	1074408.4460129	120.0
389.47998046875	0.0	120	797655	30	77	4	1	0	1074399.9403241	1074399.9407982	80	1074403.355749	1074403.3562738	40	1074406.6840436	1074406.684512	100	del	1074407.9362816	4.0	1074409.9999597	1074408.4456809	1074408.4460129	120.0
393.05029296875	0.0	80	804967	31	67	20	0	0	1074412.0160672	1074412.0166089	80	1074415.2140535	1074415.2145712	40	1074418.6804538	1074418.6818748	100	del	1074420.4399083	nan	nan	nan	nan	nan
396.248046875	0.0	40	811516	31	67	20	0	0	1074412.0160672	1074412.0166089	80	1074415.2140535	1074415.2145712	40	1074418.6804538	1074418.6818748	100	del	1074420.4399083	nan	nan	nan	nan	nan
399.71435546875	0.0	100	818615	31	67	20	0	0	1074412.0160672	1074412.0166089	80	1074415.2140535	1074415.2145712	40	1074418.6804538	1074418.6818748	100	del	1074420.4399083	nan	nan	nan	nan	nan
404.33251953125	0.0	80	828073	32	70	180	1	1	1074423.2984341	1074423.2989385	80	1074426.4961406	1074426.4966834	40	1074429.8191592	1074429.8194129	100	imm	1074430.9837289	3.0	1074433.032121	1074431.4945008	1074431.4948526	120.0
407.5302734375	0.0	40	834622	32	70	180	1	1	1074423.2984341	1074423.2989385	80	1074426.4961406	1074426.4966834	40	1074429.8191592	1074429.8194129	100	imm	1074430.9837289	3.0	1074433.032121	1074431.4945008	1074431.4948526	120.0
410.85302734375	0.0	100	841427	32	70	180	1	1	1074423.2984341	1074423.2989385	80	1074426.4961406	1074426.4966834	40	1074429.8191592	1074429.8194129	100	imm	1074430.9837289	3.0	1074433.032121	1074431.4945008	1074431.4948526	120.0
412.5283203125	0.0	120	844858	32	70	180	1	1	1074423.2984341	1074423.2989385	80	1074426.4961406	1074426.4966834	40	1074429.8191592	1074429.8194129	100	imm	1074430.9837289	3.0	1074433.032121	1074431.4945008	1074431.4948526	120.0
416.203125	0.0	80	852384	33	53	110	0	1	1074435.1695716	1074435.1700767	80	1074438.4634932	1074438.463985	40	1074441.9680923	1074441.9686117	100	imm	1074443.2158189	nan	nan	nan	nan	nan
419.4970703125	0.0	40	859130	33	53	110	0	1	1074435.1695716	1074435.1700767	80	1074438.4634932	1074438.463985	40	1074441.9680923	1074441.9686117	100	imm	1074443.2158189	nan	nan	nan	nan	nan
423.00146484375	0.0	100	866307	33	53	110	0	1	1074435.1695716	1074435.1700767	80	1074438.4634932	1074438.463985	40	1074441.9680923	1074441.9686117	100	imm	1074443.2158189	nan	nan	nan	nan	nan
427.18896484375	0.0	80	874883	34	80	180	1	1	1074446.1557863	1074446.1561746	80	1074449.3055872	1074449.3060759	40	1074452.6615099	1074452.6620336	100	imm	1074456.0315625	3.0	1074458.5521088	1074456.542525	1074456.5428879	120.0
430.3388671875	0.0	40	881334	34	80	180	1	1	1074446.1557863	1074446.1561746	80	1074449.3055872	1074449.3060759	40	1074452.6615099	1074452.6620336	100	imm	1074456.0315625	3.0	1074458.5521088	1074456.542525	1074456.5428879	120.0
433.69482421875	0.0	100	888207	34	80	180	1	1	1074446.1557863	1074446.1561746	80	1074449.3055872	1074449.3060759	40	1074452.6615099	1074452.6620336	100	imm	1074456.0315625	3.0	1074458.5521088	1074456.542525	1074456.5428879	120.0
437.57568359375	0.0	120	896155	34	80	180	1	1	1074446.1557863	1074446.1561746	80	1074449.3055872	1074449.3060759	40	1074452.6615099	1074452.6620336	100	imm	1074456.0315625	3.0	1074458.5521088	1074456.542525	1074456.5428879	120.0
441.7802734375	0.0	80	904766	35	93	420	0	1	1074460.7471141	1074460.7476278	80	1074464.2480747	1074464.2484608	40	1074467.3028162	1074467.3032701	100	del	1074468.9834596	nan	nan	nan	nan	nan
445.28125	0.0	40	911936	35	93	420	0	1	1074460.7471141	1074460.7476278	80	1074464.2480747	1074464.2484608	40	1074467.3028162	1074467.3032701	100	del	1074468.9834596	nan	nan	nan	nan	nan
448.3359375	0.0	100	918192	35	93	420	0	1	1074460.7471141	1074460.7476278	80	1074464.2480747	1074464.2484608	40	1074467.3028162	1074467.3032701	100	del	1074468.9834596	nan	nan	nan	nan	nan
452.65673828125	0.0	80	927041	36	70	240	1	0	1074471.6237671	1074471.624072	80	1074475.03662	1074475.0371499	40	1074478.0930862	1074478.093612	100	imm	1074479.2800734	4.0	1074481.3517491	1074479.7896055	1074479.789923	120.0
456.0693359375	0.0	40	934030	36	70	240	1	0	1074471.6237671	1074471.624072	80	1074475.03662	1074475.0371499	40	1074478.0930862	1074478.093612	100	imm	1074479.2800734	4.0	1074481.3517491	1074479.7896055	1074479.789923	120.0
459.12548828125	0.0	100	940289	36	70	240	1	0	1074471.6237671	1074471.624072	80	1074475.03662	1074475.0371499	40	1074478.0930862	1074478.093612	100	imm	1074479.2800734	4.0	1074481.3517491	1074479.7896055	1074479.789923	120.0
460.822265625	0.0	120	943764	36	70	240	1	0	1074471.6237671	1074471.624072	80	1074475.03662	1074475.0371499	40	1074478.0930862	1074478.093612	100	imm	1074479.2800734	4.0	1074481.3517491	1074479.7896055	1074479.789923	120.0
464.66357421875	0.0	80	951631	37	60	180	1	0	1074483.6310284	1074483.6315266	80	1074487.0390632	1074487.0395727	40	1074490.4221705	1074490.422648	100	imm	1074491.4880713	3.0	1074493.4403232	1074491.9985786	1074491.9989674	120.0
468.0712890625	0.0	40	958610	37	60	180	1	0	1074483.6310284	1074483.6315266	80	1074487.0390632	1074487.0395727	40	1074490.4221705	1074490.422648	100	imm	1074491.4880713	3.0	1074493.4403232	1074491.9985786	1074491.9989674	120.0
471.45458984375	0.0	100	965539	37	60	180	1	0	1074483.6310284	1074483.6315266	80	1074487.0390632	1074487.0395727	40	1074490.4221705	1074490.422648	100	imm	1074491.4880713	3.0	1074493.4403232	1074491.9985786	1074491.9989674	120.0
473.03076171875	0.0	120	968767	37	60	180	1	0	1074483.6310284	1074483.6315266	80	1074487.0390632	1074487.0395727	40	1074490.4221705	1074490.422648	100	imm	1074491.4880713	3.0	1074493.4403232	1074491.9985786	1074491.9989674	120.0
476.5576171875	0.0	80	975990	38	97	210	0	0	1074495.5252995	1074495.525802	80	1074498.7520329	1074498.7524761	40	1074501.9408749	1074501.9413154	100	del	1074503.8073749	nan	nan	nan	nan	nan
479.7841796875	0.0	40	982598	38	97	210	0	0	1074495.5252995	1074495.525802	80	1074498.7520329	1074498.7524761	40	1074501.9408749	1074501.9413154	100	del	1074503.8073749	nan	nan	nan	nan	nan
482.97314453125	0.0	100	989129	38	97	210	0	0	1074495.5252995	1074495.525802	80	1074498.7520329	1074498.7524761	40	1074501.9408749	1074501.9413154	100	del	1074503.8073749	nan	nan	nan	nan	nan
487.59228515625	0.0	80	998589	39	97	4	1	0	1074506.5604073	1074506.5607438	80	1074509.8598809	1074509.8601344	40	1074512.9455804	1074512.946036	100	del	1074514.4081506	4.0	1074516.6313553	1074514.9169807	1074514.9173714	120.0
490.8916015625	0.0	40	1005346	39	97	4	1	0	1074506.5604073	1074506.5607438	80	1074509.8598809	1074509.8601344	40	1074512.9455804	1074512.946036	100	del	1074514.4081506	4.0	1074516.6313553	1074514.9169807	1074514.9173714	120.0
493.9775390625	0.0	100	1011666	39	97	4	1	0	1074506.5604073	1074506.5607438	80	1074509.8598809	1074509.8601344	40	1074512.9455804	1074512.946036	100	del	1074514.4081506	4.0	1074516.6313553	1074514.9169807	1074514.9173714	120.0
495.94873046875	0.0	120	1015703	39	97	4	1	0	1074506.5604073	1074506.5607438	80	1074509.8598809	1074509.8601344	40	1074512.9455804	1074512.946036	100	del	1074514.4081506	4.0	1074516.6313553	1074514.9169807	1074514.9173714	120.0
500.1318359375	0.0	80	1024270	40	80	4	1	1	1074519.1000653	1074519.1006982	80	1074522.4282	1074522.4286149	40	1074525.5235745	1074525.5240577	100	del	1074526.8960886	4.0	1074528.3033522	1074527.4065929	1074527.4071617	120.0
503.4599609375	0.0	40	1031086	40	80	4	1	1	1074519.1000653	1074519.1006982	80	1074522.4282	1074522.4286149	40	1074525.5235745	1074525.5240577	100	del	1074526.8960886	4.0	1074528.3033522	1074527.4065929	1074527.4071617	120.0
506.55517578125	0.0	100	1037425	40	80	4	1	1	1074519.1000653	1074519.1006982	80	1074522.4282	1074522.4286149	40	1074525.5235745	1074525.5240577	100	del	1074526.8960886	4.0	1074528.3033522	1074527.4065929	1074527.4071617	120.0
508.43798828125	0.0	120	1041281	40	80	4	1	1	1074519.1000653	1074519.1006982	80	1074522.4282	1074522.4286149	40	1074525.5235745	1074525.5240577	100	del	1074526.8960886	4.0	1074528.3033522	1074527.4065929	1074527.4071617	120.0
521.46142578125	0.0	80	1067953	41	57	20	0	1	1074540.4303464	1074540.4308346	80	1074543.9036337	1074543.9041398	40	1074547.3081549	1074547.3086187	100	del	1074548.2000549	nan	nan	nan	nan	nan
524.9345703125	0.0	40	1075066	41	57	20	0	1	1074540.4303464	1074540.4308346	80	1074543.9036337	1074543.9041398	40	1074547.3081549	1074547.3086187	100	del	1074548.2000549	nan	nan	nan	nan	nan
528.3388671875	0.0	100	1082038	41	57	20	0	1	1074540.4303464	1074540.4308346	80	1074543.9036337	1074543.9041398	40	1074547.3081549	1074547.3086187	100	del	1074548.2000549	nan	nan	nan	nan	nan
532.08935546875	0.0	80	1089719	42	63	240	1	1	1074551.0582933	1074551.0587752	80	1074554.2980741	1074554.2983267	40	1074557.4409518	1074557.4414491	100	imm	1074558.8317035	3.0	1074561.1052722	1074559.3441494	1074559.3446347	120.0
535.32861328125	0.0	40	1096353	42	63	240	1	1	1074551.0582933	1074551.0587752	80	1074554.2980741	1074554.2983267	40	1074557.4409518	1074557.4414491	100	imm	1074558.8317035	3.0	1074561.1052722	1074559.3441494	1074559.3446347	120.0
538.4716796875	0.0	100	1102790	42	63	240	1	1	1074551.0582933	1074551.0587752	80	1074554.2980741	1074554.2983267	40	1074557.4409518	1074557.4414491	100	imm	1074558.8317035	3.0	1074561.1052722	1074559.3441494	1074559.3446347	120.0
540.375	0.0	120	1106688	42	63	240	1	1	1074551.0582933	1074551.0587752	80	1074554.2980741	1074554.2983267	40	1074557.4409518	1074557.4414491	100	imm	1074558.8317035	3.0	1074561.1052722	1074559.3441494	1074559.3446347	120.0
544.4365234375	0.0	80	1115006	43	53	210	0	1	1074563.4061033	1074563.4065553	80	1074566.5379739	1074566.5383863	40	1074569.7106267	1074569.7111141	100	imm	1074571.9040603	nan	nan	nan	nan	nan
547.568359375	0.0	40	1121420	43	53	210	0	1	1074563.4061033	1074563.4065553	80	1074566.5379739	1074566.5383863	40	1074569.7106267	1074569.7111141	100	imm	1074571.9040603	nan	nan	nan	nan	nan
550.7412109375	0.0	100	1127918	43	53	210	0	1	1074563.4061033	1074563.4065553	80	1074566.5379739	1074566.5383863	40	1074569.7106267	1074569.7111141	100	imm	1074571.9040603	nan	nan	nan	nan	nan
555.9052734375	0.0	80	1138494	44	60	20	0	0	1074574.8752537	1074574.8757169	80	1074578.325862	1074578.3263602	40	1074581.7362314	1074581.7367172	100	del	1074583.3437881	nan	nan	nan	nan	nan
559.35595703125	0.0	40	1145561	44	60	20	0	0	1074574.8752537	1074574.8757169	80	1074578.325862	1074578.3263602	40	1074581.7362314	1074581.7367172	100	del	1074583.3437881	nan	nan	nan	nan	nan
562.76611328125	0.0	100	1152545	44	60	20	0	0	1074574.8752537	1074574.8757169	80	1074578.325862	1074578.3263602	40	1074581.7362314	1074581.7367172	100	del	1074583.3437881	nan	nan	nan	nan	nan
567.3505859375	0.0	80	1161934	45	97	420	0	0	1074586.320575	1074586.3210442	80	1074589.417505	1074589.4179054	40	1074592.6892149	1074592.689709	100	del	1074593.7754606	nan	nan	nan	nan	nan
570.447265625	0.0	40	1168276	45	97	420	0	0	1074586.320575	1074586.3210442	80	1074589.417505	1074589.4179054	40	1074592.6892149	1074592.689709	100	del	1074593.7754606	nan	nan	nan	nan	nan
573.71923828125	0.0	100	1174977	45	97	420	0	0	1074586.320575	1074586.3210442	80	1074589.417505	1074589.4179054	40	1074592.6892149	1074592.689709	100	del	1074593.7754606	nan	nan	nan	nan	nan
577.63232421875	0.0	80	1182991	46	93	720	1	0	1074596.602696	1074596.6030814	80	1074600.0664744	1074600.0668738	40	1074603.4122966	1074603.4127986	100	imm	1074605.4242817	3.0	1074607.4321567	1074605.9349618	1074605.9353697	120.0
581.09619140625	0.0	40	1190085	46	93	720	1	0	1074596.602696	1074596.6030814	80	1074600.0664744	1074600.0668738	40	1074603.4122966	1074603.4127986	100	imm	1074605.4242817	3.0	1074607.4321567	1074605.9349618	1074605.9353697	120.0
584.44189453125	0.0	100	1196937	46	93	720	1	0	1074596.602696	1074596.6030814	80	1074600.0664744	1074600.0668738	40	1074603.4122966	1074603.4127986	100	imm	1074605.4242817	3.0	1074607.4321567	1074605.9349618	1074605.9353697	120.0
586.96435546875	0.0	120	1202103	46	93	720	1	0	1074596.602696	1074596.6030814	80	1074600.0664744	1074600.0668738	40	1074603.4122966	1074603.4127986	100	imm	1074605.4242817	3.0	1074607.4321567	1074605.9349618	1074605.9353697	120.0
590.67236328125	0.0	80	1209697	47	60	110	0	0	1074609.6430227	1074609.6435111	80	1074613.0204945	1074613.0210735	40	1074616.4418104	1074616.4422366	100	imm	1074618.1527062	nan	nan	nan	nan	nan
594.0498046875	0.0	40	1216614	47	60	110	0	0	1074609.6430227	1074609.6435111	80	1074613.0204945	1074613.0210735	40	1074616.4418104	1074616.4422366	100	imm	1074618.1527062	nan	nan	nan	nan	nan
597.47119140625	0.0	100	1223621	47	60	110	0	0	1074609.6430227	1074609.6435111	80	1074613.0204945	1074613.0210735	40	1074616.4418104	1074616.4422366	100	imm	1074618.1527062	nan	nan	nan	nan	nan
601.998046875	0.0	80	1232892	48	87	240	1	0	1074620.9690099	1074620.9694916	80	1074624.0203699	1074624.0208619	40	1074627.4956646	1074627.4961381	100	del	1074629.2237638	3.0	1074631.2475685	1074629.7362934	1074629.7367696	120.0
605.04931640625	0.0	40	1239141	48	87	240	1	0	1074620.9690099	1074620.9694916	80	1074624.0203699	1074624.0208619	40	1074627.4956646	1074627.4961381	100	del	1074629.2237638	3.0	1074631.2475685	1074629.7362934	1074629.7367696	120.0
608.5244140625	0.0	100	1246258	48	87	240	1	0	1074620.9690099	1074620.9694916	80	1074624.0203699	1074624.0208619	40	1074627.4956646	1074627.4961381	100	del	1074629.2237638	3.0	1074631.2475685	1074629.7362934	1074629.7367696	120.0
610.76513671875	0.0	120	1250847	48	87	240	1	0	1074620.9690099	1074620.9694916	80	1074624.0203699	1074624.0208619	40	1074627.4956646	1074627.4961381	100	del	1074629.2237638	3.0	1074631.2475685	1074629.7362934	1074629.7367696	120.0
614.3173828125	0.0	80	1258122	49	53	240	1	1	1074633.2886995	1074633.2892015	80	1074636.5597026	1074636.5602094	40	1074639.6320421	1074639.6325693	100	imm	1074640.5038123	3.0	1074642.079398	1074641.0125356	1074641.012834	120.0
617.58837890625	0.0	40	1264821	49	53	240	1	1	1074633.2886995	1074633.2892015	80	1074636.5597026	1074636.5602094	40	1074639.6320421	1074639.6325693	100	imm	1074640.5038123	3.0	1074642.079398	1074641.0125356	1074641.012834	120.0
620.66064453125	0.0	100	1271113	49	53	240	1	1	1074633.2886995	1074633.2892015	80	1074636.5597026	1074636.5602094	40	1074639.6320421	1074639.6325693	100	imm	1074640.5038123	3.0	1074642.079398	1074641.0125356	1074641.012834	120.0
622.041015625	0.0	120	1273940	49	53	240	1	1	1074633.2886995	1074633.2892015	80	1074636.5597026	1074636.5602094	40	1074639.6320421	1074639.6325693	100	imm	1074640.5038123	3.0	1074642.079398	1074641.0125356	1074641.012834	120.0
625.31494140625	0.0	80	1280645	50	60	4	1	0	1074644.2861795	1074644.2867223	80	1074647.6985509	1074647.6988237	40	1074650.8336916	1074650.8342141	100	imm	1074652.455682	4.0	1074656.1679182	1074652.9657082	1074652.9660539	120.0
628.72705078125	0.0	40	1287633	50	60	4	1	0	1074644.2861795	1074644.2867223	80	1074647.6985509	1074647.6988237	40	1074650.8336916	1074650.8342141	100	imm	1074652.455682	4.0	1074656.1679182	1074652.9657082	1074652.9660539	120.0
631.8623046875	0.0	100	1294054	50	60	4	1	0	1074644.2861795	1074644.2867223	80	1074647.6985509	1074647.6988237	40	1074650.8336916	1074650.8342141	100	imm	1074652.455682	4.0	1074656.1679182	1074652.9657082	1074652.9660539	120.0
633.994140625	0.0	120	1298420	50	60	4	1	0	1074644.2861795	1074644.2867223	80	1074647.6985509	1074647.6988237	40	1074650.8336916	1074650.8342141	100	imm	1074652.455682	4.0	1074656.1679182	1074652.9657082	1074652.9660539	120.0
639.654296875	0.0	80	1310012	51	63	1240	0	0	1074658.6262728	1074658.6267387	80	1074661.9902159	1074661.9907266	40	1074665.1929447	1074665.1934581	100	imm	1074666.5514721	nan	nan	nan	nan	nan
643.01806640625	0.0	40	1316901	51	63	1240	0	0	1074658.6262728	1074658.6267387	80	1074661.9902159	1074661.9907266	40	1074665.1929447	1074665.1934581	100	imm	1074666.5514721	nan	nan	nan	nan	nan
646.22119140625	0.0	100	1323461	51	63	1240	0	0	1074658.6262728	1074658.6267387	80	1074661.9902159	1074661.9907266	40	1074665.1929447	1074665.1934581	100	imm	1074666.5514721	nan	nan	nan	nan	nan
650.2216796875	0.0	80	1331654	52	57	1240	0	0	1074669.1939363	1074669.194442	80	1074672.3279508	1074672.3283897	40	1074675.7246843	1074675.7252137	100	imm	1074676.7838028	nan	nan	nan	nan	nan
653.35595703125	0.0	40	1338073	52	57	1240	0	0	1074669.1939363	1074669.194442	80	1074672.3279508	1074672.3283897	40	1074675.7246843	1074675.7252137	100	imm	1074676.7838028	nan	nan	nan	nan	nan
656.75244140625	0.0	100	1345029	52	57	1240	0	0	1074669.1939363	1074669.194442	80	1074672.3279508	1074672.3283897	40	1074675.7246843	1074675.7252137	100	imm	1074676.7838028	nan	nan	nan	nan	nan
660.3544921875	0.0	80	1352406	53	93	240	1	0	1074679.3268601	1074679.3273706	80	1074682.6771335	1074682.6775961	40	1074686.0014506	1074686.0019164	100	del	1074687.8158616	3.0	1074691.1032877	1074688.3258447	1074688.3261944	120.0
663.70458984375	0.0	40	1359267	53	93	240	1	0	1074679.3268601	1074679.3273706	80	1074682.6771335	1074682.6775961	40	1074686.0014506	1074686.0019164	100	del	1074687.8158616	3.0	1074691.1032877	1074688.3258447	1074688.3261944	120.0
667.02880859375	0.0	100	1366075	53	93	240	1	0	1074679.3268601	1074679.3273706	80	1074682.6771335	1074682.6775961	40	1074686.0014506	1074686.0019164	100	del	1074687.8158616	3.0	1074691.1032877	1074688.3258447	1074688.3261944	120.0
669.35302734375	0.0	120	1370835	53	93	240	1	0	1074679.3268601	1074679.3273706	80	1074682.6771335	1074682.6775961	40	1074686.0014506	1074686.0019164	100	del	1074687.8158616	3.0	1074691.1032877	1074688.3258447	1074688.3261944	120.0
674.517578125	0.0	80	1381412	54	63	420	0	0	1074693.4899384	1074693.4905467	80	1074696.9861964	1074696.986672	40	1074700.1908186	1074700.1913279	100	imm	1074704.079486	nan	nan	nan	nan	nan
678.01318359375	0.0	40	1388571	54	63	420	0	0	1074693.4899384	1074693.4905467	80	1074696.9861964	1074696.986672	40	1074700.1908186	1074700.1913279	100	imm	1074704.079486	nan	nan	nan	nan	nan
681.2177734375	0.0	100	1395134	54	63	420	0	0	1074693.4899384	1074693.4905467	80	1074696.9861964	1074696.986672	40	1074700.1908186	1074700.1913279	100	imm	1074704.079486	nan	nan	nan	nan	nan
687.75390625	0.0	80	1408520	55	87	110	0	1	1074706.7270748	1074706.7278216	80	1074710.1735949	1074710.174051	40	1074713.5898485	1074713.5903151	100	del	1074715.7671772	nan	nan	nan	nan	nan
691.20068359375	0.0	40	1415579	55	87	110	0	1	1074706.7270748	1074706.7278216	80	1074710.1735949	1074710.174051	40	1074713.5898485	1074713.5903151	100	del	1074715.7671772	nan	nan	nan	nan	nan
694.61669921875	0.0	100	1422575	55	87	110	0	1	1074706.7270748	1074706.7278216	80	1074710.1735949	1074710.174051	40	1074713.5898485	1074713.5903151	100	del	1074715.7671772	nan	nan	nan	nan	nan
699.5419921875	0.0	80	1432662	56	53	60	1	1	1074718.5152574	1074718.5157313	80	1074721.5683951	1074721.5688721	40	1074724.8639982	1074724.8645079	100	imm	1074725.5758103	3.0	1074727.2230183	1074726.0845807	1074726.0849119	120.0
702.59521484375	0.0	40	1438915	56	53	60	1	1	1074718.5152574	1074718.5157313	80	1074721.5683951	1074721.5688721	40	1074724.8639982	1074724.8645079	100	imm	1074725.5758103	3.0	1074727.2230183	1074726.0845807	1074726.0849119	120.0
705.890625	0.0	100	1445664	56	53	60	1	1	1074718.5152574	1074718.5157313	80	1074721.5683951	1074721.5688721	40	1074724.8639982	1074724.8645079	100	imm	1074725.5758103	3.0	1074727.2230183	1074726.0845807	1074726.0849119	120.0
707.11083984375	0.0	120	1448163	56	53	60	1	1	1074718.5152574	1074718.5157313	80	1074721.5683951	1074721.5688721	40	1074724.8639982	1074724.8645079	100	imm	1074725.5758103	3.0	1074727.2230183	1074726.0845807	1074726.0849119	120.0
710.35888671875	0.0	80	1454815	57	57	60	1	1	1074729.3325294	1074729.333027	80	1074732.6058738	1074732.6063586	40	1074735.7991409	1074735.7995633	100	imm	1074737.2477981	4.0	1074739.2391837	1074737.7572956	1074737.7576932	120.0
713.63232421875	0.0	40	1461519	57	57	60	1	1	1074729.3325294	1074729.333027	80	1074732.6058738	1074732.6063586	40	1074735.7991409	1074735.7995633	100	imm	1074737.2477981	4.0	1074739.2391837	1074737.7572956	1074737.7576932	120.0
716.8251953125	0.0	100	1468058	57	57	60	1	1	1074729.3325294	1074729.333027	80	1074732.6058738	1074732.6063586	40	1074735.7991409	1074735.7995633	100	imm	1074737.2477981	4.0	1074739.2391837	1074737.7572956	1074737.7576932	120.0
718.78369140625	0.0	120	1472069	57	57	60	1	1	1074729.3325294	1074729.333027	80	1074732.6058738	1074732.6063586	40	1074735.7991409	1074735.7995633	100	imm	1074737.2477981	4.0	1074739.2391837	1074737.7572956	1074737.7576932	120.0
722.4375	0.0	80	1479552	58	63	20	0	0	1074741.4114721	1074741.4119681	80	1074744.7822218	1074744.7826747	40	1074748.0530596	1074748.0535401	100	imm	1074751.9366128	nan	nan	nan	nan	nan
725.80810546875	0.0	40	1486455	58	63	20	0	0	1074741.4114721	1074741.4119681	80	1074744.7822218	1074744.7826747	40	1074748.0530596	1074748.0535401	100	imm	1074751.9366128	nan	nan	nan	nan	nan
729.0791015625	0.0	100	1493154	58	63	20	0	0	1074741.4114721	1074741.4119681	80	1074744.7822218	1074744.7826747	40	1074748.0530596	1074748.0535401	100	imm	1074751.9366128	nan	nan	nan	nan	nan
735.873046875	0.0	80	1507068	59	53	420	0	1	1074754.8470976	1074754.847449	80	1074757.9570955	1074757.9576164	40	1074761.3097083	1074761.3102027	100	imm	1074761.9675699	nan	nan	nan	nan	nan
738.98291015625	0.0	40	1513437	59	53	420	0	1	1074754.8470976	1074754.847449	80	1074757.9570955	1074757.9576164	40	1074761.3097083	1074761.3102027	100	imm	1074761.9675699	nan	nan	nan	nan	nan
742.33544921875	0.0	100	1520303	59	53	420	0	1	1074754.8470976	1074754.847449	80	1074757.9570955	1074757.9576164	40	1074761.3097083	1074761.3102027	100	imm	1074761.9675699	nan	nan	nan	nan	nan
745.533203125	0.0	80	1526852	60	67	110	0	0	1074764.5076322	1074764.5079307	80	1074767.9154982	1074767.9158897	40	1074771.2677765	1074771.2682992	100	del	1074772.5751857	nan	nan	nan	nan	nan
748.94091796875	0.0	40	1533831	60	67	110	0	0	1074764.5076322	1074764.5079307	80	1074767.9154982	1074767.9158897	40	1074771.2677765	1074771.2682992	100	del	1074772.5751857	nan	nan	nan	nan	nan
752.29296875	0.0	100	1540696	60	67	110	0	0	1074764.5076322	1074764.5079307	80	1074767.9154982	1074767.9158897	40	1074771.2677765	1074771.2682992	100	del	1074772.5751857	nan	nan	nan	nan	nan
763.056640625	0.0	80	1562740	61	50	1240	0	1	1074782.0312127	1074782.031744	80	1074785.084592	1074785.0851857	40	1074788.5517587	1074788.5526224	100	imm	1074789.7509151	nan	nan	nan	nan	nan
766.10986328125	0.0	40	1568993	61	50	1240	0	1	1074782.0312127	1074782.031744	80	1074785.084592	1074785.0851857	40	1074788.5517587	1074788.5526224	100	imm	1074789.7509151	nan	nan	nan	nan	nan
769.57666015625	0.0	100	1576093	61	50	1240	0	1	1074782.0312127	1074782.031744	80	1074785.084592	1074785.0851857	40	1074788.5517587	1074788.5526224	100	imm	1074789.7509151	nan	nan	nan	nan	nan
773.548828125	0.0	80	1584228	62	87	210	0	0	1074792.5238471	1074792.5242998	80	1074795.8388376	1074795.8393247	40	1074799.0101301	1074799.0105869	100	imm	1074799.7429964	nan	nan	nan	nan	nan
776.86376953125	0.0	40	1591017	62	87	210	0	0	1074792.5238471	1074792.5242998	80	1074795.8388376	1074795.8393247	40	1074799.0101301	1074799.0105869	100	imm	1074799.7429964	nan	nan	nan	nan	nan
780.03466796875	0.0	100	1597511	62	87	210	0	0	1074792.5238471	1074792.5242998	80	1074795.8388376	1074795.8393247	40	1074799.0101301	1074799.0105869	100	imm	1074799.7429964	nan	nan	nan	nan	nan
783.32080078125	0.0	80	1604241	63	50	110	0	1	1074802.2959779	1074802.296428	80	1074805.7286422	1074805.7290927	40	1074808.814243	1074808.8147266	100	imm	1074809.5510743	nan	nan	nan	nan	nan
786.7529296875	0.0	40	1611270	63	50	110	0	1	1074802.2959779	1074802.296428	80	1074805.7286422	1074805.7290927	40	1074808.814243	1074808.8147266	100	imm	1074809.5510743	nan	nan	nan	nan	nan
789.8388671875	0.0	100	1617590	63	50	110	0	1	1074802.2959779	1074802.296428	80	1074805.7286422	1074805.7290927	40	1074808.814243	1074808.8147266	100	imm	1074809.5510743	nan	nan	nan	nan	nan
793.27685546875	0.0	80	1624631	64	67	420	0	0	1074812.2522747	1074812.2528169	80	1074815.5711863	1074815.5716585	40	1074819.0842078	1074819.0847138	100	imm	1074819.863431	nan	nan	nan	nan	nan
796.59521484375	0.0	40	1631427	64	67	420	0	0	1074812.2522747	1074812.2528169	80	1074815.5711863	1074815.5716585	40	1074819.0842078	1074819.0847138	100	imm	1074819.863431	nan	nan	nan	nan	nan
800.1083984375	0.0	100	1638622	64	67	420	0	0	1074812.2522747	1074812.2528169	80	1074815.5711863	1074815.5716585	40	1074819.0842078	1074819.0847138	100	imm	1074819.863431	nan	nan	nan	nan	nan
803.66162109375	0.0	80	1645899	65	50	20	0	0	1074822.6377087	1074822.638057	80	1074826.139411	1074826.1397526	40	1074829.2657348	1074829.2662365	100	imm	1074829.9594893	nan	nan	nan	nan	nan
807.16357421875	0.0	40	1653071	65	50	20	0	0	1074822.6377087	1074822.638057	80	1074826.139411	1074826.1397526	40	1074829.2657348	1074829.2662365	100	imm	1074829.9594893	nan	nan	nan	nan	nan
810.28955078125	0.0	100	1659473	65	50	20	0	0	1074822.6377087	1074822.638057	80	1074826.139411	1074826.1397526	40	1074829.2657348	1074829.2662365	100	imm	1074829.9594893	nan	nan	nan	nan	nan
813.7001953125	0.0	80	1666458	66	73	4	1	0	1074832.6761208	1074832.6765837	80	1074836.0321558	1074836.0325966	40	1074839.0814483	1074839.0819741	100	del	1074840.2714047	4.0	1074842.2073712	1074840.7815257	1074840.7818587	120.0
817.0556640625	0.0	40	1673330	66	73	4	1	0	1074832.6761208	1074832.6765837	80	1074836.0321558	1074836.0325966	40	1074839.0814483	1074839.0819741	100	del	1074840.2714047	4.0	1074842.2073712	1074840.7815257	1074840.7818587	120.0
820.10498046875	0.0	100	1679575	66	73	4	1	0	1074832.6761208	1074832.6765837	80	1074836.0321558	1074836.0325966	40	1074839.0814483	1074839.0819741	100	del	1074840.2714047	4.0	1074842.2073712	1074840.7815257	1074840.7818587	120.0
821.80517578125	0.0	120	1683057	66	73	4	1	0	1074832.6761208	1074832.6765837	80	1074836.0321558	1074836.0325966	40	1074839.0814483	1074839.0819741	100	del	1074840.2714047	4.0	1074842.2073712	1074840.7815257	1074840.7818587	120.0
825.61865234375	0.0	80	1690867	67	53	180	1	1	1074844.5949177	1074844.595445	80	1074847.8111476	1074847.8115455	40	1074851.229806	1074851.2302257	100	imm	1074852.1750127	3.0	1074854.231483	1074852.684596	1074852.6849166	120.0
828.83447265625	0.0	40	1697453	67	53	180	1	1	1074844.5949177	1074844.595445	80	1074847.8111476	1074847.8115455	40	1074851.229806	1074851.2302257	100	imm	1074852.1750127	3.0	1074854.231483	1074852.684596	1074852.6849166	120.0
832.25341796875	0.0	100	1704455	67	53	180	1	1	1074844.5949177	1074844.595445	80	1074847.8111476	1074847.8115455	40	1074851.229806	1074851.2302257	100	imm	1074852.1750127	3.0	1074854.231483	1074852.684596	1074852.6849166	120.0
833.7080078125	0.0	120	1707434	67	53	180	1	1	1074844.5949177	1074844.595445	80	1074847.8111476	1074847.8115455	40	1074851.229806	1074851.2302257	100	imm	1074852.1750127	3.0	1074854.231483	1074852.684596	1074852.6849166	120.0
837.45654296875	0.0	80	1715111	68	53	1240	0	1	1074856.4334769	1074856.4337707	80	1074859.6004074	1074859.6008606	40	1074863.1062136	1074863.10672	100	imm	1074863.7355401	nan	nan	nan	nan	nan
840.62353515625	0.0	40	1721597	68	53	1240	0	1	1074856.4334769	1074856.4337707	80	1074859.6004074	1074859.6008606	40	1074863.1062136	1074863.10672	100	imm	1074863.7355401	nan	nan	nan	nan	nan
844.12939453125	0.0	100	1728777	68	53	1240	0	1	1074856.4334769	1074856.4337707	80	1074859.6004074	1074859.6008606	40	1074863.1062136	1074863.10672	100	imm	1074863.7355401	nan	nan	nan	nan	nan
847.63427734375	0.0	80	1735955	69	70	20	0	1	1074866.6111433	1074866.6116769	80	1074869.8253691	1074869.8258268	40	1074872.8875939	1074872.8880234	100	del	1074873.5763476	nan	nan	nan	nan	nan
850.84814453125	0.0	40	1742537	69	70	20	0	1	1074866.6111433	1074866.6116769	80	1074869.8253691	1074869.8258268	40	1074872.8875939	1074872.8880234	100	del	1074873.5763476	nan	nan	nan	nan	nan
853.91064453125	0.0	100	1748809	69	70	20	0	1	1074866.6111433	1074866.6116769	80	1074869.8253691	1074869.8258268	40	1074872.8875939	1074872.8880234	100	del	1074873.5763476	nan	nan	nan	nan	nan
857.4833984375	0.0	80	1756126	70	73	720	1	1	1074876.4607285	1074876.4611742	80	1074879.7867455	1074879.7872135	40	1074882.836628	1074882.8371294	100	del	1074885.6471658	3.0	1074888.1192555	1074886.1582363	1074886.1586527	120.0
860.8095703125	0.0	40	1762938	70	73	720	1	1	1074876.4607285	1074876.4611742	80	1074879.7867455	1074879.7872135	40	1074882.836628	1074882.8371294	100	del	1074885.6471658	3.0	1074888.1192555	1074886.1582363	1074886.1586527	120.0
863.859375	0.0	100	1769184	70	73	720	1	1	1074876.4607285	1074876.4611742	80	1074879.7867455	1074879.7872135	40	1074882.836628	1074882.8371294	100	del	1074885.6471658	3.0	1074888.1192555	1074886.1582363	1074886.1586527	120.0
867.1806640625	0.0	120	1775986	70	73	720	1	1	1074876.4607285	1074876.4611742	80	1074879.7867455	1074879.7872135	40	1074882.836628	1074882.8371294	100	del	1074885.6471658	3.0	1074888.1192555	1074886.1582363	1074886.1586527	120.0
871.21337890625	0.0	80	1784245	71	50	240	1	1	1074890.191264	1074890.1915769	80	1074893.6875467	1074893.6879029	40	1074896.9468881	1074896.9472768	100	imm	1074897.6395001	3.0	1074899.7347996	1074898.1516977	1074898.1522166	120.0
874.7099609375	0.0	40	1791406	71	50	240	1	1	1074890.191264	1074890.1915769	80	1074893.6875467	1074893.6879029	40	1074896.9468881	1074896.9472768	100	imm	1074897.6395001	3.0	1074899.7347996	1074898.1516977	1074898.1522166	120.0
877.96923828125	0.0	100	1798081	71	50	240	1	1	1074890.191264	1074890.1915769	80	1074893.6875467	1074893.6879029	40	1074896.9468881	1074896.9472768	100	imm	1074897.6395001	3.0	1074899.7347996	1074898.1516977	1074898.1522166	120.0
879.173828125	0.0	120	1800548	71	50	240	1	1	1074890.191264	1074890.1915769	80	1074893.6875467	1074893.6879029	40	1074896.9468881	1074896.9472768	100	imm	1074897.6395001	3.0	1074899.7347996	1074898.1516977	1074898.1522166	120.0
882.78076171875	0.0	80	1807935	72	70	60	1	1	1074901.7585494	1074901.7588814	80	1074904.792838	1074904.7932513	40	1074907.8767149	1074907.877222	100	del	1074909.0725978	3.0	1074911.8068011	1074909.5857012	1074909.5861975	120.0
885.81494140625	0.0	40	1814149	72	70	60	1	1	1074901.7585494	1074901.7588814	80	1074904.792838	1074904.7932513	40	1074907.8767149	1074907.877222	100	del	1074909.0725978	3.0	1074911.8068011	1074909.5857012	1074909.5861975	120.0
888.89892578125	0.0	100	1820465	72	70	60	1	1	1074901.7585494	1074901.7588814	80	1074904.792838	1074904.7932513	40	1074907.8767149	1074907.877222	100	del	1074909.0725978	3.0	1074911.8068011	1074909.5857012	1074909.5861975	120.0
890.60791015625	0.0	120	1823965	72	70	60	1	1	1074901.7585494	1074901.7588814	80	1074904.792838	1074904.7932513	40	1074907.8767149	1074907.877222	100	del	1074909.0725978	3.0	1074911.8068011	1074909.5857012	1074909.5861975	120.0
895.2939453125	0.0	80	1833562	73	87	720	1	1	1074914.2722607	1074914.272663	80	1074917.5121533	1074917.5125967	40	1074920.8057635	1074920.8062632	100	del	1074922.1195503	3.0	1074923.8395629	1074922.6317754	1074922.6322728	120.0
898.53369140625	0.0	40	1840197	73	87	720	1	1	1074914.2722607	1074914.272663	80	1074917.5121533	1074917.5125967	40	1074920.8057635	1074920.8062632	100	del	1074922.1195503	3.0	1074923.8395629	1074922.6317754	1074922.6322728	120.0
901.82763671875	0.0	100	1846943	73	87	720	1	1	1074914.2722607	1074914.272663	80	1074917.5121533	1074917.5125967	40	1074920.8057635	1074920.8062632	100	del	1074922.1195503	3.0	1074923.8395629	1074922.6317754	1074922.6322728	120.0
903.6533203125	0.0	120	1850682	73	87	720	1	1	1074914.2722607	1074914.272663	80	1074917.5121533	1074917.5125967	40	1074920.8057635	1074920.8062632	100	del	1074922.1195503	3.0	1074923.8395629	1074922.6317754	1074922.6322728	120.0
907.12109375	0.0	80	1857784	74	87	180	1	0	1074926.0997265	1074926.1000725	80	1074929.1416457	1074929.1421143	40	1074932.6040868	1074932.6045922	100	del	1074933.6483592	3.0	1074936.3521816	1074934.160373	1074934.1608083	120.0
910.1630859375	0.0	40	1864014	74	87	180	1	0	1074926.0997265	1074926.1000725	80	1074929.1416457	1074929.1421143	40	1074932.6040868	1074932.6045922	100	del	1074933.6483592	3.0	1074936.3521816	1074934.160373	1074934.1608083	120.0
913.62548828125	0.0	100	1871105	74	87	180	1	0	1074926.0997265	1074926.1000725	80	1074929.1416457	1074929.1421143	40	1074932.6040868	1074932.6045922	100	del	1074933.6483592	3.0	1074936.3521816	1074934.160373	1074934.1608083	120.0
915.181640625	0.0	120	1874292	74	87	180	1	0	1074926.0997265	1074926.1000725	80	1074929.1416457	1074929.1421143	40	1074932.6040868	1074932.6045922	100	del	1074933.6483592	3.0	1074936.3521816	1074934.160373	1074934.1608083	120.0
919.53125	0.0	80	1883200	75	97	60	1	1	1074938.5100519	1074938.5105668	80	1074941.6524644	1074941.6529438	40	1074944.9621503	1074944.9626263	100	del	1074945.6554887	3.0	1074947.216194	1074946.1643338	1074946.1645567	120.0
922.673828125	0.0	40	1889636	75	97	60	1	1	1074938.5100519	1074938.5105668	80	1074941.6524644	1074941.6529438	40	1074944.9621503	1074944.9626263	100	del	1074945.6554887	3.0	1074947.216194	1074946.1643338	1074946.1645567	120.0
925.9833984375	0.0	100	1896414	75	97	60	1	1	1074938.5100519	1074938.5105668	80	1074941.6524644	1074941.6529438	40	1074944.9621503	1074944.9626263	100	del	1074945.6554887	3.0	1074947.216194	1074946.1643338	1074946.1645567	120.0
927.185546875	0.0	120	1898876	75	97	60	1	1	1074938.5100519	1074938.5105668	80	1074941.6524644	1074941.6529438	40	1074944.9621503	1074944.9626263	100	del	1074945.6554887	3.0	1074947.216194	1074946.1643338	1074946.1645567	120.0
930.490234375	0.0	80	1905644	76	60	60	1	1	1074949.4691388	1074949.4695632	80	1074952.6608151	1074952.661306	40	1074956.0006085	1074956.0009699	100	del	1074957.3584737	4.0	1074958.5504707	1074957.8698512	1074957.8702369	120.0
933.681640625	0.0	40	1912180	76	60	60	1	1	1074949.4691388	1074949.4695632	80	1074952.6608151	1074952.661306	40	1074956.0006085	1074956.0009699	100	del	1074957.3584737	4.0	1074958.5504707	1074957.8698512	1074957.8702369	120.0
937.021484375	0.0	100	1919020	76	60	60	1	1	1074949.4691388	1074949.4695632	80	1074952.6608151	1074952.661306	40	1074956.0006085	1074956.0009699	100	del	1074957.3584737	4.0	1074958.5504707	1074957.8698512	1074957.8702369	120.0
938.890625	0.0	120	1922848	76	60	60	1	1	1074949.4691388	1074949.4695632	80	1074952.6608151	1074952.661306	40	1074956.0006085	1074956.0009699	100	del	1074957.3584737	4.0	1074958.5504707	1074957.8698512	1074957.8702369	120.0
942.05517578125	0.0	80	1929329	77	83	180	1	1	1074961.034373	1074961.034806	80	1074964.3516205	1074964.3519813	40	1074967.5068576	1074967.5073681	100	del	1074968.5986121	3.0	1074969.9840303	1074969.1087452	1074969.1091086	120.0
945.3720703125	0.0	40	1936122	77	83	180	1	1	1074961.034373	1074961.034806	80	1074964.3516205	1074964.3519813	40	1074967.5068576	1074967.5073681	100	del	1074968.5986121	3.0	1074969.9840303	1074969.1087452	1074969.1091086	120.0
948.52734375	0.0	100	1942584	77	83	180	1	1	1074961.034373	1074961.034806	80	1074964.3516205	1074964.3519813	40	1074967.5068576	1074967.5073681	100	del	1074968.5986121	3.0	1074969.9840303	1074969.1087452	1074969.1091086	120.0
950.12939453125	0.0	120	1945865	77	83	180	1	1	1074961.034373	1074961.034806	80	1074964.3516205	1074964.3519813	40	1074967.5068576	1074967.5073681	100	del	1074968.5986121	3.0	1074969.9840303	1074969.1087452	1074969.1091086	120.0
953.12158203125	0.0	80	1951993	78	100	20	0	0	1074972.1010395	1074972.1015043	80	1074975.3281823	1074975.3286258	40	1074978.3560632	1074978.3565536	100	del	1074981.2225426	nan	nan	nan	nan	nan
956.3486328125	0.0	40	1958602	78	100	20	0	0	1074972.1010395	1074972.1015043	80	1074975.3281823	1074975.3286258	40	1074978.3560632	1074978.3565536	100	del	1074981.2225426	nan	nan	nan	nan	nan
959.37646484375	0.0	100	1964803	78	100	20	0	0	1074972.1010395	1074972.1015043	80	1074975.3281823	1074975.3286258	40	1074978.3560632	1074978.3565536	100	del	1074981.2225426	nan	nan	nan	nan	nan
965.1962890625	0.0	80	1976722	79	90	60	1	1	1074984.1763367	1074984.1767855	80	1074987.4902396	1074987.490736	40	1074990.6043333	1074990.6047695	100	del	1074991.9513082	3.0	1074993.6948405	1074992.4601899	1074992.4605622	120.0
968.51025390625	0.0	40	1983509	79	90	60	1	1	1074984.1763367	1074984.1767855	80	1074987.4902396	1074987.490736	40	1074990.6043333	1074990.6047695	100	del	1074991.9513082	3.0	1074993.6948405	1074992.4601899	1074992.4605622	120.0
971.62451171875	0.0	100	1989887	79	90	60	1	1	1074984.1763367	1074984.1767855	80	1074987.4902396	1074987.490736	40	1074990.6043333	1074990.6047695	100	del	1074991.9513082	3.0	1074993.6948405	1074992.4601899	1074992.4605622	120.0
973.47998046875	0.0	120	1993687	79	90	60	1	1	1074984.1763367	1074984.1767855	80	1074987.4902396	1074987.490736	40	1074990.6043333	1074990.6047695	100	del	1074991.9513082	3.0	1074993.6948405	1074992.4601899	1074992.4605622	120.0
976.9892578125	0.0	80	2000874	80	73	240	1	1	1074995.9694263	1074995.9699189	80	1074999.0041567	1074999.0046256	40	1075002.4484884	1075002.4490036	100	del	1075004.6228946	3.0	1075005.9989799	1075005.1344281	1075005.1348241	120.0
980.02392578125	0.0	40	2007089	80	73	240	1	1	1074995.9694263	1074995.9699189	80	1074999.0041567	1074999.0046256	40	1075002.4484884	1075002.4490036	100	del	1075004.6228946	3.0	1075005.9989799	1075005.1344281	1075005.1348241	120.0
983.46826171875	0.0	100	2014143	80	73	240	1	1	1074995.9694263	1074995.9699189	80	1074999.0041567	1074999.0046256	40	1075002.4484884	1075002.4490036	100	del	1075004.6228946	3.0	1075005.9989799	1075005.1344281	1075005.1348241	120.0
986.15380859375	0.0	120	2019643	80	73	240	1	1	1074995.9694263	1074995.9699189	80	1074999.0041567	1074999.0046256	40	1075002.4484884	1075002.4490036	100	del	1075004.6228946	3.0	1075005.9989799	1075005.1344281	1075005.1348241	120.0
1002.07861328125	0.0	80	2052257	81	57	4	1	0	1075021.0593951	1075021.059677	80	1075024.3417167	1075024.3422413	40	1075027.6378147	1075027.6383632	100	del	1075028.358528	4.0	1075029.7752108	1075028.87145	1075028.8719063	120.0
1005.36083984375	0.0	40	2058979	81	57	4	1	0	1075021.0593951	1075021.059677	80	1075024.3417167	1075024.3422413	40	1075027.6378147	1075027.6383632	100	del	1075028.358528	4.0	1075029.7752108	1075028.87145	1075028.8719063	120.0
1008.65673828125	0.0	100	2065729	81	57	4	1	0	1075021.0593951	1075021.059677	80	1075024.3417167	1075024.3422413	40	1075027.6378147	1075027.6383632	100	del	1075028.358528	4.0	1075029.7752108	1075028.87145	1075028.8719063	120.0
1009.890625	0.0	120	2068256	81	57	4	1	0	1075021.0593951	1075021.059677	80	1075024.3417167	1075024.3422413	40	1075027.6378147	1075027.6383632	100	del	1075028.358528	4.0	1075029.7752108	1075028.87145	1075028.8719063	120.0
1013.14892578125	0.0	80	2074929	82	90	180	1	0	1075032.1300314	1075032.1304758	80	1075035.3244756	1075035.32493	40	1075038.377571	1075038.3780448	100	del	1075040.934762	3.0	1075042.9986296	1075041.4457117	1075041.4460959	120.0
1016.34326171875	0.0	40	2081471	82	90	180	1	0	1075032.1300314	1075032.1304758	80	1075035.3244756	1075035.32493	40	1075038.377571	1075038.3780448	100	del	1075040.934762	3.0	1075042.9986296	1075041.4457117	1075041.4460959	120.0
1019.396484375	0.0	100	2087724	82	90	180	1	0	1075032.1300314	1075032.1304758	80	1075035.3244756	1075035.32493	40	1075038.377571	1075038.3780448	100	del	1075040.934762	3.0	1075042.9986296	1075041.4457117	1075041.4460959	120.0
1022.46435546875	0.0	120	2094007	82	90	180	1	0	1075032.1300314	1075032.1304758	80	1075035.3244756	1075035.32493	40	1075038.377571	1075038.3780448	100	del	1075040.934762	3.0	1075042.9986296	1075041.4457117	1075041.4460959	120.0
1026.2587890625	0.0	80	2101778	83	100	1240	0	1	1075045.2404429	1075045.240852	80	1075048.2732618	1075048.2737045	40	1075051.6563622	1075051.6568956	100	del	1075052.7103639	nan	nan	nan	nan	nan
1029.2919921875	0.0	40	2107990	83	100	1240	0	1	1075045.2404429	1075045.240852	80	1075048.2732618	1075048.2737045	40	1075051.6563622	1075051.6568956	100	del	1075052.7103639	nan	nan	nan	nan	nan
1032.6748046875	0.0	100	2114918	83	100	1240	0	1	1075045.2404429	1075045.240852	80	1075048.2732618	1075048.2737045	40	1075051.6563622	1075051.6568956	100	del	1075052.7103639	nan	nan	nan	nan	nan
1036.2666015625	0.0	80	2122274	84	90	420	0	0	1075055.2481597	1075055.2486246	80	1075058.7327158	1075058.7332183	40	1075062.1170965	1075062.1174943	100	del	1075063.9102628	nan	nan	nan	nan	nan
1039.7509765625	0.0	40	2129410	84	90	420	0	0	1075055.2481597	1075055.2486246	80	1075058.7327158	1075058.7332183	40	1075062.1170965	1075062.1174943	100	del	1075063.9102628	nan	nan	nan	nan	nan
1043.13525390625	0.0	100	2136341	84	90	420	0	0	1075055.2481597	1075055.2486246	80	1075058.7327158	1075058.7332183	40	1075062.1170965	1075062.1174943	100	del	1075063.9102628	nan	nan	nan	nan	nan
1047.91552734375	0.0	80	2146131	85	73	110	0	0	1075066.8974052	1075066.8979262	80	1075070.1617585	1075070.1623053	40	1075073.2954366	1075073.2959157	100	del	1075073.9908584	nan	nan	nan	nan	nan
1051.1796875	0.0	40	2152816	85	73	110	0	0	1075066.8974052	1075066.8979262	80	1075070.1617585	1075070.1623053	40	1075073.2954366	1075073.2959157	100	del	1075073.9908584	nan	nan	nan	nan	nan
1054.3134765625	0.0	100	2159234	85	73	110	0	0	1075066.8974052	1075066.8979262	80	1075070.1617585	1075070.1623053	40	1075073.2954366	1075073.2959157	100	del	1075073.9908584	nan	nan	nan	nan	nan
1057.654296875	0.0	80	2166076	86	57	240	1	0	1075076.6365933	1075076.6371712	80	1075080.0239946	1075080.0243923	40	1075083.5337079	1075083.534286	100	imm	1075084.3278196	4.0	1075086.1261976	1075084.8380915	1075084.8385787	120.0
1061.04150390625	0.0	40	2173013	86	57	240	1	0	1075076.6365933	1075076.6371712	80	1075080.0239946	1075080.0243923	40	1075083.5337079	1075083.534286	100	imm	1075084.3278196	4.0	1075086.1261976	1075084.8380915	1075084.8385787	120.0
1064.55126953125	0.0	100	2180201	86	57	240	1	0	1075076.6365933	1075076.6371712	80	1075080.0239946	1075080.0243923	40	1075083.5337079	1075083.534286	100	imm	1075084.3278196	4.0	1075086.1261976	1075084.8380915	1075084.8385787	120.0
1065.85595703125	0.0	120	2182873	86	57	240	1	0	1075076.6365933	1075076.6371712	80	1075080.0239946	1075080.0243923	40	1075083.5337079	1075083.534286	100	imm	1075084.3278196	4.0	1075086.1261976	1075084.8380915	1075084.8385787	120.0
1069.33544921875	0.0	80	2189999	87	97	1240	0	0	1075088.3181937	1075088.3185353	80	1075091.7030594	1075091.7035481	40	1075094.7716598	1075094.7721368	100	del	1075097.1825916	nan	nan	nan	nan	nan
1072.720703125	0.0	40	2196932	87	97	1240	0	0	1075088.3181937	1075088.3185353	80	1075091.7030594	1075091.7035481	40	1075094.7716598	1075094.7721368	100	del	1075097.1825916	nan	nan	nan	nan	nan
1075.7890625	0.0	100	2203216	87	97	1240	0	0	1075088.3181937	1075088.3185353	80	1075091.7030594	1075091.7035481	40	1075094.7716598	1075094.7721368	100	del	1075097.1825916	nan	nan	nan	nan	nan
1081.01513671875	0.0	80	2213919	88	97	240	1	0	1075099.9981007	1075099.9985828	80	1075103.2213349	1075103.2219299	40	1075106.600652	1075106.6011659	100	del	1075107.4560779	4.0	1075109.0627086	1075107.9667612	1075107.9672868	120.0
1084.23876953125	0.0	40	2220521	88	97	240	1	0	1075099.9981007	1075099.9985828	80	1075103.2213349	1075103.2219299	40	1075106.600652	1075106.6011659	100	del	1075107.4560779	4.0	1075109.0627086	1075107.9667612	1075107.9672868	120.0
1087.61767578125	0.0	100	2227441	88	97	240	1	0	1075099.9981007	1075099.9985828	80	1075103.2213349	1075103.2219299	40	1075106.600652	1075106.6011659	100	del	1075107.4560779	4.0	1075109.0627086	1075107.9667612	1075107.9672868	120.0
1088.98388671875	0.0	120	2230239	88	97	240	1	0	1075099.9981007	1075099.9985828	80	1075103.2213349	1075103.2219299	40	1075106.600652	1075106.6011659	100	del	1075107.4560779	4.0	1075109.0627086	1075107.9667612	1075107.9672868	120.0
1092.22412109375	0.0	80	2236875	89	97	110	0	0	1075111.2071367	1075111.2076002	80	1075114.2620786	1075114.2625333	40	1075117.5014633	1075117.5019548	100	del	1075118.1503966	nan	nan	nan	nan	nan
1095.27880859375	0.0	40	2243131	89	97	110	0	0	1075111.2071367	1075111.2076002	80	1075114.2620786	1075114.2625333	40	1075117.5014633	1075117.5019548	100	del	1075118.1503966	nan	nan	nan	nan	nan
1098.5185546875	0.0	100	2249766	89	97	110	0	0	1075111.2071367	1075111.2076002	80	1075114.2620786	1075114.2625333	40	1075117.5014633	1075117.5019548	100	del	1075118.1503966	nan	nan	nan	nan	nan
1102.0048828125	0.0	80	2256906	90	70	210	0	1	1075120.9879432	1075120.9883989	80	1075124.0618429	1075124.0623083	40	1075127.3023389	1075127.3028434	100	imm	1075130.2624907	nan	nan	nan	nan	nan
1105.07861328125	0.0	40	2263201	90	70	210	0	1	1075120.9879432	1075120.9883989	80	1075124.0618429	1075124.0623083	40	1075127.3023389	1075127.3028434	100	imm	1075130.2624907	nan	nan	nan	nan	nan
1108.31884765625	0.0	100	2269837	90	70	210	0	1	1075120.9879432	1075120.9883989	80	1075124.0618429	1075124.0623083	40	1075127.3023389	1075127.3028434	100	imm	1075130.2624907	nan	nan	nan	nan	nan
1114.12353515625	0.0	80	2281725	91	63	180	1	0	1075133.1070717	1075133.1076429	80	1075136.5272971	1075136.5278107	40	1075139.6958078	1075139.6963466	100	imm	1075141.4067658	3.0	1075143.1027604	1075141.915805	1075141.9160986	120.0
1117.5439453125	0.0	40	2288730	91	63	180	1	0	1075133.1070717	1075133.1076429	80	1075136.5272971	1075136.5278107	40	1075139.6958078	1075139.6963466	100	imm	1075141.4067658	3.0	1075143.1027604	1075141.915805	1075141.9160986	120.0
1120.7119140625	0.0	100	2295218	91	63	180	1	0	1075133.1070717	1075133.1076429	80	1075136.5272971	1075136.5278107	40	1075139.6958078	1075139.6963466	100	imm	1075141.4067658	3.0	1075143.1027604	1075141.915805	1075141.9160986	120.0
1122.93212890625	0.0	120	2299765	91	63	180	1	0	1075133.1070717	1075133.1076429	80	1075136.5272971	1075136.5278107	40	1075139.6958078	1075139.6963466	100	imm	1075141.4067658	3.0	1075143.1027604	1075141.915805	1075141.9160986	120.0
1126.3349609375	0.0	80	2306734	92	63	110	0	1	1075145.3190849	1075145.3195553	80	1075148.7688955	1075148.7693684	40	1075152.1305457	1075152.1310106	100	imm	1075152.9585634	nan	nan	nan	nan	nan
1129.78515625	0.0	40	2313800	92	63	110	0	1	1075145.3190849	1075145.3195553	80	1075148.7688955	1075148.7693684	40	1075152.1305457	1075152.1310106	100	imm	1075152.9585634	nan	nan	nan	nan	nan
1133.146484375	0.0	100	2320684	92	63	110	0	1	1075145.3190849	1075145.3195553	80	1075148.7688955	1075148.7693684	40	1075152.1305457	1075152.1310106	100	imm	1075152.9585634	nan	nan	nan	nan	nan
1136.6083984375	0.0	80	2327774	93	80	20	0	0	1075155.5928482	1075155.5931437	80	1075158.9805041	1075158.980989	40	1075162.1387508	1075162.1392653	100	del	1075163.2621957	nan	nan	nan	nan	nan
1139.99609375	0.0	40	2334712	93	80	20	0	0	1075155.5928482	1075155.5931437	80	1075158.9805041	1075158.980989	40	1075162.1387508	1075162.1392653	100	del	1075163.2621957	nan	nan	nan	nan	nan
1143.154296875	0.0	100	2341180	93	80	20	0	0	1075155.5928482	1075155.5931437	80	1075158.9805041	1075158.980989	40	1075162.1387508	1075162.1392653	100	del	1075163.2621957	nan	nan	nan	nan	nan
1146.9345703125	0.0	80	2348922	94	80	60	1	0	1075165.9190333	1075165.9195449	80	1075168.9296869	1075168.9301315	40	1075172.1304167	1075172.1309087	100	del	1075172.9358032	3.0	1075175.7183118	1075173.4457331	1075173.4460527	120.0
1149.9453125	0.0	40	2355088	94	80	60	1	0	1075165.9190333	1075165.9195449	80	1075168.9296869	1075168.9301315	40	1075172.1304167	1075172.1309087	100	del	1075172.9358032	3.0	1075175.7183118	1075173.4457331	1075173.4460527	120.0
1153.14599609375	0.0	100	2361643	94	80	60	1	0	1075165.9190333	1075165.9195449	80	1075168.9296869	1075168.9301315	40	1075172.1304167	1075172.1309087	100	del	1075172.9358032	3.0	1075175.7183118	1075173.4457331	1075173.4460527	120.0
1154.4609375	0.0	120	2364336	94	80	60	1	0	1075165.9190333	1075165.9195449	80	1075168.9296869	1075168.9301315	40	1075172.1304167	1075172.1309087	100	del	1075172.9358032	3.0	1075175.7183118	1075173.4457331	1075173.4460527	120.0
1158.96533203125	0.0	80	2373561	95	60	1240	0	1	1075177.9500018	1075177.9504768	80	1075181.1100898	1075181.1105347	40	1075184.2685395	1075184.2690283	100	imm	1075185.5183303	nan	nan	nan	nan	nan
1162.12548828125	0.0	40	2380033	95	60	1240	0	1	1075177.9500018	1075177.9504768	80	1075181.1100898	1075181.1105347	40	1075184.2685395	1075184.2690283	100	imm	1075185.5183303	nan	nan	nan	nan	nan
1165.28369140625	0.0	100	2386501	95	60	1240	0	1	1075177.9500018	1075177.9504768	80	1075181.1100898	1075181.1105347	40	1075184.2685395	1075184.2690283	100	imm	1075185.5183303	nan	nan	nan	nan	nan
1169.171875	0.0	80	2394464	96	77	1240	0	0	1075188.1569558	1075188.1575362	80	1075191.6320446	1075191.6323825	40	1075195.0752893	1075195.0757836	100	imm	1075196.4237413	nan	nan	nan	nan	nan
1172.64697265625	0.0	40	2401581	96	77	1240	0	0	1075188.1569558	1075188.1575362	80	1075191.6320446	1075191.6323825	40	1075195.0752893	1075195.0757836	100	imm	1075196.4237413	nan	nan	nan	nan	nan
1176.09033203125	0.0	100	2408633	96	77	1240	0	0	1075188.1569558	1075188.1575362	80	1075191.6320446	1075191.6323825	40	1075195.0752893	1075195.0757836	100	imm	1075196.4237413	nan	nan	nan	nan	nan
1180.154296875	0.0	80	2416956	97	50	4	1	0	1075199.1396277	1075199.1401187	80	1075202.3883081	1075202.3888436	40	1075205.6840495	1075205.6845244	100	del	1075206.7278326	4.0	1075208.9104225	1075207.2376856	1075207.2380281	120.0
1183.40283203125	0.0	40	2423609	97	50	4	1	0	1075199.1396277	1075199.1401187	80	1075202.3883081	1075202.3888436	40	1075205.6840495	1075205.6845244	100	del	1075206.7278326	4.0	1075208.9104225	1075207.2376856	1075207.2380281	120.0
1186.69873046875	0.0	100	2430359	97	50	4	1	0	1075199.1396277	1075199.1401187	80	1075202.3883081	1075202.3888436	40	1075205.6840495	1075205.6845244	100	del	1075206.7278326	4.0	1075208.9104225	1075207.2376856	1075207.2380281	120.0
1188.25244140625	0.0	120	2433541	97	50	4	1	0	1075199.1396277	1075199.1401187	80	1075202.3883081	1075202.3888436	40	1075205.6840495	1075205.6845244	100	del	1075206.7278326	4.0	1075208.9104225	1075207.2376856	1075207.2380281	120.0
1192.18603515625	0.0	80	2441597	98	70	420	0	1	1075211.1718109	1075211.1726104	80	1075214.3145918	1075214.3151117	40	1075217.8230333	1075217.8234774	100	imm	1075220.6860391	nan	nan	nan	nan	nan
1195.3291015625	0.0	40	2448034	98	70	420	0	1	1075211.1718109	1075211.1726104	80	1075214.3145918	1075214.3151117	40	1075217.8230333	1075217.8234774	100	imm	1075220.6860391	nan	nan	nan	nan	nan
1198.83740234375	0.0	100	2455219	98	70	420	0	1	1075211.1718109	1075211.1726104	80	1075214.3145918	1075214.3151117	40	1075217.8230333	1075217.8234774	100	imm	1075220.6860391	nan	nan	nan	nan	nan
1204.30810546875	0.0	80	2466423	99	97	180	1	1	1075223.2940033	1075223.2944744	80	1075226.7324633	1075226.7330342	40	1075229.7618404	1075229.7623072	100	del	1075230.6784119	2.0	1075234.6461397	1075231.1886992	1075231.1890805	120.0
1207.74658203125	0.0	40	2473465	99	97	180	1	1	1075223.2940033	1075223.2944744	80	1075226.7324633	1075226.7330342	40	1075229.7618404	1075229.7623072	100	del	1075230.6784119	2.0	1075234.6461397	1075231.1886992	1075231.1890805	120.0
1210.77587890625	0.0	100	2479669	99	97	180	1	1	1075223.2940033	1075223.2944744	80	1075226.7324633	1075226.7330342	40	1075229.7618404	1075229.7623072	100	del	1075230.6784119	2.0	1075234.6461397	1075231.1886992	1075231.1890805	120.0
1212.20263671875	0.0	120	2482591	99	97	180	1	1	1075223.2940033	1075223.2944744	80	1075226.7324633	1075226.7330342	40	1075229.7618404	1075229.7623072	100	del	1075230.6784119	2.0	1075234.6461397	1075231.1886992	1075231.1890805	120.0
1217.83935546875	0.0	80	2494135	100	90	20	0	1	1075236.8257588	1075236.8261263	80	1075240.2076337	1075240.2081235	40	1075243.5428429	1075243.54326	100	del	1075245.6305773	nan	nan	nan	nan	nan
1221.22119140625	0.0	40	2501061	100	90	20	0	1	1075236.8257588	1075236.8261263	80	1075240.2076337	1075240.2081235	40	1075243.5428429	1075243.54326	100	del	1075245.6305773	nan	nan	nan	nan	nan
1224.556640625	0.0	100	2507892	100	90	20	0	1	1075236.8257588	1075236.8261263	80	1075240.2076337	1075240.2081235	40	1075243.5428429	1075243.54326	100	del	1075245.6305773	nan	nan	nan	nan	nan
1235.01708984375	0.0	80	2529315	101	57	210	0	1	1075254.0035954	1075254.003896	80	1075257.4868329	1075257.4872662	40	1075260.7717276	1075260.7722008	100	imm	1075261.4861539	nan	nan	nan	nan	nan
1238.5	0.0	40	2536448	101	57	210	0	1	1075254.0035954	1075254.003896	80	1075257.4868329	1075257.4872662	40	1075260.7717276	1075260.7722008	100	imm	1075261.4861539	nan	nan	nan	nan	nan
1241.78515625	0.0	100	2543176	101	57	210	0	1	1075254.0035954	1075254.003896	80	1075257.4868329	1075257.4872662	40	1075260.7717276	1075260.7722008	100	imm	1075261.4861539	nan	nan	nan	nan	nan
1245.13916015625	0.0	80	2550045	102	77	20	0	0	1075264.1261934	1075264.1265398	80	1075267.4220154	1075267.422406	40	1075270.8924953	1075270.8929496	100	del	1075271.7109634	nan	nan	nan	nan	nan
1248.43505859375	0.0	40	2556795	102	77	20	0	0	1075264.1261934	1075264.1265398	80	1075267.4220154	1075267.422406	40	1075270.8924953	1075270.8929496	100	del	1075271.7109634	nan	nan	nan	nan	nan
1251.9052734375	0.0	100	2563902	102	77	20	0	0	1075264.1261934	1075264.1265398	80	1075267.4220154	1075267.422406	40	1075270.8924953	1075270.8929496	100	del	1075271.7109634	nan	nan	nan	nan	nan
1255.689453125	0.0	80	2571652	103	80	720	1	1	1075274.6763139	1075274.6769623	80	1075277.9257461	1075277.9262687	40	1075281.1622711	1075281.162836	100	del	1075282.7025101	3.0	1075286.0301016	1075283.2122068	1075283.2125202	120.0
1258.9384765625	0.0	40	2578306	103	80	720	1	1	1075274.6763139	1075274.6769623	80	1075277.9257461	1075277.9262687	40	1075281.1622711	1075281.162836	100	del	1075282.7025101	3.0	1075286.0301016	1075283.2122068	1075283.2125202	120.0
1262.17529296875	0.0	100	2584935	103	80	720	1	1	1075274.6763139	1075274.6769623	80	1075277.9257461	1075277.9262687	40	1075281.1622711	1075281.162836	100	del	1075282.7025101	3.0	1075286.0301016	1075283.2122068	1075283.2125202	120.0
1264.224609375	0.0	120	2589132	103	80	720	1	1	1075274.6763139	1075274.6769623	80	1075277.9257461	1075277.9262687	40	1075281.1622711	1075281.162836	100	del	1075282.7025101	3.0	1075286.0301016	1075283.2122068	1075283.2125202	120.0
1269.21435546875	0.0	80	2599351	104	87	60	1	1	1075288.2019996	1075288.202494	80	1075291.2370641	1075291.2375585	40	1075294.6277486	1075294.6282857	100	imm	1075296.9836997	3.0	1075299.0946754	1075297.4937395	1075297.4941073	120.0
1272.24951171875	0.0	40	2605567	104	87	60	1	1	1075288.2019996	1075288.202494	80	1075291.2370641	1075291.2375585	40	1075294.6277486	1075294.6282857	100	imm	1075296.9836997	3.0	1075299.0946754	1075297.4937395	1075297.4941073	120.0
1275.64013671875	0.0	100	2612511	104	87	60	1	1	1075288.2019996	1075288.202494	80	1075291.2370641	1075291.2375585	40	1075294.6277486	1075294.6282857	100	imm	1075296.9836997	3.0	1075299.0946754	1075297.4937395	1075297.4941073	120.0
1278.505859375	0.0	120	2618380	104	87	60	1	1	1075288.2019996	1075288.202494	80	1075291.2370641	1075291.2375585	40	1075294.6277486	1075294.6282857	100	imm	1075296.9836997	3.0	1075299.0946754	1075297.4937395	1075297.4941073	120.0
1282.1875	0.0	80	2625920	105	97	720	1	1	1075301.1751602	1075301.1755714	80	1075304.3611004	1075304.3615853	40	1075307.5717482	1075307.5723143	100	imm	1075309.2380961	2.0	1075311.5904999	1075309.7497501	1075309.7502656	120.0
1285.373046875	0.0	40	2632444	105	97	720	1	1	1075301.1751602	1075301.1755714	80	1075304.3611004	1075304.3615853	40	1075307.5717482	1075307.5723143	100	imm	1075309.2380961	2.0	1075311.5904999	1075309.7497501	1075309.7502656	120.0
1288.583984375	0.0	100	2639020	105	97	720	1	1	1075301.1751602	1075301.1755714	80	1075304.3611004	1075304.3615853	40	1075307.5717482	1075307.5723143	100	imm	1075309.2380961	2.0	1075311.5904999	1075309.7497501	1075309.7502656	120.0
1290.76171875	0.0	120	2643480	105	97	720	1	1	1075301.1751602	1075301.1755714	80	1075304.3611004	1075304.3615853	40	1075307.5717482	1075307.5723143	100	imm	1075309.2380961	2.0	1075311.5904999	1075309.7497501	1075309.7502656	120.0
1295.0595703125	0.0	80	2652282	106	100	110	0	0	1075314.0476644	1075314.0481124	80	1075317.0647228	1075317.0650817	40	1075320.4997693	1075320.5001969	100	del	1075322.1739544	nan	nan	nan	nan	nan
1298.07666015625	0.0	40	2658461	106	100	110	0	0	1075314.0476644	1075314.0481124	80	1075317.0647228	1075317.0650817	40	1075320.4997693	1075320.5001969	100	del	1075322.1739544	nan	nan	nan	nan	nan
1301.51171875	0.0	100	2665496	106	100	110	0	0	1075314.0476644	1075314.0481124	80	1075317.0647228	1075317.0650817	40	1075320.4997693	1075320.5001969	100	del	1075322.1739544	nan	nan	nan	nan	nan
1305.84716796875	0.0	80	2674375	107	83	720	1	0	1075324.8357126	1075324.8361676	80	1075327.9692227	1075327.9698235	40	1075331.2283301	1075331.2288095	100	imm	1075332.598506	3.0	1075334.4382497	1075333.1105922	1075333.1110648	120.0
1308.98095703125	0.0	40	2680793	107	83	720	1	0	1075324.8357126	1075324.8361676	80	1075327.9692227	1075327.9698235	40	1075331.2283301	1075331.2288095	100	imm	1075332.598506	3.0	1075334.4382497	1075333.1105922	1075333.1110648	120.0
1312.23974609375	0.0	100	2687467	107	83	720	1	0	1075324.8357126	1075324.8361676	80	1075327.9692227	1075327.9698235	40	1075331.2283301	1075331.2288095	100	imm	1075332.598506	3.0	1075334.4382497	1075333.1105922	1075333.1110648	120.0
1314.1220703125	0.0	120	2691322	107	83	720	1	0	1075324.8357126	1075324.8361676	80	1075327.9692227	1075327.9698235	40	1075331.2283301	1075331.2288095	100	imm	1075332.598506	3.0	1075334.4382497	1075333.1105922	1075333.1110648	120.0
1317.828125	0.0	80	2698912	108	70	4	1	1	1075336.8168641	1075336.8173667	80	1075339.9257976	1075339.9263089	40	1075343.0472663	1075343.0478007	100	del	1075345.9196478	4.0	1075347.1584375	1075346.429293	1075346.4297052	120.0
1320.93701171875	0.0	40	2705279	108	70	4	1	1	1075336.8168641	1075336.8173667	80	1075339.9257976	1075339.9263089	40	1075343.0472663	1075343.0478007	100	del	1075345.9196478	4.0	1075347.1584375	1075346.429293	1075346.4297052	120.0
1324.05859375	0.0	100	2711672	108	70	4	1	1	1075336.8168641	1075336.8173667	80	1075339.9257976	1075339.9263089	40	1075343.0472663	1075343.0478007	100	del	1075345.9196478	4.0	1075347.1584375	1075346.429293	1075346.4297052	120.0
1327.4404296875	0.0	120	2718598	108	70	4	1	1	1075336.8168641	1075336.8173667	80	1075339.9257976	1075339.9263089	40	1075343.0472663	1075343.0478007	100	del	1075345.9196478	4.0	1075347.1584375	1075346.429293	1075346.4297052	120.0
1330.67236328125	0.0	80	2725217	109	73	1240	0	0	1075349.6610902	1075349.6614957	80	1075352.9651693	1075352.9656642	40	1075356.1304316	1075356.130927	100	imm	1075357.3979471	nan	nan	nan	nan	nan
1333.97607421875	0.0	40	2731983	109	73	1240	0	0	1075349.6610902	1075349.6614957	80	1075352.9651693	1075352.9656642	40	1075356.1304316	1075356.130927	100	imm	1075357.3979471	nan	nan	nan	nan	nan
1337.14111328125	0.0	100	2738465	109	73	1240	0	0	1075349.6610902	1075349.6614957	80	1075352.9651693	1075352.9656642	40	1075356.1304316	1075356.130927	100	imm	1075357.3979471	nan	nan	nan	nan	nan
1341.4111328125	0.0	80	2747210	110	93	1240	0	1	1075360.3999696	1075360.4006568	80	1075363.8559802	1075363.8564394	40	1075366.9607378	1075366.9611055	100	imm	1075368.1265095	nan	nan	nan	nan	nan
1344.86669921875	0.0	40	2754287	110	93	1240	0	1	1075360.3999696	1075360.4006568	80	1075363.8559802	1075363.8564394	40	1075366.9607378	1075366.9611055	100	imm	1075368.1265095	nan	nan	nan	nan	nan
1347.97119140625	0.0	100	2760645	110	93	1240	0	1	1075360.3999696	1075360.4006568	80	1075363.8559802	1075363.8564394	40	1075366.9607378	1075366.9611055	100	imm	1075368.1265095	nan	nan	nan	nan	nan
1351.654296875	0.0	80	2768188	111	87	4	1	0	1075370.6438052	1075370.6443099	80	1075374.0073582	1075374.007847	40	1075377.4543366	1075377.4548687	100	del	1075378.2945971	4.0	1075379.5738809	1075378.8049459	1075378.8053392	120.0
1355.01806640625	0.0	40	2775077	111	87	4	1	0	1075370.6438052	1075370.6443099	80	1075374.0073582	1075374.007847	40	1075377.4543366	1075377.4548687	100	del	1075378.2945971	4.0	1075379.5738809	1075378.8049459	1075378.8053392	120.0
1358.46484375	0.0	100	2782136	111	87	4	1	0	1075370.6438052	1075370.6443099	80	1075374.0073582	1075374.007847	40	1075377.4543366	1075377.4548687	100	del	1075378.2945971	4.0	1075379.5738809	1075378.8049459	1075378.8053392	120.0
1359.8154296875	0.0	120	2784902	111	87	4	1	0	1075370.6438052	1075370.6443099	80	1075374.0073582	1075374.007847	40	1075377.4543366	1075377.4548687	100	del	1075378.2945971	4.0	1075379.5738809	1075378.8049459	1075378.8053392	120.0
1362.654296875	0.0	80	2790716	112	50	60	1	1	1075381.6441365	1075381.6444013	80	1075384.6706092	1075384.6710832	40	1075387.9835147	1075387.9840283	100	imm	1075389.439078	3.0	1075391.6140246	1075389.949658	1075389.949994	120.0
1365.6806640625	0.0	40	2796914	112	50	60	1	1	1075381.6441365	1075381.6444013	80	1075384.6706092	1075384.6710832	40	1075387.9835147	1075387.9840283	100	imm	1075389.439078	3.0	1075391.6140246	1075389.949658	1075389.949994	120.0
1368.99365234375	0.0	100	2803699	112	50	60	1	1	1075381.6441365	1075381.6444013	80	1075384.6706092	1075384.6710832	40	1075387.9835147	1075387.9840283	100	imm	1075389.439078	3.0	1075391.6140246	1075389.949658	1075389.949994	120.0
1370.95947265625	0.0	120	2807725	112	50	60	1	1	1075381.6441365	1075381.6444013	80	1075384.6706092	1075384.6710832	40	1075387.9835147	1075387.9840283	100	imm	1075389.439078	3.0	1075391.6140246	1075389.949658	1075389.949994	120.0
1374.94091796875	0.0	80	2815879	113	67	4	1	0	1075393.9310063	1075393.9315907	80	1075397.1968901	1075397.1976397	40	1075400.2143855	1075400.2148651	100	del	1075401.1578214	4.0	1075402.5581321	1075401.6692522	1075401.6697219	120.0
1378.20654296875	0.0	40	2822567	113	67	4	1	0	1075393.9310063	1075393.9315907	80	1075397.1968901	1075397.1976397	40	1075400.2143855	1075400.2148651	100	del	1075401.1578214	4.0	1075402.5581321	1075401.6692522	1075401.6697219	120.0
1381.22412109375	0.0	100	2828747	113	67	4	1	0	1075393.9310063	1075393.9315907	80	1075397.1968901	1075397.1976397	40	1075400.2143855	1075400.2148651	100	del	1075401.1578214	4.0	1075402.5581321	1075401.6692522	1075401.6697219	120.0
1382.67919921875	0.0	120	2831727	113	67	4	1	0	1075393.9310063	1075393.9315907	80	1075397.1968901	1075397.1976397	40	1075400.2143855	1075400.2148651	100	del	1075401.1578214	4.0	1075402.5581321	1075401.6692522	1075401.6697219	120.0
1385.9267578125	0.0	80	2838378	114	77	720	1	0	1075404.9171092	1075404.9175776	80	1075408.3977311	1075408.3982154	40	1075411.847512	1075411.8480057	100	imm	1075412.7581774	3.0	1075415.3336684	1075413.2675396	1075413.2678866	120.0
1389.4072265625	0.0	40	2845506	114	77	720	1	0	1075404.9171092	1075404.9175776	80	1075408.3977311	1075408.3982154	40	1075411.847512	1075411.8480057	100	imm	1075412.7581774	3.0	1075415.3336684	1075413.2675396	1075413.2678866	120.0
1392.85693359375	0.0	100	2852571	114	77	720	1	0	1075404.9171092	1075404.9175776	80	1075408.3977311	1075408.3982154	40	1075411.847512	1075411.8480057	100	imm	1075412.7581774	3.0	1075415.3336684	1075413.2675396	1075413.2678866	120.0
1394.27685546875	0.0	120	2855479	114	77	720	1	0	1075404.9171092	1075404.9175776	80	1075408.3977311	1075408.3982154	40	1075411.847512	1075411.8480057	100	imm	1075412.7581774	3.0	1075415.3336684	1075413.2675396	1075413.2678866	120.0
1398.4130859375	0.0	80	2863950	115	80	240	1	0	1075417.4038143	1075417.4041727	80	1075420.5872603	1075420.5875753	40	1075423.7240009	1075423.7244868	100	imm	1075426.6632935	3.0	1075428.3342101	1075427.1725897	1075427.1729148	120.0
1401.5966796875	0.0	40	2870470	115	80	240	1	0	1075417.4038143	1075417.4041727	80	1075420.5872603	1075420.5875753	40	1075423.7240009	1075423.7244868	100	imm	1075426.6632935	3.0	1075428.3342101	1075427.1725897	1075427.1729148	120.0
1404.7333984375	0.0	100	2876894	115	80	240	1	0	1075417.4038143	1075417.4041727	80	1075420.5872603	1075420.5875753	40	1075423.7240009	1075423.7244868	100	imm	1075426.6632935	3.0	1075428.3342101	1075427.1725897	1075427.1729148	120.0
1408.181640625	0.0	120	2883956	115	80	240	1	0	1075417.4038143	1075417.4041727	80	1075420.5872603	1075420.5875753	40	1075423.7240009	1075423.7244868	100	imm	1075426.6632935	3.0	1075428.3342101	1075427.1725897	1075427.1729148	120.0
1411.6396484375	0.0	80	2891038	116	90	1240	0	1	1075430.6305369	1075430.6310035	80	1075433.9446126	1075433.9450704	40	1075437.1080738	1075437.1087144	100	imm	1075438.2543472	nan	nan	nan	nan	nan
1414.95361328125	0.0	40	2897825	116	90	1240	0	1	1075430.6305369	1075430.6310035	80	1075433.9446126	1075433.9450704	40	1075437.1080738	1075437.1087144	100	imm	1075438.2543472	nan	nan	nan	nan	nan
1418.1171875	0.0	100	2904304	116	90	1240	0	1	1075430.6305369	1075430.6310035	80	1075433.9446126	1075433.9450704	40	1075437.1080738	1075437.1087144	100	imm	1075438.2543472	nan	nan	nan	nan	nan
1422.1806640625	0.0	80	2912626	117	83	20	0	0	1075441.1716478	1075441.1721034	80	1075444.5764422	1075444.5768522	40	1075447.9799665	1075447.9804051	100	del	1075448.887252	nan	nan	nan	nan	nan
1425.5849609375	0.0	40	2919598	117	83	20	0	0	1075441.1716478	1075441.1721034	80	1075444.5764422	1075444.5768522	40	1075447.9799665	1075447.9804051	100	del	1075448.887252	nan	nan	nan	nan	nan
1428.98876953125	0.0	100	2926569	117	83	20	0	0	1075441.1716478	1075441.1721034	80	1075444.5764422	1075444.5768522	40	1075447.9799665	1075447.9804051	100	del	1075448.887252	nan	nan	nan	nan	nan
1432.587890625	0.0	80	2933940	118	100	720	1	0	1075451.5794945	1075451.5799422	80	1075454.6140468	1075454.6145125	40	1075457.9817458	1075457.9822738	100	del	1075461.6553328	3.0	1075463.3259794	1075462.1643918	1075462.1646758	120.0
1435.62255859375	0.0	40	2940155	118	100	720	1	0	1075451.5794945	1075451.5799422	80	1075454.6140468	1075454.6145125	40	1075457.9817458	1075457.9822738	100	del	1075461.6553328	3.0	1075463.3259794	1075462.1643918	1075462.1646758	120.0
1438.990234375	0.0	100	2947052	118	100	720	1	0	1075451.5794945	1075451.5799422	80	1075454.6140468	1075454.6145125	40	1075457.9817458	1075457.9822738	100	del	1075461.6553328	3.0	1075463.3259794	1075462.1643918	1075462.1646758	120.0
1443.17236328125	0.0	120	2955617	118	100	720	1	0	1075451.5794945	1075451.5799422	80	1075454.6140468	1075454.6145125	40	1075457.9817458	1075457.9822738	100	del	1075461.6553328	3.0	1075463.3259794	1075462.1643918	1075462.1646758	120.0
1446.84375	0.0	80	2963136	119	50	420	0	0	1075465.835501	1075465.8359886	80	1075468.9246111	1075468.9251348	40	1075471.9955332	1075471.9960075	100	imm	1075473.6230052	nan	nan	nan	nan	nan
1449.9326171875	0.0	40	2969462	119	50	420	0	0	1075465.835501	1075465.8359886	80	1075468.9246111	1075468.9251348	40	1075471.9955332	1075471.9960075	100	imm	1075473.6230052	nan	nan	nan	nan	nan
1453.00341796875	0.0	100	2975751	119	50	420	0	0	1075465.835501	1075465.8359886	80	1075468.9246111	1075468.9251348	40	1075471.9955332	1075471.9960075	100	imm	1075473.6230052	nan	nan	nan	nan	nan
1457.6044921875	0.0	80	2985174	120	77	110	0	0	1075476.596555	1075476.5970273	80	1075479.845126	1075479.8455603	40	1075483.2840055	1075483.2845055	100	del	1075484.10154	nan	nan	nan	nan	nan
1460.85302734375	0.0	40	2991827	120	77	110	0	0	1075476.596555	1075476.5970273	80	1075479.845126	1075479.8455603	40	1075483.2840055	1075483.2845055	100	del	1075484.10154	nan	nan	nan	nan	nan
1464.2919921875	0.0	100	2998870	120	77	110	0	0	1075476.596555	1075476.5970273	80	1075479.845126	1075479.8455603	40	1075483.2840055	1075483.2845055	100	del	1075484.10154	nan	nan	nan	nan	nan
1481.66064453125	0.0	80	3034441	121	70	1240	0	0	1075500.6534057	1075500.6538731	80	1075503.7548252	1075503.7553149	40	1075506.8919816	1075506.8924803	100	del	1075507.7578946	nan	nan	nan	nan	nan
1484.76220703125	0.0	40	3040793	121	70	1240	0	0	1075500.6534057	1075500.6538731	80	1075503.7548252	1075503.7553149	40	1075506.8919816	1075506.8924803	100	del	1075507.7578946	nan	nan	nan	nan	nan
1487.89892578125	0.0	100	3047217	121	70	1240	0	0	1075500.6534057	1075500.6538731	80	1075503.7548252	1075503.7553149	40	1075506.8919816	1075506.8924803	100	del	1075507.7578946	nan	nan	nan	nan	nan
1491.3095703125	0.0	80	3054202	122	80	420	0	1	1075510.3024357	1075510.302943	80	1075513.6143722	1075513.6148429	40	1075517.0132023	1075517.0135574	100	del	1075519.6703484	nan	nan	nan	nan	nan
1494.62158203125	0.0	40	3060985	122	80	420	0	1	1075510.3024357	1075510.302943	80	1075513.6143722	1075513.6148429	40	1075517.0132023	1075517.0135574	100	del	1075519.6703484	nan	nan	nan	nan	nan
1498.02001953125	0.0	100	3067945	122	80	420	0	1	1075510.3024357	1075510.302943	80	1075513.6143722	1075513.6148429	40	1075517.0132023	1075517.0135574	100	del	1075519.6703484	nan	nan	nan	nan	nan
1503.44580078125	0.0	80	3079057	123	100	4	1	0	1075522.4393348	1075522.4396391	80	1075525.4605752	1075525.4610034	40	1075528.9691174	1075528.9696156	100	del	1075530.4217216	4.0	1075531.8943159	1075530.9325303	1075530.9328722	120.0
1506.46728515625	0.0	40	3085245	123	100	4	1	0	1075522.4393348	1075522.4396391	80	1075525.4605752	1075525.4610034	40	1075528.9691174	1075528.9696156	100	del	1075530.4217216	4.0	1075531.8943159	1075530.9325303	1075530.9328722	120.0
1509.9755859375	0.0	100	3092430	123	100	4	1	0	1075522.4393348	1075522.4396391	80	1075525.4605752	1075525.4610034	40	1075528.9691174	1075528.9696156	100	del	1075530.4217216	4.0	1075531.8943159	1075530.9325303	1075530.9328722	120.0
1511.93896484375	0.0	120	3096451	123	100	4	1	0	1075522.4393348	1075522.4396391	80	1075525.4605752	1075525.4610034	40	1075528.9691174	1075528.9696156	100	del	1075530.4217216	4.0	1075531.8943159	1075530.9325303	1075530.9328722	120.0
1515.1669921875	0.0	80	3103062	124	90	4	1	0	1075534.160544	1075534.1610424	80	1075537.334501	1075537.3349913	40	1075540.4351025	1075540.4356055	100	del	1075541.1018276	4.0	1075541.9416277	1075541.6109888	1075541.6113117	120.0
1518.3408203125	0.0	40	3109562	124	90	4	1	0	1075534.160544	1075534.1610424	80	1075537.334501	1075537.3349913	40	1075540.4351025	1075540.4356055	100	del	1075541.1018276	4.0	1075541.9416277	1075541.6109888	1075541.6113117	120.0
1521.44140625	0.0	100	3115912	124	90	4	1	0	1075534.160544	1075534.1610424	80	1075537.334501	1075537.3349913	40	1075540.4351025	1075540.4356055	100	del	1075541.1018276	4.0	1075541.9416277	1075541.6109888	1075541.6113117	120.0
1522.6171875	0.0	120	3118320	124	90	4	1	0	1075534.160544	1075534.1610424	80	1075537.334501	1075537.3349913	40	1075540.4351025	1075540.4356055	100	del	1075541.1018276	4.0	1075541.9416277	1075541.6109888	1075541.6113117	120.0
1525.2763671875	0.0	80	3123766	125	60	240	1	0	1075544.2699596	1075544.270357	80	1075547.5653314	1075547.5658338	40	1075550.9549205	1075550.9554356	100	imm	1075551.7177589	3.0	1075553.3335389	1075552.2270066	1075552.2273474	120.0
1528.5712890625	0.0	40	3130514	125	60	240	1	0	1075544.2699596	1075544.270357	80	1075547.5653314	1075547.5658338	40	1075550.9549205	1075550.9554356	100	imm	1075551.7177589	3.0	1075553.3335389	1075552.2270066	1075552.2273474	120.0
1531.9609375	0.0	100	3137456	125	60	240	1	0	1075544.2699596	1075544.270357	80	1075547.5653314	1075547.5658338	40	1075550.9549205	1075550.9554356	100	imm	1075551.7177589	3.0	1075553.3335389	1075552.2270066	1075552.2273474	120.0
1533.23291015625	0.0	120	3140061	125	60	240	1	0	1075544.2699596	1075544.270357	80	1075547.5653314	1075547.5658338	40	1075550.9549205	1075550.9554356	100	imm	1075551.7177589	3.0	1075553.3335389	1075552.2270066	1075552.2273474	120.0
1536.431640625	0.0	80	3146612	126	77	420	0	0	1075555.4256708	1075555.4261689	80	1075558.6134432	1075558.6139623	40	1075561.6990133	1075561.6995079	100	imm	1075564.1021693	nan	nan	nan	nan	nan
1539.619140625	0.0	40	3153140	126	77	420	0	0	1075555.4256708	1075555.4261689	80	1075558.6134432	1075558.6139623	40	1075561.6990133	1075561.6995079	100	imm	1075564.1021693	nan	nan	nan	nan	nan
1542.70458984375	0.0	100	3159459	126	77	420	0	0	1075555.4256708	1075555.4261689	80	1075558.6134432	1075558.6139623	40	1075561.6990133	1075561.6995079	100	imm	1075564.1021693	nan	nan	nan	nan	nan
1548.05078125	0.0	80	3170408	127	83	60	1	1	1075567.0451775	1075567.0456399	80	1075570.221767	1075570.2222524	40	1075573.3734271	1075573.373985	100	del	1075574.1414437	3.0	1075575.4620458	1075574.654407	1075574.6549081	120.0
1551.2275390625	0.0	40	3176914	127	83	60	1	1	1075567.0451775	1075567.0456399	80	1075570.221767	1075570.2222524	40	1075573.3734271	1075573.373985	100	del	1075574.1414437	3.0	1075575.4620458	1075574.654407	1075574.6549081	120.0
1554.37890625	0.0	100	3183368	127	83	60	1	1	1075567.0451775	1075567.0456399	80	1075570.221767	1075570.2222524	40	1075573.3734271	1075573.373985	100	del	1075574.1414437	3.0	1075575.4620458	1075574.654407	1075574.6549081	120.0
1555.65966796875	0.0	120	3185991	127	83	60	1	1	1075567.0451775	1075567.0456399	80	1075570.221767	1075570.2222524	40	1075573.3734271	1075573.373985	100	del	1075574.1414437	3.0	1075575.4620458	1075574.654407	1075574.6549081	120.0
1558.48486328125	0.0	80	3191777	128	70	110	0	1	1075577.4794239	1075577.4799656	80	1075580.8881047	1075580.8885305	40	1075584.1504769	1075584.1509458	100	del	1075587.0298447	nan	nan	nan	nan	nan
1561.8935546875	0.0	40	3198758	128	70	110	0	1	1075577.4794239	1075577.4799656	80	1075580.8881047	1075580.8885305	40	1075584.1504769	1075584.1509458	100	del	1075587.0298447	nan	nan	nan	nan	nan
1565.15576171875	0.0	100	3205439	128	70	110	0	1	1075577.4794239	1075577.4799656	80	1075580.8881047	1075580.8885305	40	1075584.1504769	1075584.1509458	100	del	1075587.0298447	nan	nan	nan	nan	nan
1570.8193359375	0.0	80	3217038	129	63	210	0	0	1075589.8144288	1075589.8149585	80	1075593.2580247	1075593.2587757	40	1075596.6343949	1075596.6348906	100	imm	1075598.4378535	nan	nan	nan	nan	nan
1574.2626953125	0.0	40	3224090	129	63	210	0	0	1075589.8144288	1075589.8149585	80	1075593.2580247	1075593.2587757	40	1075596.6343949	1075596.6348906	100	imm	1075598.4378535	nan	nan	nan	nan	nan
1577.63916015625	0.0	100	3231005	129	63	210	0	0	1075589.8144288	1075589.8149585	80	1075593.2580247	1075593.2587757	40	1075596.6343949	1075596.6348906	100	imm	1075598.4378535	nan	nan	nan	nan	nan
1582.29052734375	0.0	80	3240531	130	90	240	1	1	1075601.2856068	1075601.2859015	80	1075604.3806672	1075604.3809069	40	1075607.6685603	1075607.6690593	100	del	1075608.7175932	2.0	1075610.4054715	1075609.2313033	1075609.2319605	120.0
1585.3857421875	0.0	40	3246870	130	90	240	1	1	1075601.2856068	1075601.2859015	80	1075604.3806672	1075604.3809069	40	1075607.6685603	1075607.6690593	100	del	1075608.7175932	2.0	1075610.4054715	1075609.2313033	1075609.2319605	120.0
1588.67333984375	0.0	100	3253603	130	90	240	1	1	1075601.2856068	1075601.2859015	80	1075604.3806672	1075604.3809069	40	1075607.6685603	1075607.6690593	100	del	1075608.7175932	2.0	1075610.4054715	1075609.2313033	1075609.2319605	120.0
1590.23583984375	0.0	120	3256803	130	90	240	1	1	1075601.2856068	1075601.2859015	80	1075604.3806672	1075604.3809069	40	1075607.6685603	1075607.6690593	100	del	1075608.7175932	2.0	1075610.4054715	1075609.2313033	1075609.2319605	120.0
1593.90625	0.0	80	3264320	131	67	210	0	0	1075612.9016174	1075612.902121	80	1075616.2063262	1075616.2066741	40	1075619.6239733	1075619.6244596	100	imm	1075620.2692427	nan	nan	nan	nan	nan
1597.21044921875	0.0	40	3271087	131	67	210	0	0	1075612.9016174	1075612.902121	80	1075616.2063262	1075616.2066741	40	1075619.6239733	1075619.6244596	100	imm	1075620.2692427	nan	nan	nan	nan	nan
1600.62841796875	0.0	100	3278087	131	67	210	0	0	1075612.9016174	1075612.902121	80	1075616.2063262	1075616.2066741	40	1075619.6239733	1075619.6244596	100	imm	1075620.2692427	nan	nan	nan	nan	nan
1604.2841796875	0.0	80	3285574	132	83	210	0	0	1075623.279822	1075623.280273	80	1075626.7306275	1075626.7310669	40	1075629.8506138	1075629.8510525	100	del	1075630.4537148	nan	nan	nan	nan	nan
1607.73486328125	0.0	40	3292641	132	83	210	0	0	1075623.279822	1075623.280273	80	1075626.7306275	1075626.7310669	40	1075629.8506138	1075629.8510525	100	del	1075630.4537148	nan	nan	nan	nan	nan
1610.8544921875	0.0	100	3299030	132	83	210	0	0	1075623.279822	1075623.280273	80	1075626.7306275	1075626.7310669	40	1075629.8506138	1075629.8510525	100	del	1075630.4537148	nan	nan	nan	nan	nan
1613.98974609375	0.0	80	3305451	133	67	180	1	0	1075632.9858475	1075632.9863343	80	1075636.2191016	1075636.2195248	40	1075639.2397072	1075639.2401899	100	imm	1075640.1428028	3.0	1075641.9425912	1075640.6564538	1075640.656936	120.0
1617.22314453125	0.0	40	3312073	133	67	180	1	0	1075632.9858475	1075632.9863343	80	1075636.2191016	1075636.2195248	40	1075639.2397072	1075639.2401899	100	imm	1075640.1428028	3.0	1075641.9425912	1075640.6564538	1075640.656936	120.0
1620.24365234375	0.0	100	3318259	133	67	180	1	0	1075632.9858475	1075632.9863343	80	1075636.2191016	1075636.2195248	40	1075639.2397072	1075639.2401899	100	imm	1075640.1428028	3.0	1075641.9425912	1075640.6564538	1075640.656936	120.0
1621.66015625	0.0	120	3321160	133	67	180	1	0	1075632.9858475	1075632.9863343	80	1075636.2191016	1075636.2195248	40	1075639.2397072	1075639.2401899	100	imm	1075640.1428028	3.0	1075641.9425912	1075640.6564538	1075640.656936	120.0
1625.197265625	0.0	80	3328404	134	67	60	1	1	1075644.1936897	1075644.1941112	80	1075647.6766985	1075647.6771929	40	1075650.8138641	1075650.8143617	100	imm	1075651.9096379	3.0	1075653.6293056	1075652.4189878	1075652.4193414	120.0
1628.68017578125	0.0	40	3335537	134	67	60	1	1	1075644.1936897	1075644.1941112	80	1075647.6766985	1075647.6771929	40	1075650.8138641	1075650.8143617	100	imm	1075651.9096379	3.0	1075653.6293056	1075652.4189878	1075652.4193414	120.0
1631.8173828125	0.0	100	3341962	134	67	60	1	1	1075644.1936897	1075644.1941112	80	1075647.6766985	1075647.6771929	40	1075650.8138641	1075650.8143617	100	imm	1075651.9096379	3.0	1075653.6293056	1075652.4189878	1075652.4193414	120.0
1633.42236328125	0.0	120	3345249	134	67	60	1	1	1075644.1936897	1075644.1941112	80	1075647.6766985	1075647.6771929	40	1075650.8138641	1075650.8143617	100	imm	1075651.9096379	3.0	1075653.6293056	1075652.4189878	1075652.4193414	120.0
1636.8408203125	0.0	80	3352250	135	77	180	1	0	1075655.8372502	1075655.837646	80	1075659.0604687	1075659.0609555	40	1075662.4906379	1075662.4911682	100	del	1075663.7175277	3.0	1075665.2611135	1075664.227438	1075664.2279098	120.0
1640.06396484375	0.0	40	3358851	135	77	180	1	0	1075655.8372502	1075655.837646	80	1075659.0604687	1075659.0609555	40	1075662.4906379	1075662.4911682	100	del	1075663.7175277	3.0	1075665.2611135	1075664.227438	1075664.2279098	120.0
1643.494140625	0.0	100	3365876	135	77	180	1	0	1075655.8372502	1075655.837646	80	1075659.0604687	1075659.0609555	40	1075662.4906379	1075662.4911682	100	del	1075663.7175277	3.0	1075665.2611135	1075664.227438	1075664.2279098	120.0
