onset	duration	value	sample	trial_idx	val	del	is_cued	rev_opts	del_pres_displaytime	del_pres_triggertime	del_pres_triggercode	val_pres_displaytime	val_pres_triggertime	val_pres_triggercode	choice_displaytime	choice_triggertime	choice_triggercode	choice	choice_time	viv_displaytime	viv_triggertime	viv_triggercode	viv	viv_time
27.98388671875	0.0	80	57311	1	73	365	1	0	7587755.7648258	7587755.7666412	80	7587758.9542827	7587758.9560548	40	7587762.4551351	7587762.4568854	100	del	7587765.0086106	7587765.5286845	7587765.5304915	120.0	1.0	7587769.7529746
31.17333984375	0.0	40	63843	1	73	365	1	0	7587755.7648258	7587755.7666412	80	7587758.9542827	7587758.9560548	40	7587762.4551351	7587762.4568854	100	del	7587765.0086106	7587765.5286845	7587765.5304915	120.0	1.0	7587769.7529746
34.67431640625	0.0	100	71013	1	73	365	1	0	7587755.7648258	7587755.7666412	80	7587758.9542827	7587758.9560548	40	7587762.4551351	7587762.4568854	100	del	7587765.0086106	7587765.5286845	7587765.5304915	120.0	1.0	7587769.7529746
37.74755859375	0.0	120	77307	1	73	365	1	0	7587755.7648258	7587755.7666412	80	7587758.9542827	7587758.9560548	40	7587762.4551351	7587762.4568854	100	del	7587765.0086106	7587765.5286845	7587765.5304915	120.0	1.0	7587769.7529746
44.05126953125	0.0	80	90217	2	97	120	0	1	7587771.8323265	7587771.8327668	80	7587775.2053275	7587775.2057794	40	7587778.5418063	7587778.5423066	100	del	7587780.2264216	nan	nan	nan	nan	nan
47.42431640625	0.0	40	97125	2	97	120	0	1	7587771.8323265	7587771.8327668	80	7587775.2053275	7587775.2057794	40	7587778.5418063	7587778.5423066	100	del	7587780.2264216	nan	nan	nan	nan	nan
50.7607421875	0.0	100	103958	2	97	120	0	1	7587771.8323265	7587771.8327668	80	7587775.2053275	7587775.2057794	40	7587778.5418063	7587778.5423066	100	del	7587780.2264216	nan	nan	nan	nan	nan
55.37939453125	0.0	80	113417	3	60	120	0	1	7587783.1606629	7587783.1611592	80	7587786.3679526	7587786.3684395	40	7587789.7564765	7587789.7569913	100	del	7587790.9925643	nan	nan	nan	nan	nan
58.58642578125	0.0	40	119985	3	60	120	0	1	7587783.1606629	7587783.1611592	80	7587786.3679526	7587786.3684395	40	7587789.7564765	7587789.7569913	100	del	7587790.9925643	nan	nan	nan	nan	nan
61.97509765625	0.0	100	126925	3	60	120	0	1	7587783.1606629	7587783.1611592	80	7587786.3679526	7587786.3684395	40	7587789.7564765	7587789.7569913	100	del	7587790.9925643	nan	nan	nan	nan	nan
66.14501953125	0.0	80	135465	4	77	14	1	1	7587793.926859	7587793.9273365	80	7587797.0955787	7587797.0960686	40	7587800.3861881	7587800.386704	100	imm	7587802.025009	7587802.5370836	7587802.5374294	120.0	4.0	7587805.9292601
69.31396484375	0.0	40	141955	4	77	14	1	1	7587793.926859	7587793.9273365	80	7587797.0955787	7587797.0960686	40	7587800.3861881	7587800.386704	100	imm	7587802.025009	7587802.5370836	7587802.5374294	120.0	4.0	7587805.9292601
72.6044921875	0.0	100	148694	4	77	14	1	1	7587793.926859	7587793.9273365	80	7587797.0955787	7587797.0960686	40	7587800.3861881	7587800.386704	100	imm	7587802.025009	7587802.5370836	7587802.5374294	120.0	4.0	7587805.9292601
74.7548828125	0.0	120	153098	4	77	14	1	1	7587793.926859	7587793.9273365	80	7587797.0955787	7587797.0960686	40	7587800.3861881	7587800.386704	100	imm	7587802.025009	7587802.5370836	7587802.5374294	120.0	4.0	7587805.9292601
80.65283203125	0.0	80	165177	5	87	90	1	1	7587808.4347238	7587808.4351806	80	7587811.7170691	7587811.7175783	40	7587814.8953677	7587814.895921	100	del	7587816.9213146	7587817.434437	7587817.4349136	120.0	2.0	7587819.1614135
83.93505859375	0.0	40	171899	5	87	90	1	1	7587808.4347238	7587808.4351806	80	7587811.7170691	7587811.7175783	40	7587814.8953677	7587814.895921	100	del	7587816.9213146	7587817.434437	7587817.4349136	120.0	2.0	7587819.1614135
87.11328125	0.0	100	178408	5	87	90	1	1	7587808.4347238	7587808.4351806	80	7587811.7170691	7587811.7175783	40	7587814.8953677	7587814.895921	100	del	7587816.9213146	7587817.434437	7587817.4349136	120.0	2.0	7587819.1614135
89.65185546875	0.0	120	183607	5	87	90	1	1	7587808.4347238	7587808.4351806	80	7587811.7170691	7587811.7175783	40	7587814.8953677	7587814.895921	100	del	7587816.9213146	7587817.434437	7587817.4349136	120.0	2.0	7587819.1614135
93.70556640625	0.0	80	191909	6	60	250	0	1	7587821.4879469	7587821.4884218	80	7587824.6758896	7587824.6763366	40	7587828.0684361	7587828.0689178	100	del	7587829.0646553	nan	nan	nan	nan	nan
96.8935546875	0.0	40	198438	6	60	250	0	1	7587821.4879469	7587821.4884218	80	7587824.6758896	7587824.6763366	40	7587828.0684361	7587828.0689178	100	del	7587829.0646553	nan	nan	nan	nan	nan
100.28564453125	0.0	100	205385	6	60	250	0	1	7587821.4879469	7587821.4884218	80	7587824.6758896	7587824.6763366	40	7587828.0684361	7587828.0689178	100	del	7587829.0646553	nan	nan	nan	nan	nan
104.0068359375	0.0	80	213006	7	80	365	1	1	7587831.7893793	7587831.7898793	80	7587835.0435795	7587835.0441919	40	7587838.4042509	7587838.404937	100	del	7587839.0973881	7587839.6109423	7587839.6113754	120.0	4.0	7587842.3692902
107.2607421875	0.0	40	219670	7	80	365	1	1	7587831.7893793	7587831.7898793	80	7587835.0435795	7587835.0441919	40	7587838.4042509	7587838.404937	100	del	7587839.0973881	7587839.6109423	7587839.6113754	120.0	4.0	7587842.3692902
110.62158203125	0.0	100	226553	7	80	365	1	1	7587831.7893793	7587831.7898793	80	7587835.0435795	7587835.0441919	40	7587838.4042509	7587838.404937	100	del	7587839.0973881	7587839.6109423	7587839.6113754	120.0	4.0	7587842.3692902
111.828125	0.0	120	229024	7	80	365	1	1	7587831.7893793	7587831.7898793	80	7587835.0435795	7587835.0441919	40	7587838.4042509	7587838.404937	100	del	7587839.0973881	7587839.6109423	7587839.6113754	120.0	4.0	7587842.3692902
117.0888671875	0.0	80	239798	8	60	1430	0	1	7587844.8719754	7587844.8724366	80	7587848.0439785	7587848.0444457	40	7587851.476152	7587851.4765813	100	del	7587852.2245911	nan	nan	nan	nan	nan
120.2607421875	0.0	40	246294	8	60	1430	0	1	7587844.8719754	7587844.8724366	80	7587848.0439785	7587848.0444457	40	7587851.476152	7587851.4765813	100	del	7587852.2245911	nan	nan	nan	nan	nan
123.69287109375	0.0	100	253323	8	60	1430	0	1	7587844.8719754	7587844.8724366	80	7587848.0439785	7587848.0444457	40	7587851.476152	7587851.4765813	100	del	7587852.2245911	nan	nan	nan	nan	nan
127.32861328125	0.0	80	260769	9	50	120	0	1	7587855.1121963	7587855.1127266	80	7587858.5970979	7587858.5976052	40	7587861.6264463	7587861.62694	100	imm	7587862.8327507	nan	nan	nan	nan	nan
130.8134765625	0.0	40	267906	9	50	120	0	1	7587855.1121963	7587855.1127266	80	7587858.5970979	7587858.5976052	40	7587861.6264463	7587861.62694	100	imm	7587862.8327507	nan	nan	nan	nan	nan
133.8427734375	0.0	100	274110	9	50	120	0	1	7587855.1121963	7587855.1127266	80	7587858.5970979	7587858.5976052	40	7587861.6264463	7587861.62694	100	imm	7587862.8327507	nan	nan	nan	nan	nan
137.74609375	0.0	80	282104	10	80	1430	0	1	7587865.5297171	7587865.5302592	80	7587868.8687507	7587868.8692356	40	7587872.0163818	7587872.0166014	100	del	7587872.8973549	nan	nan	nan	nan	nan
141.0849609375	0.0	40	288942	10	80	1430	0	1	7587865.5297171	7587865.5302592	80	7587868.8687507	7587868.8692356	40	7587872.0163818	7587872.0166014	100	del	7587872.8973549	nan	nan	nan	nan	nan
144.23291015625	0.0	100	295389	10	80	1430	0	1	7587865.5297171	7587865.5302592	80	7587868.8687507	7587868.8692356	40	7587872.0163818	7587872.0166014	100	del	7587872.8973549	nan	nan	nan	nan	nan
147.74609375	0.0	80	302584	11	60	14	1	1	7587875.5301125	7587875.5306671	80	7587878.8905795	7587878.8907687	40	7587882.2157505	7587882.2162604	100	imm	7587884.1529702	7587884.665899	7587884.6663391	120.0	4.0	7587886.3932408
151.10693359375	0.0	40	309467	11	60	14	1	1	7587875.5301125	7587875.5306671	80	7587878.8905795	7587878.8907687	40	7587882.2157505	7587882.2162604	100	imm	7587884.1529702	7587884.665899	7587884.6663391	120.0	4.0	7587886.3932408
154.431640625	0.0	100	316276	11	60	14	1	1	7587875.5301125	7587875.5306671	80	7587878.8905795	7587878.8907687	40	7587882.2157505	7587882.2162604	100	imm	7587884.1529702	7587884.665899	7587884.6663391	120.0	4.0	7587886.3932408
156.8818359375	0.0	120	321294	11	60	14	1	1	7587875.5301125	7587875.5306671	80	7587878.8905795	7587878.8907687	40	7587882.2157505	7587882.2162604	100	imm	7587884.1529702	7587884.665899	7587884.6663391	120.0	4.0	7587886.3932408
160.91943359375	0.0	80	329563	12	93	120	0	1	7587888.703878	7587888.7043816	80	7587892.0414042	7587892.0418608	40	7587895.078844	7587895.0793378	100	del	7587899.0894439	nan	nan	nan	nan	nan
164.2568359375	0.0	40	336398	12	93	120	0	1	7587888.703878	7587888.7043816	80	7587892.0414042	7587892.0418608	40	7587895.078844	7587895.0793378	100	del	7587899.0894439	nan	nan	nan	nan	nan
167.29443359375	0.0	100	342619	12	93	120	0	1	7587888.703878	7587888.7043816	80	7587892.0414042	7587892.0418608	40	7587895.078844	7587895.0793378	100	del	7587899.0894439	nan	nan	nan	nan	nan
173.9951171875	0.0	80	356342	13	100	250	0	0	7587901.7800557	7587901.7804807	80	7587905.0134004	7587905.014288	40	7587908.146851	7587908.1473729	100	del	7587909.9206034	nan	nan	nan	nan	nan
177.228515625	0.0	40	362964	13	100	250	0	0	7587901.7800557	7587901.7804807	80	7587905.0134004	7587905.014288	40	7587908.146851	7587908.1473729	100	del	7587909.9206034	nan	nan	nan	nan	nan
180.36181640625	0.0	100	369381	13	100	250	0	0	7587901.7800557	7587901.7804807	80	7587905.0134004	7587905.014288	40	7587908.146851	7587908.1473729	100	del	7587909.9206034	nan	nan	nan	nan	nan
185.00927734375	0.0	80	378899	14	90	90	1	0	7587912.7941847	7587912.794659	80	7587916.2301186	7587916.2305877	40	7587919.3842709	7587919.3849208	100	na	7587924.9525606	7587925.4646538	7587925.4650901	120.0	4.0	7587927.7293334
188.44482421875	0.0	40	385935	14	90	90	1	0	7587912.7941847	7587912.794659	80	7587916.2301186	7587916.2305877	40	7587919.3842709	7587919.3849208	100	na	7587924.9525606	7587925.4646538	7587925.4650901	120.0	4.0	7587927.7293334
191.59912109375	0.0	100	392395	14	90	90	1	0	7587912.7941847	7587912.794659	80	7587916.2301186	7587916.2305877	40	7587919.3842709	7587919.3849208	100	na	7587924.9525606	7587925.4646538	7587925.4650901	120.0	4.0	7587927.7293334
197.67919921875	0.0	120	404847	14	90	90	1	0	7587912.7941847	7587912.794659	80	7587916.2301186	7587916.2305877	40	7587919.3842709	7587919.3849208	100	na	7587924.9525606	7587925.4646538	7587925.4650901	120.0	4.0	7587927.7293334
202.32470703125	0.0	80	414361	15	100	14	1	1	7587930.1102284	7587930.110639	80	7587933.1868985	7587933.1873563	40	7587936.6186758	7587936.6191763	100	imm	7587937.1849951	7587937.698062	7587937.6986821	120.0	4.0	7587939.5130439
205.4013671875	0.0	40	420662	15	100	14	1	1	7587930.1102284	7587930.110639	80	7587933.1868985	7587933.1873563	40	7587936.6186758	7587936.6191763	100	imm	7587937.1849951	7587937.698062	7587937.6986821	120.0	4.0	7587939.5130439
208.8330078125	0.0	100	427690	15	100	14	1	1	7587930.1102284	7587930.110639	80	7587933.1868985	7587933.1873563	40	7587936.6186758	7587936.6191763	100	imm	7587937.1849951	7587937.698062	7587937.6986821	120.0	4.0	7587939.5130439
209.91259765625	0.0	120	429901	15	100	14	1	1	7587930.1102284	7587930.110639	80	7587933.1868985	7587933.1873563	40	7587936.6186758	7587936.6191763	100	imm	7587937.1849951	7587937.698062	7587937.6986821	120.0	4.0	7587939.5130439
213.814453125	0.0	80	437892	16	60	908	1	1	7587941.6000323	7587941.6005361	80	7587944.9018319	7587944.9022923	40	7587948.0980544	7587948.0984902	100	del	7587949.1055235	7587949.6183896	7587949.6189006	120.0	4.0	7587951.1292642
217.11572265625	0.0	40	444653	16	60	908	1	1	7587941.6000323	7587941.6005361	80	7587944.9018319	7587944.9022923	40	7587948.0980544	7587948.0984902	100	del	7587949.1055235	7587949.6183896	7587949.6189006	120.0	4.0	7587951.1292642
220.31201171875	0.0	100	451199	16	60	908	1	1	7587941.6000323	7587941.6005361	80	7587944.9018319	7587944.9022923	40	7587948.0980544	7587948.0984902	100	del	7587949.1055235	7587949.6183896	7587949.6189006	120.0	4.0	7587951.1292642
221.83251953125	0.0	120	454313	16	60	908	1	1	7587941.6000323	7587941.6005361	80	7587944.9018319	7587944.9022923	40	7587948.0980544	7587948.0984902	100	del	7587949.1055235	7587949.6183896	7587949.6189006	120.0	4.0	7587951.1292642
225.7607421875	0.0	80	462358	17	53	908	1	1	7587953.5468138	7587953.5473383	80	7587956.8063767	7587956.8068305	40	7587960.0649625	7587960.0653795	100	na	7587963.5048407	7587964.0179263	7587964.0183622	120.0	2.0	7587966.7705652
229.02001953125	0.0	40	469033	17	53	908	1	1	7587953.5468138	7587953.5473383	80	7587956.8063767	7587956.8068305	40	7587960.0649625	7587960.0653795	100	na	7587963.5048407	7587964.0179263	7587964.0183622	120.0	2.0	7587966.7705652
232.27880859375	0.0	100	475707	17	53	908	1	1	7587953.5468138	7587953.5473383	80	7587956.8063767	7587956.8068305	40	7587960.0649625	7587960.0653795	100	na	7587963.5048407	7587964.0179263	7587964.0183622	120.0	2.0	7587966.7705652
236.2314453125	0.0	120	483802	17	53	908	1	1	7587953.5468138	7587953.5473383	80	7587956.8063767	7587956.8068305	40	7587960.0649625	7587960.0653795	100	na	7587963.5048407	7587964.0179263	7587964.0183622	120.0	2.0	7587966.7705652
241.43603515625	0.0	80	494461	18	77	1430	0	0	7587969.2225463	7587969.2230165	80	7587972.4050256	7587972.4052945	40	7587975.6427283	7587975.6432846	100	imm	7587985.897053	nan	nan	nan	nan	nan
244.6181640625	0.0	40	500978	18	77	1430	0	0	7587969.2225463	7587969.2230165	80	7587972.4050256	7587972.4052945	40	7587975.6427283	7587975.6432846	100	imm	7587985.897053	nan	nan	nan	nan	nan
247.85595703125	0.0	100	507609	18	77	1430	0	0	7587969.2225463	7587969.2230165	80	7587972.4050256	7587972.4052945	40	7587975.6427283	7587975.6432846	100	imm	7587985.897053	nan	nan	nan	nan	nan
261.109375	0.0	80	534752	19	63	160	1	1	7587988.8962995	7587988.8967755	80	7587991.9249643	7587991.9256731	40	7587995.4258705	7587995.4263934	100	del	7587998.6888053	7587999.2012849	7587999.2016455	120.0	4.0	7588004.1928963
264.13818359375	0.0	40	540955	19	63	160	1	1	7587988.8962995	7587988.8967755	80	7587991.9249643	7587991.9256731	40	7587995.4258705	7587995.4263934	100	del	7587998.6888053	7587999.2012849	7587999.2016455	120.0	4.0	7588004.1928963
267.638671875	0.0	100	548124	19	63	160	1	1	7587988.8962995	7587988.8967755	80	7587991.9249643	7587991.9256731	40	7587995.4258705	7587995.4263934	100	del	7587998.6888053	7587999.2012849	7587999.2016455	120.0	4.0	7588004.1928963
271.4140625	0.0	120	555856	19	63	160	1	1	7587988.8962995	7587988.8967755	80	7587991.9249643	7587991.9256731	40	7587995.4258705	7587995.4263934	100	del	7587998.6888053	7587999.2012849	7587999.2016455	120.0	4.0	7588004.1928963
278.5146484375	0.0	80	570398	20	50	908	1	0	7588006.3022029	7588006.302709	80	7588009.6443419	7588009.6447974	40	7588012.950757	7588012.9512965	100	del	7588013.584986	7588014.0963498	7588014.0967564	120.0	3.0	7588017.7371758
281.8564453125	0.0	40	577242	20	50	908	1	0	7588006.3022029	7588006.302709	80	7588009.6443419	7588009.6447974	40	7588012.950757	7588012.9512965	100	del	7588013.584986	7588014.0963498	7588014.0967564	120.0	3.0	7588017.7371758
285.1630859375	0.0	100	584014	20	50	908	1	0	7588006.3022029	7588006.302709	80	7588009.6443419	7588009.6447974	40	7588012.950757	7588012.9512965	100	del	7588013.584986	7588014.0963498	7588014.0967564	120.0	3.0	7588017.7371758
286.30859375	0.0	120	586360	20	50	908	1	0	7588006.3022029	7588006.302709	80	7588009.6443419	7588009.6447974	40	7588012.950757	7588012.9512965	100	del	7588013.584986	7588014.0963498	7588014.0967564	120.0	3.0	7588017.7371758
319.55810546875	0.0	80	654455	21	63	580	0	1	7588047.3470071	7588047.3475022	80	7588050.5338888	7588050.5342382	40	7588053.8578859	7588053.8583881	100	imm	7588054.4585494	nan	nan	nan	nan	nan
322.7451171875	0.0	40	660982	21	63	580	0	1	7588047.3470071	7588047.3475022	80	7588050.5338888	7588050.5342382	40	7588053.8578859	7588053.8583881	100	imm	7588054.4585494	nan	nan	nan	nan	nan
326.06884765625	0.0	100	667789	21	63	580	0	1	7588047.3470071	7588047.3475022	80	7588050.5338888	7588050.5342382	40	7588053.8578859	7588053.8583881	100	imm	7588054.4585494	nan	nan	nan	nan	nan
329.59228515625	0.0	80	675005	22	93	908	1	0	7588057.3815082	7588057.381976	80	7588060.3991909	7588060.3997077	40	7588063.4547404	7588063.4552266	100	na	7588064.6733461	7588065.1828065	7588065.1831863	120.0	2.0	7588066.7051074
332.60986328125	0.0	40	681185	22	93	908	1	0	7588057.3815082	7588057.381976	80	7588060.3991909	7588060.3997077	40	7588063.4547404	7588063.4552266	100	na	7588064.6733461	7588065.1828065	7588065.1831863	120.0	2.0	7588066.7051074
335.66552734375	0.0	100	687443	22	93	908	1	0	7588057.3815082	7588057.381976	80	7588060.3991909	7588060.3997077	40	7588063.4547404	7588063.4552266	100	na	7588064.6733461	7588065.1828065	7588065.1831863	120.0	2.0	7588066.7051074
337.3935546875	0.0	120	690982	22	93	908	1	0	7588057.3815082	7588057.381976	80	7588060.3991909	7588060.3997077	40	7588063.4547404	7588063.4552266	100	na	7588064.6733461	7588065.1828065	7588065.1831863	120.0	2.0	7588066.7051074
341.41748046875	0.0	80	699223	23	57	160	1	0	7588069.2067208	7588069.2071946	80	7588072.5399881	7588072.5404557	40	7588075.6688884	7588075.6693858	100	del	7588077.1702523	7588077.6769701	7588077.6771907	120.0	4.0	7588079.1375556
344.75048828125	0.0	40	706049	23	57	160	1	0	7588069.2067208	7588069.2071946	80	7588072.5399881	7588072.5404557	40	7588075.6688884	7588075.6693858	100	del	7588077.1702523	7588077.6769701	7588077.6771907	120.0	4.0	7588079.1375556
347.87939453125	0.0	100	712457	23	57	160	1	0	7588069.2067208	7588069.2071946	80	7588072.5399881	7588072.5404557	40	7588075.6688884	7588075.6693858	100	del	7588077.1702523	7588077.6769701	7588077.6771907	120.0	4.0	7588079.1375556
349.8876953125	0.0	120	716570	23	57	160	1	0	7588069.2067208	7588069.2071946	80	7588072.5399881	7588072.5404557	40	7588075.6688884	7588075.6693858	100	del	7588077.1702523	7588077.6769701	7588077.6771907	120.0	4.0	7588079.1375556
353.5634765625	0.0	80	724098	24	73	40	0	0	7588081.3532215	7588081.353585	80	7588084.421731	7588084.4222106	40	7588087.569436	7588087.569957	100	del	7588088.3047271	nan	nan	nan	nan	nan
356.6318359375	0.0	40	730382	24	73	40	0	0	7588081.3532215	7588081.353585	80	7588084.421731	7588084.4222106	40	7588087.569436	7588087.569957	100	del	7588088.3047271	nan	nan	nan	nan	nan
359.77978515625	0.0	100	736829	24	73	40	0	0	7588081.3532215	7588081.353585	80	7588084.421731	7588084.4222106	40	7588087.569436	7588087.569957	100	del	7588088.3047271	nan	nan	nan	nan	nan
363.16259765625	0.0	80	743757	25	90	14	1	0	7588090.9522657	7588090.9527665	80	7588094.1253867	7588094.1257985	40	7588097.216773	7588097.2172303	100	imm	7588097.5936152	7588098.1060051	7588098.106478	120.0	4.0	7588099.8171825
366.33544921875	0.0	40	750255	25	90	14	1	0	7588090.9522657	7588090.9527665	80	7588094.1253867	7588094.1257985	40	7588097.216773	7588097.2172303	100	imm	7588097.5936152	7588098.1060051	7588098.106478	120.0	4.0	7588099.8171825
369.4267578125	0.0	100	756586	25	90	14	1	0	7588090.9522657	7588090.9527665	80	7588094.1253867	7588094.1257985	40	7588097.216773	7588097.2172303	100	imm	7588097.5936152	7588098.1060051	7588098.106478	120.0	4.0	7588099.8171825
370.31591796875	0.0	120	758407	25	90	14	1	0	7588090.9522657	7588090.9527665	80	7588094.1253867	7588094.1257985	40	7588097.216773	7588097.2172303	100	imm	7588097.5936152	7588098.1060051	7588098.106478	120.0	4.0	7588099.8171825
374.216796875	0.0	80	766396	26	97	365	1	0	7588102.0071688	7588102.0076528	80	7588105.0755274	7588105.0760135	40	7588108.5312783	7588108.5318274	100	del	7588109.9293752	7588110.4425858	7588110.4430978	120.0	4.0	7588111.6985501
377.28515625	0.0	40	772680	26	97	365	1	0	7588102.0071688	7588102.0076528	80	7588105.0755274	7588105.0760135	40	7588108.5312783	7588108.5318274	100	del	7588109.9293752	7588110.4425858	7588110.4430978	120.0	4.0	7588111.6985501
380.74072265625	0.0	100	779757	26	97	365	1	0	7588102.0071688	7588102.0076528	80	7588105.0755274	7588105.0760135	40	7588108.5312783	7588108.5318274	100	del	7588109.9293752	7588110.4425858	7588110.4430978	120.0	4.0	7588111.6985501
382.65234375	0.0	120	783672	26	97	365	1	0	7588102.0071688	7588102.0076528	80	7588105.0755274	7588105.0760135	40	7588108.5312783	7588108.5318274	100	del	7588109.9293752	7588110.4425858	7588110.4430978	120.0	4.0	7588111.6985501
385.97021484375	0.0	80	790467	27	67	1430	0	0	7588113.7605711	7588113.761291	80	7588117.2332624	7588117.2337062	40	7588120.4464301	7588120.4469389	100	del	7588121.5295504	nan	nan	nan	nan	nan
389.4423828125	0.0	40	797578	27	67	1430	0	0	7588113.7605711	7588113.761291	80	7588117.2332624	7588117.2337062	40	7588120.4464301	7588120.4469389	100	del	7588121.5295504	nan	nan	nan	nan	nan
392.65576171875	0.0	100	804159	27	67	1430	0	0	7588113.7605711	7588113.761291	80	7588117.2332624	7588117.2337062	40	7588120.4464301	7588120.4469389	100	del	7588121.5295504	nan	nan	nan	nan	nan
396.28076171875	0.0	80	811583	28	50	90	1	1	7588124.0714905	7588124.0719781	80	7588127.2493955	7588127.2497481	40	7588130.6306991	7588130.6311302	100	del	7588131.2266758	7588131.7378476	7588131.7382701	120.0	3.0	7588133.409068
399.45849609375	0.0	40	818091	28	50	90	1	1	7588124.0714905	7588124.0719781	80	7588127.2493955	7588127.2497481	40	7588130.6306991	7588130.6311302	100	del	7588131.2266758	7588131.7378476	7588131.7382701	120.0	3.0	7588133.409068
402.83984375	0.0	100	825016	28	50	90	1	1	7588124.0714905	7588124.0719781	80	7588127.2493955	7588127.2497481	40	7588130.6306991	7588130.6311302	100	del	7588131.2266758	7588131.7378476	7588131.7382701	120.0	3.0	7588133.409068
403.94677734375	0.0	120	827283	28	50	90	1	1	7588124.0714905	7588124.0719781	80	7588127.2493955	7588127.2497481	40	7588130.6306991	7588130.6311302	100	del	7588131.2266758	7588131.7378476	7588131.7382701	120.0	3.0	7588133.409068
408.03076171875	0.0	80	835647	29	60	160	1	1	7588135.821572	7588135.82227	80	7588139.1004533	7588139.1007765	40	7588142.4563132	7588142.4568775	100	na	7588142.7448619	7588143.2556651	7588143.2560424	120.0	4.0	7588145.1614375
411.30908203125	0.0	40	842361	29	60	160	1	1	7588135.821572	7588135.82227	80	7588139.1004533	7588139.1007765	40	7588142.4563132	7588142.4568775	100	na	7588142.7448619	7588143.2556651	7588143.2560424	120.0	4.0	7588145.1614375
414.6650390625	0.0	100	849234	29	60	160	1	1	7588135.821572	7588135.82227	80	7588139.1004533	7588139.1007765	40	7588142.4563132	7588142.4568775	100	na	7588142.7448619	7588143.2556651	7588143.2560424	120.0	4.0	7588145.1614375
415.46435546875	0.0	120	850871	29	60	160	1	1	7588135.821572	7588135.82227	80	7588139.1004533	7588139.1007765	40	7588142.4563132	7588142.4568775	100	na	7588142.7448619	7588143.2556651	7588143.2560424	120.0	4.0	7588145.1614375
419.83154296875	0.0	80	859815	30	50	1430	0	0	7588147.6232014	7588147.6237231	80	7588150.6586202	7588150.6590986	40	7588153.8238376	7588153.8246637	100	del	7588155.7295569	nan	nan	nan	nan	nan
422.8671875	0.0	40	866032	30	50	1430	0	0	7588147.6232014	7588147.6237231	80	7588150.6586202	7588150.6590986	40	7588153.8238376	7588153.8246637	100	del	7588155.7295569	nan	nan	nan	nan	nan
426.0322265625	0.0	100	872514	30	50	1430	0	0	7588147.6232014	7588147.6237231	80	7588150.6586202	7588150.6590986	40	7588153.8238376	7588153.8246637	100	del	7588155.7295569	nan	nan	nan	nan	nan
430.47802734375	0.0	80	881619	31	80	14	1	1	7588158.2696955	7588158.2702082	80	7588161.3762673	7588161.3767588	40	7588164.7494359	7588164.7499335	100	del	7588165.5453347	7588166.0587372	7588166.0592377	120.0	4.0	7588167.5614288
433.58447265625	0.0	40	887981	31	80	14	1	1	7588158.2696955	7588158.2702082	80	7588161.3762673	7588161.3767588	40	7588164.7494359	7588164.7499335	100	del	7588165.5453347	7588166.0587372	7588166.0592377	120.0	4.0	7588167.5614288
436.95751953125	0.0	100	894889	31	80	14	1	1	7588158.2696955	7588158.2702082	80	7588161.3762673	7588161.3767588	40	7588164.7494359	7588164.7499335	100	del	7588165.5453347	7588166.0587372	7588166.0592377	120.0	4.0	7588167.5614288
438.2666015625	0.0	120	897570	31	80	14	1	1	7588158.2696955	7588158.2702082	80	7588161.3762673	7588161.3767588	40	7588164.7494359	7588164.7499335	100	del	7588165.5453347	7588166.0587372	7588166.0592377	120.0	4.0	7588167.5614288
442.1494140625	0.0	80	905522	32	57	908	1	1	7588169.941442	7588169.9419121	80	7588173.3881433	7588173.3888003	40	7588176.6942174	7588176.6947628	100	del	7588177.5775269	7588178.0868482	7588178.08717	120.0	3.0	7588179.2734513
445.59619140625	0.0	40	912581	32	57	908	1	1	7588169.941442	7588169.9419121	80	7588173.3881433	7588173.3888003	40	7588176.6942174	7588176.6947628	100	del	7588177.5775269	7588178.0868482	7588178.08717	120.0	3.0	7588179.2734513
448.90185546875	0.0	100	919351	32	57	908	1	1	7588169.941442	7588169.9419121	80	7588173.3881433	7588173.3888003	40	7588176.6942174	7588176.6947628	100	del	7588177.5775269	7588178.0868482	7588178.08717	120.0	3.0	7588179.2734513
450.29443359375	0.0	120	922203	32	57	908	1	1	7588169.941442	7588169.9419121	80	7588173.3881433	7588173.3888003	40	7588176.6942174	7588176.6947628	100	del	7588177.5775269	7588178.0868482	7588178.08717	120.0	3.0	7588179.2734513
453.53173828125	0.0	80	928833	33	70	1430	0	0	7588181.3243785	7588181.3248995	80	7588184.7934428	7588184.793901	40	7588188.2075472	7588188.2080757	100	del	7588189.4908061	nan	nan	nan	nan	nan
457.0009765625	0.0	40	935938	33	70	1430	0	0	7588181.3243785	7588181.3248995	80	7588184.7934428	7588184.793901	40	7588188.2075472	7588188.2080757	100	del	7588189.4908061	nan	nan	nan	nan	nan
460.4150390625	0.0	100	942930	33	70	1430	0	0	7588181.3243785	7588181.3248995	80	7588184.7934428	7588184.793901	40	7588188.2075472	7588188.2080757	100	del	7588189.4908061	nan	nan	nan	nan	nan
464.359375	0.0	80	951008	34	63	365	1	0	7588192.1519133	7588192.1526057	80	7588195.4316179	7588195.4320914	40	7588198.9375393	7588198.9379414	100	del	7588200.8014828	7588201.3115264	7588201.3118693	120.0	1.0	7588202.9214533
467.638671875	0.0	40	957724	34	63	365	1	0	7588192.1519133	7588192.1526057	80	7588195.4316179	7588195.4320914	40	7588198.9375393	7588198.9379414	100	del	7588200.8014828	7588201.3115264	7588201.3118693	120.0	1.0	7588202.9214533
471.14453125	0.0	100	964904	34	63	365	1	0	7588192.1519133	7588192.1526057	80	7588195.4316179	7588195.4320914	40	7588198.9375393	7588198.9379414	100	del	7588200.8014828	7588201.3115264	7588201.3118693	120.0	1.0	7588202.9214533
473.5185546875	0.0	120	969766	34	63	365	1	0	7588192.1519133	7588192.1526057	80	7588195.4316179	7588195.4320914	40	7588198.9375393	7588198.9379414	100	del	7588200.8014828	7588201.3115264	7588201.3118693	120.0	1.0	7588202.9214533
477.50244140625	0.0	80	977925	35	57	250	0	1	7588205.2957706	7588205.2962255	80	7588208.7228819	7588208.7233551	40	7588211.9469993	7588211.9473085	100	del	7588213.1610662	nan	nan	nan	nan	nan
480.9296875	0.0	40	984944	35	57	250	0	1	7588205.2957706	7588205.2962255	80	7588208.7228819	7588208.7233551	40	7588211.9469993	7588211.9473085	100	del	7588213.1610662	nan	nan	nan	nan	nan
484.15380859375	0.0	100	991547	35	57	250	0	1	7588205.2957706	7588205.2962255	80	7588208.7228819	7588208.7233551	40	7588211.9469993	7588211.9473085	100	del	7588213.1610662	nan	nan	nan	nan	nan
488.1220703125	0.0	80	999674	36	97	14	1	0	7588215.9154976	7588215.9163194	80	7588219.2040497	7588219.2045224	40	7588222.3520251	7588222.3525227	100	na	7588227.0574496	7588227.5694403	7588227.5699399	120.0	1.0	7588229.4817859
491.41064453125	0.0	40	1006409	36	97	14	1	0	7588215.9154976	7588215.9163194	80	7588219.2040497	7588219.2045224	40	7588222.3520251	7588222.3525227	100	na	7588227.0574496	7588227.5694403	7588227.5699399	120.0	1.0	7588229.4817859
494.55859375	0.0	100	1012856	36	97	14	1	0	7588215.9154976	7588215.9163194	80	7588219.2040497	7588219.2045224	40	7588222.3520251	7588222.3525227	100	na	7588227.0574496	7588227.5694403	7588227.5699399	120.0	1.0	7588229.4817859
499.77587890625	0.0	120	1023541	36	97	14	1	0	7588215.9154976	7588215.9163194	80	7588219.2040497	7588219.2045224	40	7588222.3520251	7588222.3525227	100	na	7588227.0574496	7588227.5694403	7588227.5699399	120.0	1.0	7588229.4817859
504.07861328125	0.0	80	1032353	37	67	40	0	0	7588231.872644	7588231.8731511	80	7588235.1321939	7588235.1326981	40	7588238.4696086	7588238.4700414	100	del	7588239.7693971	nan	nan	nan	nan	nan
507.33837890625	0.0	40	1039029	37	67	40	0	0	7588231.872644	7588231.8731511	80	7588235.1321939	7588235.1326981	40	7588238.4696086	7588238.4700414	100	del	7588239.7693971	nan	nan	nan	nan	nan
510.67578125	0.0	100	1045864	37	67	40	0	0	7588231.872644	7588231.8731511	80	7588235.1321939	7588235.1326981	40	7588238.4696086	7588238.4700414	100	del	7588239.7693971	nan	nan	nan	nan	nan
514.64697265625	0.0	80	1053997	38	87	365	1	1	7588242.4410939	7588242.4415782	80	7588245.5176396	7588245.5181381	40	7588248.7693709	7588248.7700343	100	del	7588250.0010558	7588250.5149308	7588250.5154195	120.0	3.0	7588251.9614155
517.7236328125	0.0	40	1060298	38	87	365	1	1	7588242.4410939	7588242.4415782	80	7588245.5176396	7588245.5181381	40	7588248.7693709	7588248.7700343	100	del	7588250.0010558	7588250.5149308	7588250.5154195	120.0	3.0	7588251.9614155
520.97509765625	0.0	100	1066957	38	87	365	1	1	7588242.4410939	7588242.4415782	80	7588245.5176396	7588245.5181381	40	7588248.7693709	7588248.7700343	100	del	7588250.0010558	7588250.5149308	7588250.5154195	120.0	3.0	7588251.9614155
522.720703125	0.0	120	1070532	38	87	365	1	1	7588242.4410939	7588242.4415782	80	7588245.5176396	7588245.5181381	40	7588248.7693709	7588248.7700343	100	del	7588250.0010558	7588250.5149308	7588250.5154195	120.0	3.0	7588251.9614155
526.3642578125	0.0	80	1077994	39	80	120	0	1	7588254.1589416	7588254.1594369	80	7588257.560628	7588257.5611431	40	7588260.9645187	7588260.9649901	100	del	7588261.6489859	nan	nan	nan	nan	nan
529.76611328125	0.0	40	1084961	39	80	120	0	1	7588254.1589416	7588254.1594369	80	7588257.560628	7588257.5611431	40	7588260.9645187	7588260.9649901	100	del	7588261.6489859	nan	nan	nan	nan	nan
533.169921875	0.0	100	1091932	39	80	120	0	1	7588254.1589416	7588254.1594369	80	7588257.560628	7588257.5611431	40	7588260.9645187	7588260.9649901	100	del	7588261.6489859	nan	nan	nan	nan	nan
536.70654296875	0.0	80	1099175	40	93	580	0	1	7588264.501171	7588264.5016624	80	7588267.5756634	7588267.5761566	40	7588270.5994673	7588270.5999712	100	del	7588271.3773125	nan	nan	nan	nan	nan
539.78076171875	0.0	40	1105471	40	93	580	0	1	7588264.501171	7588264.5016624	80	7588267.5756634	7588267.5761566	40	7588270.5994673	7588270.5999712	100	del	7588271.3773125	nan	nan	nan	nan	nan
542.8046875	0.0	100	1111664	40	93	580	0	1	7588264.501171	7588264.5016624	80	7588267.5756634	7588267.5761566	40	7588270.5994673	7588270.5999712	100	del	7588271.3773125	nan	nan	nan	nan	nan
583.724609375	0.0	80	1195468	41	83	160	1	0	7588311.5208549	7588311.5213445	80	7588314.6787789	7588314.679262	40	7588318.1620119	7588318.1625083	100	del	7588319.3538195	7588319.8627876	7588319.8630894	120.0	4.0	7588321.2979757
586.8828125	0.0	40	1201936	41	83	160	1	0	7588311.5208549	7588311.5213445	80	7588314.6787789	7588314.679262	40	7588318.1620119	7588318.1625083	100	del	7588319.3538195	7588319.8627876	7588319.8630894	120.0	4.0	7588321.2979757
590.36572265625	0.0	100	1209069	41	83	160	1	0	7588311.5208549	7588311.5213445	80	7588314.6787789	7588314.679262	40	7588318.1620119	7588318.1625083	100	del	7588319.3538195	7588319.8627876	7588319.8630894	120.0	4.0	7588321.2979757
592.06640625	0.0	120	1212552	41	83	160	1	0	7588311.5208549	7588311.5213445	80	7588314.6787789	7588314.679262	40	7588318.1620119	7588318.1625083	100	del	7588319.3538195	7588319.8627876	7588319.8630894	120.0	4.0	7588321.2979757
596.0078125	0.0	80	1220624	42	77	120	0	1	7588323.8038591	7588323.8044613	80	7588326.9561144	7588326.9565987	40	7588330.369759	7588330.370751	100	del	7588331.27338	nan	nan	nan	nan	nan
599.15966796875	0.0	40	1227079	42	77	120	0	1	7588323.8038591	7588323.8044613	80	7588326.9561144	7588326.9565987	40	7588330.369759	7588330.370751	100	del	7588331.27338	nan	nan	nan	nan	nan
602.5732421875	0.0	100	1234070	42	77	120	0	1	7588323.8038591	7588323.8044613	80	7588326.9561144	7588326.9565987	40	7588330.369759	7588330.370751	100	del	7588331.27338	nan	nan	nan	nan	nan
606.4423828125	0.0	80	1241994	43	93	14	1	1	7588334.2387686	7588334.2392923	80	7588337.5451894	7588337.5456001	40	7588341.0001653	7588341.0008447	100	del	7588341.7859239	7588342.299102	7588342.2995091	120.0	4.0	7588343.6976929
609.74853515625	0.0	40	1248765	43	93	14	1	1	7588334.2387686	7588334.2392923	80	7588337.5451894	7588337.5456001	40	7588341.0001653	7588341.0008447	100	del	7588341.7859239	7588342.299102	7588342.2995091	120.0	4.0	7588343.6976929
613.20361328125	0.0	100	1255841	43	93	14	1	1	7588334.2387686	7588334.2392923	80	7588337.5451894	7588337.5456001	40	7588341.0001653	7588341.0008447	100	del	7588341.7859239	7588342.299102	7588342.2995091	120.0	4.0	7588343.6976929
614.50244140625	0.0	120	1258501	43	93	14	1	1	7588334.2387686	7588334.2392923	80	7588337.5451894	7588337.5456001	40	7588341.0001653	7588341.0008447	100	del	7588341.7859239	7588342.299102	7588342.2995091	120.0	4.0	7588343.6976929
618.384765625	0.0	80	1266452	44	87	580	0	0	7588346.1819912	7588346.1823699	80	7588349.4642711	7588349.4647518	40	7588352.8423065	7588352.84282	100	del	7588353.6497276	nan	nan	nan	nan	nan
621.6669921875	0.0	40	1273174	44	87	580	0	0	7588346.1819912	7588346.1823699	80	7588349.4642711	7588349.4647518	40	7588352.8423065	7588352.84282	100	del	7588353.6497276	nan	nan	nan	nan	nan
625.044921875	0.0	100	1280092	44	87	580	0	0	7588346.1819912	7588346.1823699	80	7588349.4642711	7588349.4647518	40	7588352.8423065	7588352.84282	100	del	7588353.6497276	nan	nan	nan	nan	nan
628.6572265625	0.0	80	1287490	45	77	90	1	1	7588356.4547182	7588356.4552191	80	7588359.4752363	7588359.475697	40	7588362.7115947	7588362.7120838	100	del	7588363.6028618	7588364.1159849	7588364.1165338	120.0	4.0	7588365.3374468
631.677734375	0.0	40	1293676	45	77	90	1	1	7588356.4547182	7588356.4552191	80	7588359.4752363	7588359.475697	40	7588362.7115947	7588362.7120838	100	del	7588363.6028618	7588364.1159849	7588364.1165338	120.0	4.0	7588365.3374468
634.9140625	0.0	100	1300304	45	77	90	1	1	7588356.4547182	7588356.4552191	80	7588359.4752363	7588359.475697	40	7588362.7115947	7588362.7120838	100	del	7588363.6028618	7588364.1159849	7588364.1165338	120.0	4.0	7588365.3374468
636.318359375	0.0	120	1303180	45	77	90	1	1	7588356.4547182	7588356.4552191	80	7588359.4752363	7588359.475697	40	7588362.7115947	7588362.7120838	100	del	7588363.6028618	7588364.1159849	7588364.1165338	120.0	4.0	7588365.3374468
639.8798828125	0.0	80	1310474	46	83	250	0	1	7588367.6773855	7588367.677885	80	7588370.9455652	7588370.946054	40	7588374.1449561	7588374.1454551	100	na	7588375.6669608	nan	nan	nan	nan	nan
643.14794921875	0.0	40	1317167	46	83	250	0	1	7588367.6773855	7588367.677885	80	7588370.9455652	7588370.946054	40	7588374.1449561	7588374.1454551	100	na	7588375.6669608	nan	nan	nan	nan	nan
646.34716796875	0.0	100	1323719	46	83	250	0	1	7588367.6773855	7588367.677885	80	7588370.9455652	7588370.946054	40	7588374.1449561	7588374.1454551	100	na	7588375.6669608	nan	nan	nan	nan	nan
650.857421875	0.0	80	1332956	47	67	365	1	1	7588378.6554611	7588378.6559679	80	7588382.0778895	7588382.0784194	40	7588385.51948	7588385.519924	100	na	7588387.4653452	7588387.9761386	7588387.9765081	120.0	3.0	7588388.9940729
654.27978515625	0.0	40	1339965	47	67	365	1	1	7588378.6554611	7588378.6559679	80	7588382.0778895	7588382.0784194	40	7588385.51948	7588385.519924	100	na	7588387.4653452	7588387.9761386	7588387.9765081	120.0	3.0	7588388.9940729
657.72119140625	0.0	100	1347013	47	67	365	1	1	7588378.6554611	7588378.6559679	80	7588382.0778895	7588382.0784194	40	7588385.51948	7588385.519924	100	na	7588387.4653452	7588387.9761386	7588387.9765081	120.0	3.0	7588388.9940729
660.177734375	0.0	120	1352044	47	67	365	1	1	7588378.6554611	7588378.6559679	80	7588382.0778895	7588382.0784194	40	7588385.51948	7588385.519924	100	na	7588387.4653452	7588387.9761386	7588387.9765081	120.0	3.0	7588388.9940729
663.39794921875	0.0	80	1358639	48	67	908	1	1	7588391.1961692	7588391.1965964	80	7588394.4998749	7588394.5003687	40	7588397.9500542	7588397.9505647	100	imm	7588399.3935474	7588399.9040035	7588399.9044012	120.0	3.0	7588401.1789594
666.70166015625	0.0	40	1365405	48	67	908	1	1	7588391.1961692	7588391.1965964	80	7588394.4998749	7588394.5003687	40	7588397.9500542	7588397.9505647	100	imm	7588399.3935474	7588399.9040035	7588399.9044012	120.0	3.0	7588401.1789594
670.1513671875	0.0	100	1372470	48	67	908	1	1	7588391.1961692	7588391.1965964	80	7588394.4998749	7588394.5003687	40	7588397.9500542	7588397.9505647	100	imm	7588399.3935474	7588399.9040035	7588399.9044012	120.0	3.0	7588401.1789594
672.10546875	0.0	120	1376472	48	67	908	1	1	7588391.1961692	7588391.1965964	80	7588394.4998749	7588394.5003687	40	7588397.9500542	7588397.9505647	100	imm	7588399.3935474	7588399.9040035	7588399.9044012	120.0	3.0	7588401.1789594
675.86474609375	0.0	80	1384171	49	80	160	1	0	7588403.6633125	7588403.663878	80	7588407.0050654	7588407.0055227	40	7588410.1215387	7588410.1220545	100	del	7588411.1775966	7588411.6909876	7588411.6915056	120.0	4.0	7588413.3298546
679.20654296875	0.0	40	1391015	49	80	160	1	0	7588403.6633125	7588403.663878	80	7588407.0050654	7588407.0055227	40	7588410.1215387	7588410.1220545	100	del	7588411.1775966	7588411.6909876	7588411.6915056	120.0	4.0	7588413.3298546
682.32275390625	0.0	100	1397397	49	80	160	1	0	7588403.6633125	7588403.663878	80	7588407.0050654	7588407.0055227	40	7588410.1215387	7588410.1220545	100	del	7588411.1775966	7588411.6909876	7588411.6915056	120.0	4.0	7588413.3298546
683.89208984375	0.0	120	1400611	49	80	160	1	0	7588403.6633125	7588403.663878	80	7588407.0050654	7588407.0055227	40	7588410.1215387	7588410.1220545	100	del	7588411.1775966	7588411.6909876	7588411.6915056	120.0	4.0	7588413.3298546
687.87451171875	0.0	80	1408767	50	70	908	1	0	7588415.6733665	7588415.673854	80	7588418.7173569	7588418.7178164	40	7588421.9343432	7588421.9348518	100	del	7588422.6431583	7588423.1536567	7588423.154037	120.0	3.0	7588424.153496
690.91845703125	0.0	40	1415001	50	70	908	1	0	7588415.6733665	7588415.673854	80	7588418.7173569	7588418.7178164	40	7588421.9343432	7588421.9348518	100	del	7588422.6431583	7588423.1536567	7588423.154037	120.0	3.0	7588424.153496
694.13525390625	0.0	100	1421589	50	70	908	1	0	7588415.6733665	7588415.673854	80	7588418.7173569	7588418.7178164	40	7588421.9343432	7588421.9348518	100	del	7588422.6431583	7588423.1536567	7588423.154037	120.0	3.0	7588424.153496
695.3544921875	0.0	120	1424086	50	70	908	1	0	7588415.6733665	7588415.673854	80	7588418.7173569	7588418.7178164	40	7588421.9343432	7588421.9348518	100	del	7588422.6431583	7588423.1536567	7588423.154037	120.0	3.0	7588424.153496
698.70458984375	0.0	80	1430947	51	57	365	1	1	7588426.5036172	7588426.504062	80	7588429.9784722	7588429.9789633	40	7588433.3973221	7588433.3977515	100	na	7588434.9131108	7588435.4230911	7588435.423425	120.0	4.0	7588436.9469922
702.17919921875	0.0	40	1438063	51	57	365	1	1	7588426.5036172	7588426.504062	80	7588429.9784722	7588429.9789633	40	7588433.3973221	7588433.3977515	100	na	7588434.9131108	7588435.4230911	7588435.423425	120.0	4.0	7588436.9469922
705.59765625	0.0	100	1445064	51	57	365	1	1	7588426.5036172	7588426.504062	80	7588429.9784722	7588429.9789633	40	7588433.3973221	7588433.3977515	100	na	7588434.9131108	7588435.4230911	7588435.423425	120.0	4.0	7588436.9469922
707.62353515625	0.0	120	1449213	51	57	365	1	1	7588426.5036172	7588426.504062	80	7588429.9784722	7588429.9789633	40	7588433.3973221	7588433.3977515	100	na	7588434.9131108	7588435.4230911	7588435.423425	120.0	4.0	7588436.9469922
711.404296875	0.0	80	1456956	52	53	120	0	0	7588439.2041172	7588439.2046102	80	7588442.5907268	7588442.5912227	40	7588445.8127517	7588445.81322	100	del	7588447.0892993	nan	nan	nan	nan	nan
714.791015625	0.0	40	1463892	52	53	120	0	0	7588439.2041172	7588439.2046102	80	7588442.5907268	7588442.5912227	40	7588445.8127517	7588445.81322	100	del	7588447.0892993	nan	nan	nan	nan	nan
718.01318359375	0.0	100	1470491	52	53	120	0	0	7588439.2041172	7588439.2046102	80	7588442.5907268	7588442.5912227	40	7588445.8127517	7588445.81322	100	del	7588447.0892993	nan	nan	nan	nan	nan
722.294921875	0.0	80	1479260	53	67	250	0	0	7588450.0946633	7588450.0951684	80	7588453.5957102	7588453.5961989	40	7588457.0413404	7588457.0418637	100	del	7588458.3140805	nan	nan	nan	nan	nan
725.7958984375	0.0	40	1486430	53	67	250	0	0	7588450.0946633	7588450.0951684	80	7588453.5957102	7588453.5961989	40	7588457.0413404	7588457.0418637	100	del	7588458.3140805	nan	nan	nan	nan	nan
729.2412109375	0.0	100	1493486	53	67	250	0	0	7588450.0946633	7588450.0951684	80	7588453.5957102	7588453.5961989	40	7588457.0413404	7588457.0418637	100	del	7588458.3140805	nan	nan	nan	nan	nan
733.2236328125	0.0	80	1501642	54	53	365	1	1	7588461.0240879	7588461.0244664	80	7588464.2602467	7588464.260742	40	7588467.3973129	7588467.3978379	100	del	7588468.4189585	7588468.9322684	7588468.9328064	120.0	4.0	7588470.0501182
736.4599609375	0.0	40	1508270	54	53	365	1	1	7588461.0240879	7588461.0244664	80	7588464.2602467	7588464.260742	40	7588467.3973129	7588467.3978379	100	del	7588468.4189585	7588468.9322684	7588468.9328064	120.0	4.0	7588470.0501182
739.59716796875	0.0	100	1514695	54	53	365	1	1	7588461.0240879	7588461.0244664	80	7588464.2602467	7588464.260742	40	7588467.3973129	7588467.3978379	100	del	7588468.4189585	7588468.9322684	7588468.9328064	120.0	4.0	7588470.0501182
741.1318359375	0.0	120	1517838	54	53	365	1	1	7588461.0240879	7588461.0244664	80	7588464.2602467	7588464.260742	40	7588467.3973129	7588467.3978379	100	del	7588468.4189585	7588468.9322684	7588468.9328064	120.0	4.0	7588470.0501182
744.6591796875	0.0	80	1525062	55	63	40	0	0	7588472.4594674	7588472.4599422	80	7588475.9085097	7588475.9089799	40	7588479.3794328	7588479.3799176	100	na	7588480.8019049	nan	nan	nan	nan	nan
748.10791015625	0.0	40	1532125	55	63	40	0	0	7588472.4594674	7588472.4599422	80	7588475.9085097	7588475.9089799	40	7588479.3794328	7588479.3799176	100	na	7588480.8019049	nan	nan	nan	nan	nan
751.57861328125	0.0	100	1539233	55	63	40	0	0	7588472.4594674	7588472.4599422	80	7588475.9085097	7588475.9089799	40	7588479.3794328	7588479.3799176	100	na	7588480.8019049	nan	nan	nan	nan	nan
755.79736328125	0.0	80	1547873	56	83	14	1	1	7588483.5984025	7588483.5989194	80	7588486.9059853	7588486.9065625	40	7588489.9940196	7588489.9944981	100	del	7588491.1291534	7588491.6433569	7588491.6438183	120.0	4.0	7588492.5458547
759.10498046875	0.0	40	1554647	56	83	14	1	1	7588483.5984025	7588483.5989194	80	7588486.9059853	7588486.9065625	40	7588489.9940196	7588489.9944981	100	del	7588491.1291534	7588491.6433569	7588491.6438183	120.0	4.0	7588492.5458547
762.19287109375	0.0	100	1560971	56	83	14	1	1	7588483.5984025	7588483.5989194	80	7588486.9059853	7588486.9065625	40	7588489.9940196	7588489.9944981	100	del	7588491.1291534	7588491.6433569	7588491.6438183	120.0	4.0	7588492.5458547
763.84228515625	0.0	120	1564349	56	83	14	1	1	7588483.5984025	7588483.5989194	80	7588486.9059853	7588486.9065625	40	7588489.9940196	7588489.9944981	100	del	7588491.1291534	7588491.6433569	7588491.6438183	120.0	4.0	7588492.5458547
767.21240234375	0.0	80	1571251	57	97	40	0	1	7588495.0134182	7588495.0138652	80	7588498.2461021	7588498.2466015	40	7588501.3619072	7588501.362418	100	del	7588502.8499542	nan	nan	nan	nan	nan
770.44482421875	0.0	40	1577871	57	97	40	0	1	7588495.0134182	7588495.0138652	80	7588498.2461021	7588498.2466015	40	7588501.3619072	7588501.362418	100	del	7588502.8499542	nan	nan	nan	nan	nan
773.560546875	0.0	100	1584252	57	97	40	0	1	7588495.0134182	7588495.0138652	80	7588498.2461021	7588498.2466015	40	7588501.3619072	7588501.362418	100	del	7588502.8499542	nan	nan	nan	nan	nan
778.01513671875	0.0	80	1593375	58	80	580	0	1	7588505.8165454	7588505.8169966	80	7588509.2053368	7588509.2058399	40	7588512.6600898	7588512.6606039	100	del	7588514.033381	nan	nan	nan	nan	nan
781.40380859375	0.0	40	1600315	58	80	580	0	1	7588505.8165454	7588505.8169966	80	7588509.2053368	7588509.2058399	40	7588512.6600898	7588512.6606039	100	del	7588514.033381	nan	nan	nan	nan	nan
784.8583984375	0.0	100	1607390	58	80	580	0	1	7588505.8165454	7588505.8169966	80	7588509.2053368	7588509.2058399	40	7588512.6600898	7588512.6606039	100	del	7588514.033381	nan	nan	nan	nan	nan
788.89453125	0.0	80	1615656	59	70	90	1	1	7588516.6960946	7588516.6965881	80	7588520.0407205	7588520.0412216	40	7588523.3865307	7588523.3870358	100	del	7588524.7060892	7588525.2206438	7588525.2210886	120.0	4.0	7588526.9774543
792.23876953125	0.0	40	1622505	59	70	90	1	1	7588516.6960946	7588516.6965881	80	7588520.0407205	7588520.0412216	40	7588523.3865307	7588523.3870358	100	del	7588524.7060892	7588525.2206438	7588525.2210886	120.0	4.0	7588526.9774543
795.58447265625	0.0	100	1629357	59	70	90	1	1	7588516.6960946	7588516.6965881	80	7588520.0407205	7588520.0412216	40	7588523.3865307	7588523.3870358	100	del	7588524.7060892	7588525.2206438	7588525.2210886	120.0	4.0	7588526.9774543
797.41845703125	0.0	120	1633113	59	70	90	1	1	7588516.6960946	7588516.6965881	80	7588520.0407205	7588520.0412216	40	7588523.3865307	7588523.3870358	100	del	7588524.7060892	7588525.2206438	7588525.2210886	120.0	4.0	7588526.9774543
801.25390625	0.0	80	1640968	60	57	120	0	1	7588529.055911	7588529.0563701	80	7588532.2674732	7588532.2679298	40	7588535.4187939	7588535.4192896	100	del	7588536.8897781	nan	nan	nan	nan	nan
804.46533203125	0.0	40	1647545	60	57	120	0	1	7588529.055911	7588529.0563701	80	7588532.2674732	7588532.2679298	40	7588535.4187939	7588535.4192896	100	del	7588536.8897781	nan	nan	nan	nan	nan
807.61669921875	0.0	100	1653999	60	57	120	0	1	7588529.055911	7588529.0563701	80	7588532.2674732	7588532.2679298	40	7588535.4187939	7588535.4192896	100	del	7588536.8897781	nan	nan	nan	nan	nan
868.91748046875	0.0	80	1779543	61	73	14	1	0	7588596.7212211	7588596.7216438	80	7588599.8709115	7588599.8714218	40	7588603.3325478	7588603.3329683	100	del	7588604.4421859	7588604.9558387	7588604.9564852	120.0	4.0	7588606.1776846
872.06689453125	0.0	40	1785993	61	73	14	1	0	7588596.7212211	7588596.7216438	80	7588599.8709115	7588599.8714218	40	7588603.3325478	7588603.3329683	100	del	7588604.4421859	7588604.9558387	7588604.9564852	120.0	4.0	7588606.1776846
875.5283203125	0.0	100	1793082	61	73	14	1	0	7588596.7212211	7588596.7216438	80	7588599.8709115	7588599.8714218	40	7588603.3325478	7588603.3329683	100	del	7588604.4421859	7588604.9558387	7588604.9564852	120.0	4.0	7588606.1776846
877.15185546875	0.0	120	1796407	61	73	14	1	0	7588596.7212211	7588596.7216438	80	7588599.8709115	7588599.8714218	40	7588603.3325478	7588603.3329683	100	del	7588604.4421859	7588604.9558387	7588604.9564852	120.0	4.0	7588606.1776846
880.80078125	0.0	80	1803880	62	93	1430	0	1	7588608.6052222	7588608.6056447	80	7588611.8055801	7588611.805749	40	7588615.0671537	7588615.0676341	100	imm	7588616.5220122	nan	nan	nan	nan	nan
884.00146484375	0.0	40	1810435	62	93	1430	0	1	7588608.6052222	7588608.6056447	80	7588611.8055801	7588611.805749	40	7588615.0671537	7588615.0676341	100	imm	7588616.5220122	nan	nan	nan	nan	nan
887.2626953125	0.0	100	1817114	62	93	1430	0	1	7588608.6052222	7588608.6056447	80	7588611.8055801	7588611.805749	40	7588615.0671537	7588615.0676341	100	imm	7588616.5220122	nan	nan	nan	nan	nan
891.58203125	0.0	80	1825960	63	80	908	1	1	7588619.3867196	7588619.3871783	80	7588622.8113736	7588622.8118778	40	7588626.1309098	7588626.1314162	100	na	7588627.4818942	7588627.9955061	7588627.995986	120.0	4.0	7588630.5853195
895.0068359375	0.0	40	1832974	63	80	908	1	1	7588619.3867196	7588619.3871783	80	7588622.8113736	7588622.8118778	40	7588626.1309098	7588626.1314162	100	na	7588627.4818942	7588627.9955061	7588627.995986	120.0	4.0	7588630.5853195
898.326171875	0.0	100	1839772	63	80	908	1	1	7588619.3867196	7588619.3871783	80	7588622.8113736	7588622.8118778	40	7588626.1309098	7588626.1314162	100	na	7588627.4818942	7588627.9955061	7588627.995986	120.0	4.0	7588630.5853195
900.19091796875	0.0	120	1843591	63	80	908	1	1	7588619.3867196	7588619.3871783	80	7588622.8113736	7588622.8118778	40	7588626.1309098	7588626.1314162	100	na	7588627.4818942	7588627.9955061	7588627.995986	120.0	4.0	7588630.5853195
905.08154296875	0.0	80	1853607	64	70	160	1	1	7588632.8862882	7588632.8869288	80	7588636.0571353	7588636.057602	40	7588639.2980726	7588639.2985836	100	del	7588640.5298485	7588641.0397267	7588641.0400532	120.0	4.0	7588642.4096281
908.251953125	0.0	40	1860100	64	70	160	1	1	7588632.8862882	7588632.8869288	80	7588636.0571353	7588636.057602	40	7588639.2980726	7588639.2985836	100	del	7588640.5298485	7588641.0397267	7588641.0400532	120.0	4.0	7588642.4096281
911.49267578125	0.0	100	1866737	64	70	160	1	1	7588632.8862882	7588632.8869288	80	7588636.0571353	7588636.057602	40	7588639.2980726	7588639.2985836	100	del	7588640.5298485	7588641.0397267	7588641.0400532	120.0	4.0	7588642.4096281
913.234375	0.0	120	1870304	64	70	160	1	1	7588632.8862882	7588632.8869288	80	7588636.0571353	7588636.057602	40	7588639.2980726	7588639.2985836	100	del	7588640.5298485	7588641.0397267	7588641.0400532	120.0	4.0	7588642.4096281
916.97607421875	0.0	80	1877967	65	90	160	1	0	7588644.7816265	7588644.7820966	80	7588648.2315036	7588648.2319601	40	7588651.6062594	7588651.6067717	100	na	7588653.2511205	7588653.7640234	7588653.7644731	120.0	2.0	7588654.9776234
920.42626953125	0.0	40	1885033	65	90	160	1	0	7588644.7816265	7588644.7820966	80	7588648.2315036	7588648.2319601	40	7588651.6062594	7588651.6067717	100	na	7588653.2511205	7588653.7640234	7588653.7644731	120.0	2.0	7588654.9776234
923.80078125	0.0	100	1891944	65	90	160	1	0	7588644.7816265	7588644.7820966	80	7588648.2315036	7588648.2319601	40	7588651.6062594	7588651.6067717	100	na	7588653.2511205	7588653.7640234	7588653.7644731	120.0	2.0	7588654.9776234
925.95849609375	0.0	120	1896363	65	90	160	1	0	7588644.7816265	7588644.7820966	80	7588648.2315036	7588648.2319601	40	7588651.6062594	7588651.6067717	100	na	7588653.2511205	7588653.7640234	7588653.7644731	120.0	2.0	7588654.9776234
929.197265625	0.0	80	1902996	66	60	580	0	0	7588657.0028872	7588657.0033638	80	7588660.347892	7588660.3486635	40	7588663.5808372	7588663.5813936	100	del	7588664.8579516	nan	nan	nan	nan	nan
932.5419921875	0.0	40	1909846	66	60	580	0	0	7588657.0028872	7588657.0033638	80	7588660.347892	7588660.3486635	40	7588663.5808372	7588663.5813936	100	del	7588664.8579516	nan	nan	nan	nan	nan
935.77490234375	0.0	100	1916467	66	60	580	0	0	7588657.0028872	7588657.0033638	80	7588660.347892	7588660.3486635	40	7588663.5808372	7588663.5813936	100	del	7588664.8579516	nan	nan	nan	nan	nan
939.7890625	0.0	80	1924688	67	77	40	0	0	7588667.5950233	7588667.5955221	80	7588670.6613893	7588670.6618831	40	7588674.0823589	7588674.0828544	100	na	7588675.2498299	nan	nan	nan	nan	nan
942.85546875	0.0	40	1930968	67	77	40	0	0	7588667.5950233	7588667.5955221	80	7588670.6613893	7588670.6618831	40	7588674.0823589	7588674.0828544	100	na	7588675.2498299	nan	nan	nan	nan	nan
946.2763671875	0.0	100	1937974	67	77	40	0	0	7588667.5950233	7588667.5955221	80	7588670.6613893	7588670.6618831	40	7588674.0823589	7588674.0828544	100	na	7588675.2498299	nan	nan	nan	nan	nan
950.11767578125	0.0	80	1945841	68	83	1430	0	1	7588677.9238738	7588677.9242154	80	7588681.051263	7588681.0514898	40	7588684.2355359	7588684.2360175	100	na	7588685.2897793	nan	nan	nan	nan	nan
953.2451171875	0.0	40	1952246	68	83	1430	0	1	7588677.9238738	7588677.9242154	80	7588681.051263	7588681.0514898	40	7588684.2355359	7588684.2360175	100	na	7588685.2897793	nan	nan	nan	nan	nan
956.42919921875	0.0	100	1958767	68	83	1430	0	1	7588677.9238738	7588677.9242154	80	7588681.051263	7588681.0514898	40	7588684.2355359	7588684.2360175	100	na	7588685.2897793	nan	nan	nan	nan	nan
960.1884765625	0.0	80	1966466	69	57	40	0	1	7588687.9951532	7588687.9957115	80	7588691.2760168	7588691.2764813	40	7588694.5706824	7588694.5711632	100	imm	7588696.1632183	nan	nan	nan	nan	nan
963.46923828125	0.0	40	1973185	69	57	40	0	1	7588687.9951532	7588687.9957115	80	7588691.2760168	7588691.2764813	40	7588694.5706824	7588694.5711632	100	imm	7588696.1632183	nan	nan	nan	nan	nan
966.76416015625	0.0	100	1979933	69	57	40	0	1	7588687.9951532	7588687.9957115	80	7588691.2760168	7588691.2764813	40	7588694.5706824	7588694.5711632	100	imm	7588696.1632183	nan	nan	nan	nan	nan
971.07177734375	0.0	80	1988755	70	80	90	1	1	7588698.878602	7588698.8792422	80	7588702.0854635	7588702.0859803	40	7588705.3562357	7588705.356711	100	del	7588706.9938147	7588707.5064486	7588707.5069165	120.0	4.0	7588708.8992331
974.2783203125	0.0	40	1995322	70	80	90	1	1	7588698.878602	7588698.8792422	80	7588702.0854635	7588702.0859803	40	7588705.3562357	7588705.356711	100	del	7588706.9938147	7588707.5064486	7588707.5069165	120.0	4.0	7588708.8992331
977.54931640625	0.0	100	2002021	70	80	90	1	1	7588698.878602	7588698.8792422	80	7588702.0854635	7588702.0859803	40	7588705.3562357	7588705.356711	100	del	7588706.9938147	7588707.5064486	7588707.5069165	120.0	4.0	7588708.8992331
979.69921875	0.0	120	2006424	70	80	90	1	1	7588698.878602	7588698.8792422	80	7588702.0854635	7588702.0859803	40	7588705.3562357	7588705.356711	100	del	7588706.9938147	7588707.5064486	7588707.5069165	120.0	4.0	7588708.8992331
983.439453125	0.0	80	2014084	71	60	365	1	0	7588711.2463904	7588711.2468646	80	7588714.7298714	7588714.7303832	40	7588718.1044129	7588718.1048759	100	na	7588719.1778167	7588719.6908793	7588719.6914236	120.0	2.0	7588721.6501274
986.9228515625	0.0	40	2021218	71	60	365	1	0	7588711.2463904	7588711.2468646	80	7588714.7298714	7588714.7303832	40	7588718.1044129	7588718.1048759	100	na	7588719.1778167	7588719.6908793	7588719.6914236	120.0	2.0	7588721.6501274
990.296875	0.0	100	2028128	71	60	365	1	0	7588711.2463904	7588711.2468646	80	7588714.7298714	7588714.7303832	40	7588718.1044129	7588718.1048759	100	na	7588719.1778167	7588719.6908793	7588719.6914236	120.0	2.0	7588721.6501274
991.8837890625	0.0	120	2031378	71	60	365	1	0	7588711.2463904	7588711.2468646	80	7588714.7298714	7588714.7303832	40	7588718.1044129	7588718.1048759	100	na	7588719.1778167	7588719.6908793	7588719.6914236	120.0	2.0	7588721.6501274
996.0576171875	0.0	80	2039926	72	90	580	0	0	7588723.86503	7588723.8654524	80	7588727.2877402	7588727.2881492	40	7588730.3696018	7588730.3701205	100	na	7588731.3712197	nan	nan	nan	nan	nan
999.47998046875	0.0	40	2046935	72	90	580	0	0	7588723.86503	7588723.8654524	80	7588727.2877402	7588727.2881492	40	7588730.3696018	7588730.3701205	100	na	7588731.3712197	nan	nan	nan	nan	nan
1002.56201171875	0.0	100	2053247	72	90	580	0	0	7588723.86503	7588723.8654524	80	7588727.2877402	7588727.2881492	40	7588730.3696018	7588730.3701205	100	na	7588731.3712197	nan	nan	nan	nan	nan
1006.11181640625	0.0	80	2060517	73	90	908	1	0	7588733.9196142	7588733.9201547	80	7588736.9694628	7588736.9699489	40	7588740.0646331	7588740.0652073	100	na	7588741.1137619	7588741.6274845	7588741.627963	120.0	2.0	7588742.7782756
1009.16162109375	0.0	40	2066763	73	90	908	1	0	7588733.9196142	7588733.9201547	80	7588736.9694628	7588736.9699489	40	7588740.0646331	7588740.0652073	100	na	7588741.1137619	7588741.6274845	7588741.627963	120.0	2.0	7588742.7782756
1012.2568359375	0.0	100	2073102	73	90	908	1	0	7588733.9196142	7588733.9201547	80	7588736.9694628	7588736.9699489	40	7588740.0646331	7588740.0652073	100	na	7588741.1137619	7588741.6274845	7588741.627963	120.0	2.0	7588742.7782756
1013.8193359375	0.0	120	2076302	73	90	908	1	0	7588733.9196142	7588733.9201547	80	7588736.9694628	7588736.9699489	40	7588740.0646331	7588740.0652073	100	na	7588741.1137619	7588741.6274845	7588741.627963	120.0	2.0	7588742.7782756
1017.14794921875	0.0	80	2083119	74	53	1430	0	0	7588744.9562214	7588744.956674	80	7588748.114411	7588748.1148783	40	7588751.1331553	7588751.1336767	100	del	7588752.1377198	nan	nan	nan	nan	nan
1020.30615234375	0.0	40	2089587	74	53	1430	0	0	7588744.9562214	7588744.956674	80	7588748.114411	7588748.1148783	40	7588751.1331553	7588751.1336767	100	del	7588752.1377198	nan	nan	nan	nan	nan
1023.32470703125	0.0	100	2095769	74	53	1430	0	0	7588744.9562214	7588744.956674	80	7588748.114411	7588748.1148783	40	7588751.1331553	7588751.1336767	100	del	7588752.1377198	nan	nan	nan	nan	nan
1027.1171875	0.0	80	2103536	75	83	908	1	0	7588754.925682	7588754.9261843	80	7588757.980833	7588757.9813206	40	7588761.0675249	7588761.0680187	100	del	7588764.2095166	7588764.7228618	7588764.7234444	120.0	2.0	7588766.3457204
1030.17236328125	0.0	40	2109793	75	83	908	1	0	7588754.925682	7588754.9261843	80	7588757.980833	7588757.9813206	40	7588761.0675249	7588761.0680187	100	del	7588764.2095166	7588764.7228618	7588764.7234444	120.0	2.0	7588766.3457204
1033.2587890625	0.0	100	2116114	75	83	908	1	0	7588754.925682	7588754.9261843	80	7588757.980833	7588757.9813206	40	7588761.0675249	7588761.0680187	100	del	7588764.2095166	7588764.7228618	7588764.7234444	120.0	2.0	7588766.3457204
1036.91455078125	0.0	120	2123601	75	83	908	1	0	7588754.925682	7588754.9261843	80	7588757.980833	7588757.9813206	40	7588761.0675249	7588761.0680187	100	del	7588764.2095166	7588764.7228618	7588764.7234444	120.0	2.0	7588766.3457204
1040.8681640625	0.0	80	2131698	76	53	14	1	1	7588768.6767666	7588768.6772333	80	7588772.1138668	7588772.1143469	40	7588775.6141656	7588775.6146566	100	imm	7588776.6978102	7588777.2077129	7588777.2080434	120.0	4.0	7588778.3537261
1044.30517578125	0.0	40	2138737	76	53	14	1	1	7588768.6767666	7588768.6772333	80	7588772.1138668	7588772.1143469	40	7588775.6141656	7588775.6146566	100	imm	7588776.6978102	7588777.2077129	7588777.2080434	120.0	4.0	7588778.3537261
1047.80517578125	0.0	100	2145905	76	53	14	1	1	7588768.6767666	7588768.6772333	80	7588772.1138668	7588772.1143469	40	7588775.6141656	7588775.6146566	100	imm	7588776.6978102	7588777.2077129	7588777.2080434	120.0	4.0	7588778.3537261
1049.3984375	0.0	120	2149168	76	53	14	1	1	7588768.6767666	7588768.6772333	80	7588772.1138668	7588772.1143469	40	7588775.6141656	7588775.6146566	100	imm	7588776.6978102	7588777.2077129	7588777.2080434	120.0	4.0	7588778.3537261
1052.84521484375	0.0	80	2156227	77	73	908	1	1	7588780.6543208	7588780.654833	80	7588784.1602598	7588784.160761	40	7588787.4499791	7588787.4505637	100	na	7588787.7700424	7588788.2797522	7588788.2801143	120.0	3.0	7588789.2819953
1056.35107421875	0.0	40	2163407	77	73	908	1	1	7588780.6543208	7588780.654833	80	7588784.1602598	7588784.160761	40	7588787.4499791	7588787.4505637	100	na	7588787.7700424	7588788.2797522	7588788.2801143	120.0	3.0	7588789.2819953
1059.640625	0.0	100	2170144	77	73	908	1	1	7588780.6543208	7588780.654833	80	7588784.1602598	7588784.160761	40	7588787.4499791	7588787.4505637	100	na	7588787.7700424	7588788.2797522	7588788.2801143	120.0	3.0	7588789.2819953
1060.47021484375	0.0	120	2171843	77	73	908	1	1	7588780.6543208	7588780.654833	80	7588784.1602598	7588784.160761	40	7588787.4499791	7588787.4505637	100	na	7588787.7700424	7588788.2797522	7588788.2801143	120.0	3.0	7588789.2819953
1063.74609375	0.0	80	2178552	78	100	160	1	0	7588791.5556102	7588791.5561035	80	7588794.7284225	7588794.7289321	40	7588797.9575806	7588797.9581134	100	na	7588798.8903428	7588799.4037067	7588799.4042005	120.0	3.0	7588800.2899767
1066.9189453125	0.0	40	2185050	78	100	160	1	0	7588791.5556102	7588791.5561035	80	7588794.7284225	7588794.7289321	40	7588797.9575806	7588797.9581134	100	na	7588798.8903428	7588799.4037067	7588799.4042005	120.0	3.0	7588800.2899767
1070.14794921875	0.0	100	2191663	78	100	160	1	0	7588791.5556102	7588791.5561035	80	7588794.7284225	7588794.7289321	40	7588797.9575806	7588797.9581134	100	na	7588798.8903428	7588799.4037067	7588799.4042005	120.0	3.0	7588800.2899767
1071.59423828125	0.0	120	2194625	78	100	160	1	0	7588791.5556102	7588791.5561035	80	7588794.7284225	7588794.7289321	40	7588797.9575806	7588797.9581134	100	na	7588798.8903428	7588799.4037067	7588799.4042005	120.0	3.0	7588800.2899767
1074.7421875	0.0	80	2201072	79	87	250	0	0	7588802.551769	7588802.5522441	80	7588805.5948433	7588805.5952773	40	7588809.0523942	7588809.0537985	100	del	7588809.6670674	nan	nan	nan	nan	nan
1077.78515625	0.0	40	2207304	79	87	250	0	0	7588802.551769	7588802.5522441	80	7588805.5948433	7588805.5952773	40	7588809.0523942	7588809.0537985	100	del	7588809.6670674	nan	nan	nan	nan	nan
1081.24267578125	0.0	100	2214385	79	87	250	0	0	7588802.551769	7588802.5522441	80	7588805.5948433	7588805.5952773	40	7588809.0523942	7588809.0537985	100	del	7588809.6670674	nan	nan	nan	nan	nan
1084.40625	0.0	80	2220864	80	73	120	0	1	7588812.2163027	7588812.2167755	80	7588815.4413847	7588815.4418355	40	7588818.8688958	7588818.8693607	100	na	7588819.6017728	nan	nan	nan	nan	nan
1087.63134765625	0.0	40	2227469	80	73	120	0	1	7588812.2163027	7588812.2167755	80	7588815.4413847	7588815.4418355	40	7588818.8688958	7588818.8693607	100	na	7588819.6017728	nan	nan	nan	nan	nan
1091.05859375	0.0	100	2234488	80	73	120	0	1	7588812.2163027	7588812.2167755	80	7588815.4413847	7588815.4418355	40	7588818.8688958	7588818.8693607	100	na	7588819.6017728	nan	nan	nan	nan	nan
1139.3681640625	0.0	80	2333426	81	50	160	1	0	7588867.179504	7588867.1799498	80	7588870.4941289	7588870.4946157	40	7588873.9164936	7588873.9169664	100	imm	7588874.8662223	7588875.3786496	7588875.3790355	120.0	2.0	7588876.0819408
1142.6826171875	0.0	40	2340214	81	50	160	1	0	7588867.179504	7588867.1799498	80	7588870.4941289	7588870.4946157	40	7588873.9164936	7588873.9169664	100	imm	7588874.8662223	7588875.3786496	7588875.3790355	120.0	2.0	7588876.0819408
1146.10498046875	0.0	100	2347223	81	50	160	1	0	7588867.179504	7588867.1799498	80	7588870.4941289	7588870.4946157	40	7588873.9164936	7588873.9169664	100	imm	7588874.8662223	7588875.3786496	7588875.3790355	120.0	2.0	7588876.0819408
1147.56689453125	0.0	120	2350217	81	50	160	1	0	7588867.179504	7588867.1799498	80	7588870.4941289	7588870.4946157	40	7588873.9164936	7588873.9169664	100	imm	7588874.8662223	7588875.3786496	7588875.3790355	120.0	2.0	7588876.0819408
1150.72900390625	0.0	80	2356693	82	87	120	0	1	7588878.540872	7588878.5413157	80	7588882.0138084	7588882.0143083	40	7588885.1221731	7588885.1227379	100	del	7588886.1474091	nan	nan	nan	nan	nan
1154.2021484375	0.0	40	2363806	82	87	120	0	1	7588878.540872	7588878.5413157	80	7588882.0138084	7588882.0143083	40	7588885.1221731	7588885.1227379	100	del	7588886.1474091	nan	nan	nan	nan	nan
1157.31005859375	0.0	100	2370171	82	87	120	0	1	7588878.540872	7588878.5413157	80	7588882.0138084	7588882.0143083	40	7588885.1221731	7588885.1227379	100	del	7588886.1474091	nan	nan	nan	nan	nan
1160.98291015625	0.0	80	2377693	83	97	160	1	1	7588888.7951249	7588888.7956067	80	7588892.2517738	7588892.2522162	40	7588895.5619121	7588895.5623584	100	del	7588896.2496588	7588896.7635715	7588896.7640604	120.0	4.0	7588898.8834862
1164.439453125	0.0	40	2384772	83	97	160	1	1	7588888.7951249	7588888.7956067	80	7588892.2517738	7588892.2522162	40	7588895.5619121	7588895.5623584	100	del	7588896.2496588	7588896.7635715	7588896.7640604	120.0	4.0	7588898.8834862
1167.74951171875	0.0	100	2391551	83	97	160	1	1	7588888.7951249	7588888.7956067	80	7588892.2517738	7588892.2522162	40	7588895.5619121	7588895.5623584	100	del	7588896.2496588	7588896.7635715	7588896.7640604	120.0	4.0	7588898.8834862
1168.951171875	0.0	120	2394012	83	97	160	1	1	7588888.7951249	7588888.7956067	80	7588892.2517738	7588892.2522162	40	7588895.5619121	7588895.5623584	100	del	7588896.2496588	7588896.7635715	7588896.7640604	120.0	4.0	7588898.8834862
1173.3388671875	0.0	80	2402998	84	63	908	1	1	7588901.1510816	7588901.1515947	80	7588904.4653203	7588904.4658157	40	7588907.8882917	7588907.8887759	100	del	7588908.6106006	7588909.1208964	7588909.1213655	120.0	2.0	7588910.7546382
1176.65283203125	0.0	40	2409785	84	63	908	1	1	7588901.1510816	7588901.1515947	80	7588904.4653203	7588904.4658157	40	7588907.8882917	7588907.8887759	100	del	7588908.6106006	7588909.1208964	7588909.1213655	120.0	2.0	7588910.7546382
1180.07568359375	0.0	100	2416795	84	63	908	1	1	7588901.1510816	7588901.1515947	80	7588904.4653203	7588904.4658157	40	7588907.8882917	7588907.8887759	100	del	7588908.6106006	7588909.1208964	7588909.1213655	120.0	2.0	7588910.7546382
1181.30810546875	0.0	120	2419319	84	63	908	1	1	7588901.1510816	7588901.1515947	80	7588904.4653203	7588904.4658157	40	7588907.8882917	7588907.8887759	100	del	7588908.6106006	7588909.1208964	7588909.1213655	120.0	2.0	7588910.7546382
1185.22265625	0.0	80	2427336	85	87	40	0	1	7588913.0354745	7588913.0359883	80	7588916.1448061	7588916.1452595	40	7588919.3847088	7588919.3852154	100	na	7588920.7621783	nan	nan	nan	nan	nan
1188.33203125	0.0	40	2433704	85	87	40	0	1	7588913.0354745	7588913.0359883	80	7588916.1448061	7588916.1452595	40	7588919.3847088	7588919.3852154	100	na	7588920.7621783	nan	nan	nan	nan	nan
1191.57177734375	0.0	100	2440339	85	87	40	0	1	7588913.0354745	7588913.0359883	80	7588916.1448061	7588916.1452595	40	7588919.3847088	7588919.3852154	100	na	7588920.7621783	nan	nan	nan	nan	nan
1195.6787109375	0.0	80	2448750	86	73	90	1	1	7588923.4919708	7588923.4923421	80	7588926.9832211	7588926.983689	40	7588930.3070023	7588930.3074975	100	del	7588930.371869	7588930.8851572	7588930.8857927	120.0	2.0	7588931.8661028
1199.169921875	0.0	40	2455900	86	73	90	1	1	7588923.4919708	7588923.4923421	80	7588926.9832211	7588926.983689	40	7588930.3070023	7588930.3074975	100	del	7588930.371869	7588930.8851572	7588930.8857927	120.0	2.0	7588931.8661028
1202.49365234375	0.0	100	2462707	86	73	90	1	1	7588923.4919708	7588923.4923421	80	7588926.9832211	7588926.983689	40	7588930.3070023	7588930.3074975	100	del	7588930.371869	7588930.8851572	7588930.8857927	120.0	2.0	7588931.8661028
1203.072265625	0.0	120	2463892	86	73	90	1	1	7588923.4919708	7588923.4923421	80	7588926.9832211	7588926.983689	40	7588930.3070023	7588930.3074975	100	del	7588930.371869	7588930.8851572	7588930.8857927	120.0	2.0	7588931.8661028
1206.41455078125	0.0	80	2470737	87	93	250	0	1	7588934.2279318	7588934.2283969	80	7588937.5955649	7588937.5959348	40	7588940.7827855	7588940.7833972	100	na	7588941.7381211	nan	nan	nan	nan	nan
1209.7822265625	0.0	40	2477634	87	93	250	0	1	7588934.2279318	7588934.2283969	80	7588937.5955649	7588937.5959348	40	7588940.7827855	7588940.7833972	100	na	7588941.7381211	nan	nan	nan	nan	nan
1212.96923828125	0.0	100	2484161	87	93	250	0	1	7588934.2279318	7588934.2283969	80	7588937.5955649	7588937.5959348	40	7588940.7827855	7588940.7833972	100	na	7588941.7381211	nan	nan	nan	nan	nan
1216.7001953125	0.0	80	2491802	88	97	250	0	1	7588944.5139831	7588944.5144382	80	7588947.7999591	7588947.800591	40	7588950.8930103	7588950.8934564	100	na	7588951.3139587	nan	nan	nan	nan	nan
1219.986328125	0.0	40	2498532	88	97	250	0	1	7588944.5139831	7588944.5144382	80	7588947.7999591	7588947.800591	40	7588950.8930103	7588950.8934564	100	na	7588951.3139587	nan	nan	nan	nan	nan
1223.0791015625	0.0	100	2504866	88	97	250	0	1	7588944.5139831	7588944.5144382	80	7588947.7999591	7588947.800591	40	7588950.8930103	7588950.8934564	100	na	7588951.3139587	nan	nan	nan	nan	nan
1226.29541015625	0.0	80	2511453	89	90	250	0	1	7588954.1095815	7588954.1099222	80	7588957.4645669	7588957.4651192	40	7588960.6917054	7588960.6922394	100	imm	7588961.0034061	nan	nan	nan	nan	nan
1229.65087890625	0.0	40	2518325	89	90	250	0	1	7588954.1095815	7588954.1099222	80	7588957.4645669	7588957.4651192	40	7588960.6917054	7588960.6922394	100	imm	7588961.0034061	nan	nan	nan	nan	nan
1232.87744140625	0.0	100	2524933	89	90	250	0	1	7588954.1095815	7588954.1099222	80	7588957.4645669	7588957.4651192	40	7588960.6917054	7588960.6922394	100	imm	7588961.0034061	nan	nan	nan	nan	nan
1236.125	0.0	80	2531584	90	70	40	0	1	7588963.9393291	7588963.9397992	80	7588967.3127233	7588967.3132692	40	7588970.5069236	7588970.5074513	100	na	7588971.1137123	nan	nan	nan	nan	nan
1239.49853515625	0.0	40	2538493	90	70	40	0	1	7588963.9393291	7588963.9397992	80	7588967.3127233	7588967.3132692	40	7588970.5069236	7588970.5074513	100	na	7588971.1137123	nan	nan	nan	nan	nan
1242.6923828125	0.0	100	2545034	90	70	40	0	1	7588963.9393291	7588963.9397992	80	7588967.3127233	7588967.3132692	40	7588970.5069236	7588970.5074513	100	na	7588971.1137123	nan	nan	nan	nan	nan
1246.0439453125	0.0	80	2551898	91	63	250	0	0	7588973.8585506	7588973.858985	80	7588977.0592238	7588977.0596733	40	7588980.4620508	7588980.4625872	100	del	7588981.3554002	nan	nan	nan	nan	nan
1249.24462890625	0.0	40	2558453	91	63	250	0	0	7588973.8585506	7588973.858985	80	7588977.0592238	7588977.0596733	40	7588980.4620508	7588980.4625872	100	del	7588981.3554002	nan	nan	nan	nan	nan
1252.6474609375	0.0	100	2565422	91	63	250	0	0	7588973.8585506	7588973.858985	80	7588977.0592238	7588977.0596733	40	7588980.4620508	7588980.4625872	100	del	7588981.3554002	nan	nan	nan	nan	nan
1256.42578125	0.0	80	2573160	92	70	120	0	0	7588984.2407307	7588984.2412104	80	7588987.4638224	7588987.4642883	40	7588990.823633	7588990.8241642	100	del	7588992.2980804	nan	nan	nan	nan	nan
1259.64892578125	0.0	40	2579761	92	70	120	0	0	7588984.2407307	7588984.2412104	80	7588987.4638224	7588987.4642883	40	7588990.823633	7588990.8241642	100	del	7588992.2980804	nan	nan	nan	nan	nan
1263.0087890625	0.0	100	2586642	92	70	120	0	0	7588984.2407307	7588984.2412104	80	7588987.4638224	7588987.4642883	40	7588990.823633	7588990.8241642	100	del	7588992.2980804	nan	nan	nan	nan	nan
1267.47509765625	0.0	80	2595789	93	100	1430	0	0	7588995.2901178	7588995.2906511	80	7588998.6898991	7588998.6902869	40	7589002.0555764	7589002.0560589	100	del	7589002.5465428	nan	nan	nan	nan	nan
1270.875	0.0	40	2602752	93	100	1430	0	0	7588995.2901178	7588995.2906511	80	7588998.6898991	7588998.6902869	40	7589002.0555764	7589002.0560589	100	del	7589002.5465428	nan	nan	nan	nan	nan
1274.240234375	0.0	100	2609644	93	100	1430	0	0	7588995.2901178	7588995.2906511	80	7588998.6898991	7588998.6902869	40	7589002.0555764	7589002.0560589	100	del	7589002.5465428	nan	nan	nan	nan	nan
1277.3037109375	0.0	80	2615918	94	93	365	1	0	7589005.1190243	7589005.119534	80	7589008.3215954	7589008.3221072	40	7589011.6329247	7589011.6335188	100	del	7589012.1058745	7589012.6163821	7589012.616754	120.0	3.0	7589013.858618
1280.50634765625	0.0	40	2622477	94	93	365	1	0	7589005.1190243	7589005.119534	80	7589008.3215954	7589008.3221072	40	7589011.6329247	7589011.6335188	100	del	7589012.1058745	7589012.6163821	7589012.616754	120.0	3.0	7589013.858618
1283.8173828125	0.0	100	2629258	94	93	365	1	0	7589005.1190243	7589005.119534	80	7589008.3215954	7589008.3221072	40	7589011.6329247	7589011.6335188	100	del	7589012.1058745	7589012.6163821	7589012.616754	120.0	3.0	7589013.858618
1284.80078125	0.0	120	2631272	94	93	365	1	0	7589005.1190243	7589005.119534	80	7589008.3215954	7589008.3221072	40	7589011.6329247	7589011.6335188	100	del	7589012.1058745	7589012.6163821	7589012.616754	120.0	3.0	7589013.858618
1288.2890625	0.0	80	2638416	95	53	250	0	0	7589016.1046695	7589016.105122	80	7589019.1374373	7589019.1378918	40	7589022.2656719	7589022.2660936	100	del	7589022.9386646	nan	nan	nan	nan	nan
1291.32177734375	0.0	40	2644627	95	53	250	0	0	7589016.1046695	7589016.105122	80	7589019.1374373	7589019.1378918	40	7589022.2656719	7589022.2660936	100	del	7589022.9386646	nan	nan	nan	nan	nan
1294.44970703125	0.0	100	2651033	95	53	250	0	0	7589016.1046695	7589016.105122	80	7589019.1374373	7589019.1378918	40	7589022.2656719	7589022.2660936	100	del	7589022.9386646	nan	nan	nan	nan	nan
1298.05712890625	0.0	80	2658421	96	60	90	1	1	7589025.8731093	7589025.8736961	80	7589028.8888494	7589028.8893251	40	7589032.3342811	7589032.3347182	100	del	7589033.4916493	7589034.0026968	7589034.0031316	120.0	3.0	7589035.2347861
1301.07275390625	0.0	40	2664597	96	60	90	1	1	7589025.8731093	7589025.8736961	80	7589028.8888494	7589028.8893251	40	7589032.3342811	7589032.3347182	100	del	7589033.4916493	7589034.0026968	7589034.0031316	120.0	3.0	7589035.2347861
1304.51806640625	0.0	100	2671653	96	60	90	1	1	7589025.8731093	7589025.8736961	80	7589028.8888494	7589028.8893251	40	7589032.3342811	7589032.3347182	100	del	7589033.4916493	7589034.0026968	7589034.0031316	120.0	3.0	7589035.2347861
1306.1865234375	0.0	120	2675070	96	60	90	1	1	7589025.8731093	7589025.8736961	80	7589028.8888494	7589028.8893251	40	7589032.3342811	7589032.3347182	100	del	7589033.4916493	7589034.0026968	7589034.0031316	120.0	3.0	7589035.2347861
1309.47265625	0.0	80	2681800	97	77	908	1	0	7589037.2889096	7589037.2894246	80	7589040.6311345	7589040.6316073	40	7589043.8951894	7589043.8956798	100	del	7589044.5943968	7589045.1076002	7589045.1081023	120.0	3.0	7589046.2580096
1312.81494140625	0.0	40	2688645	97	77	908	1	0	7589037.2889096	7589037.2894246	80	7589040.6311345	7589040.6316073	40	7589043.8951894	7589043.8956798	100	del	7589044.5943968	7589045.1076002	7589045.1081023	120.0	3.0	7589046.2580096
1316.07861328125	0.0	100	2695329	97	77	908	1	0	7589037.2889096	7589037.2894246	80	7589040.6311345	7589040.6316073	40	7589043.8951894	7589043.8956798	100	del	7589044.5943968	7589045.1076002	7589045.1081023	120.0	3.0	7589046.2580096
1317.291015625	0.0	120	2697812	97	77	908	1	0	7589037.2889096	7589037.2894246	80	7589040.6311345	7589040.6316073	40	7589043.8951894	7589043.8956798	100	del	7589044.5943968	7589045.1076002	7589045.1081023	120.0	3.0	7589046.2580096
1320.56689453125	0.0	80	2704521	98	63	14	1	1	7589048.3831359	7589048.3836487	80	7589051.6766778	7589051.6771436	40	7589054.7510473	7589054.7515245	100	imm	7589055.0984758	7589055.6117807	7589055.612252	120.0	3.0	7589056.642317
1323.85986328125	0.0	40	2711265	98	63	14	1	1	7589048.3831359	7589048.3836487	80	7589051.6766778	7589051.6771436	40	7589054.7510473	7589054.7515245	100	imm	7589055.0984758	7589055.6117807	7589055.612252	120.0	3.0	7589056.642317
1326.9345703125	0.0	100	2717562	98	63	14	1	1	7589048.3831359	7589048.3836487	80	7589051.6766778	7589051.6771436	40	7589054.7510473	7589054.7515245	100	imm	7589055.0984758	7589055.6117807	7589055.612252	120.0	3.0	7589056.642317
1327.794921875	0.0	120	2719324	98	63	14	1	1	7589048.3831359	7589048.3836487	80	7589051.6766778	7589051.6771436	40	7589054.7510473	7589054.7515245	100	imm	7589055.0984758	7589055.6117807	7589055.612252	120.0	3.0	7589056.642317
1331.1767578125	0.0	80	2726250	99	53	40	0	1	7589058.9934175	7589058.9938905	80	7589062.3009078	7589062.3013948	40	7589065.3427869	7589065.3433059	100	del	7589066.6106402	nan	nan	nan	nan	nan
1334.48388671875	0.0	40	2733023	99	53	40	0	1	7589058.9934175	7589058.9938905	80	7589062.3009078	7589062.3013948	40	7589065.3427869	7589065.3433059	100	del	7589066.6106402	nan	nan	nan	nan	nan
1337.52587890625	0.0	100	2739253	99	53	40	0	1	7589058.9934175	7589058.9938905	80	7589062.3009078	7589062.3013948	40	7589065.3427869	7589065.3433059	100	del	7589066.6106402	nan	nan	nan	nan	nan
1341.33935546875	0.0	80	2747063	100	100	40	0	0	7589069.1565188	7589069.1570043	80	7589072.2405104	7589072.2409969	40	7589075.2648098	7589075.2652852	100	del	7589076.0417434	nan	nan	nan	nan	nan
1344.42333984375	0.0	40	2753379	100	100	40	0	0	7589069.1565188	7589069.1570043	80	7589072.2405104	7589072.2409969	40	7589075.2648098	7589075.2652852	100	del	7589076.0417434	nan	nan	nan	nan	nan
1347.44775390625	0.0	100	2759573	100	100	40	0	0	7589069.1565188	7589069.1570043	80	7589072.2405104	7589072.2409969	40	7589075.2648098	7589075.2652852	100	del	7589076.0417434	nan	nan	nan	nan	nan
1372.87890625	0.0	80	2811656	101	70	14	1	0	7589100.6967263	7589100.6971818	80	7589104.1208975	7589104.1214073	40	7589107.4423118	7589107.4428545	100	del	7589108.2743936	7589108.7876032	7589108.7880924	120.0	4.0	7589110.4516264
1376.302734375	0.0	40	2818668	101	70	14	1	0	7589100.6967263	7589100.6971818	80	7589104.1208975	7589104.1214073	40	7589107.4423118	7589107.4428545	100	del	7589108.2743936	7589108.7876032	7589108.7880924	120.0	4.0	7589110.4516264
1379.6240234375	0.0	100	2825470	101	70	14	1	0	7589100.6967263	7589100.6971818	80	7589104.1208975	7589104.1214073	40	7589107.4423118	7589107.4428545	100	del	7589108.2743936	7589108.7876032	7589108.7880924	120.0	4.0	7589110.4516264
1380.96923828125	0.0	120	2828225	101	70	14	1	0	7589100.6967263	7589100.6971818	80	7589104.1208975	7589104.1214073	40	7589107.4423118	7589107.4428545	100	del	7589108.2743936	7589108.7876032	7589108.7880924	120.0	4.0	7589110.4516264
1384.9150390625	0.0	80	2836306	102	57	90	1	1	7589112.7333367	7589112.7338296	80	7589116.1728143	7589116.1733021	40	7589119.2349414	7589119.2354782	100	del	7589120.2818652	7589120.7950712	7589120.7955886	120.0	3.0	7589121.977786
1388.3544921875	0.0	40	2843350	102	57	90	1	1	7589112.7333367	7589112.7338296	80	7589116.1728143	7589116.1733021	40	7589119.2349414	7589119.2354782	100	del	7589120.2818652	7589120.7950712	7589120.7955886	120.0	3.0	7589121.977786
1391.41650390625	0.0	100	2849621	102	57	90	1	1	7589112.7333367	7589112.7338296	80	7589116.1728143	7589116.1733021	40	7589119.2349414	7589119.2354782	100	del	7589120.2818652	7589120.7950712	7589120.7955886	120.0	3.0	7589121.977786
1392.9765625	0.0	120	2852816	102	57	90	1	1	7589112.7333367	7589112.7338296	80	7589116.1728143	7589116.1733021	40	7589119.2349414	7589119.2354782	100	del	7589120.2818652	7589120.7950712	7589120.7955886	120.0	3.0	7589121.977786
1396.62890625	0.0	80	2860296	103	80	250	0	1	7589124.447469	7589124.4479855	80	7589127.5116162	7589127.5121097	40	7589130.7837702	7589130.7842632	100	del	7589131.5302037	nan	nan	nan	nan	nan
1399.69287109375	0.0	40	2866571	103	80	250	0	1	7589124.447469	7589124.4479855	80	7589127.5116162	7589127.5121097	40	7589130.7837702	7589130.7842632	100	del	7589131.5302037	nan	nan	nan	nan	nan
1402.96484375	0.0	100	2873272	103	80	250	0	1	7589124.447469	7589124.4479855	80	7589127.5116162	7589127.5121097	40	7589130.7837702	7589130.7842632	100	del	7589131.5302037	nan	nan	nan	nan	nan
1406.30224609375	0.0	80	2880107	104	90	365	1	0	7589134.1208891	7589134.1213339	80	7589137.4081166	7589137.4085926	40	7589140.4234654	7589140.4238746	100	na	7589141.8836738	7589142.3981221	7589142.3986096	120.0	2.0	7589143.4587239
1409.58935546875	0.0	40	2886839	104	90	365	1	0	7589134.1208891	7589134.1213339	80	7589137.4081166	7589137.4085926	40	7589140.4234654	7589140.4238746	100	na	7589141.8836738	7589142.3981221	7589142.3986096	120.0	2.0	7589143.4587239
1412.6044921875	0.0	100	2893014	104	90	365	1	0	7589134.1208891	7589134.1213339	80	7589137.4081166	7589137.4085926	40	7589140.4234654	7589140.4238746	100	na	7589141.8836738	7589142.3981221	7589142.3986096	120.0	2.0	7589143.4587239
1414.5791015625	0.0	120	2897058	104	90	365	1	0	7589134.1208891	7589134.1213339	80	7589137.4081166	7589137.4085926	40	7589140.4234654	7589140.4238746	100	na	7589141.8836738	7589142.3981221	7589142.3986096	120.0	2.0	7589143.4587239
1418.0380859375	0.0	80	2904142	105	73	250	0	1	7589145.8573337	7589145.857894	80	7589149.2875757	7589149.287923	40	7589152.7594255	7589152.7599571	100	del	7589153.6745738	nan	nan	nan	nan	nan
1421.46826171875	0.0	40	2911167	105	73	250	0	1	7589145.8573337	7589145.857894	80	7589149.2875757	7589149.287923	40	7589152.7594255	7589152.7599571	100	del	7589153.6745738	nan	nan	nan	nan	nan
1424.93994140625	0.0	100	2918277	105	73	250	0	1	7589145.8573337	7589145.857894	80	7589149.2875757	7589149.287923	40	7589152.7594255	7589152.7599571	100	del	7589153.6745738	nan	nan	nan	nan	nan
1428.86767578125	0.0	80	2926321	106	87	160	1	0	7589156.6865346	7589156.6867724	80	7589159.9437546	7589159.9439872	40	7589163.086406	7589163.0866926	100	del	7589163.986355	7589164.496156	7589164.4962974	120.0	3.0	7589166.5546733
1432.12451171875	0.0	40	2932991	106	87	160	1	0	7589156.6865346	7589156.6867724	80	7589159.9437546	7589159.9439872	40	7589163.086406	7589163.0866926	100	del	7589163.986355	7589164.496156	7589164.4962974	120.0	3.0	7589166.5546733
1435.2666015625	0.0	100	2939426	106	87	160	1	0	7589156.6865346	7589156.6867724	80	7589159.9437546	7589159.9439872	40	7589163.086406	7589163.0866926	100	del	7589163.986355	7589164.496156	7589164.4962974	120.0	3.0	7589166.5546733
1436.6767578125	0.0	120	2942314	106	87	160	1	0	7589156.6865346	7589156.6867724	80	7589159.9437546	7589159.9439872	40	7589163.086406	7589163.0866926	100	del	7589163.986355	7589164.496156	7589164.4962974	120.0	3.0	7589166.5546733
1440.80078125	0.0	80	2950760	107	100	90	1	0	7589168.620603	7589168.6210429	80	7589171.8794025	7589171.879584	40	7589175.184942	7589175.1854455	100	imm	7589176.2901776	7589176.7995774	7589176.7999216	120.0	2.0	7589178.0184772
1444.0595703125	0.0	40	2957434	107	100	90	1	0	7589168.620603	7589168.6210429	80	7589171.8794025	7589171.879584	40	7589175.184942	7589175.1854455	100	imm	7589176.2901776	7589176.7995774	7589176.7999216	120.0	2.0	7589178.0184772
1447.36474609375	0.0	100	2964203	107	100	90	1	0	7589168.620603	7589168.6210429	80	7589171.8794025	7589171.879584	40	7589175.184942	7589175.1854455	100	imm	7589176.2901776	7589176.7995774	7589176.7999216	120.0	2.0	7589178.0184772
1448.9794921875	0.0	120	2967510	107	100	90	1	0	7589168.620603	7589168.6210429	80	7589171.8794025	7589171.879584	40	7589175.184942	7589175.1854455	100	imm	7589176.2901776	7589176.7995774	7589176.7999216	120.0	2.0	7589178.0184772
1452.595703125	0.0	80	2974916	108	70	580	0	0	7589180.4159176	7589180.4163473	80	7589183.4648605	7589183.4653534	40	7589186.8088955	7589186.8093796	100	del	7589187.5619349	nan	nan	nan	nan	nan
1455.64453125	0.0	40	2981160	108	70	580	0	0	7589180.4159176	7589180.4163473	80	7589183.4648605	7589183.4653534	40	7589186.8088955	7589186.8093796	100	del	7589187.5619349	nan	nan	nan	nan	nan
1458.98876953125	0.0	100	2988009	108	70	580	0	0	7589180.4159176	7589180.4163473	80	7589183.4648605	7589183.4653534	40	7589186.8088955	7589186.8093796	100	del	7589187.5619349	nan	nan	nan	nan	nan
1462.52294921875	0.0	80	2995247	109	83	365	1	0	7589190.3434735	7589190.3444652	80	7589193.437825	7589193.4382878	40	7589196.9205272	7589196.9211393	100	del	7589198.6182251	7589199.1304765	7589199.1309433	120.0	4.0	7589200.6022513
1465.6171875	0.0	40	3001584	109	83	365	1	0	7589190.3434735	7589190.3444652	80	7589193.437825	7589193.4382878	40	7589196.9205272	7589196.9211393	100	del	7589198.6182251	7589199.1304765	7589199.1309433	120.0	4.0	7589200.6022513
1469.10009765625	0.0	100	3008717	109	83	365	1	0	7589190.3434735	7589190.3444652	80	7589193.437825	7589193.4382878	40	7589196.9205272	7589196.9211393	100	del	7589198.6182251	7589199.1304765	7589199.1309433	120.0	4.0	7589200.6022513
1471.3095703125	0.0	120	3013242	109	83	365	1	0	7589190.3434735	7589190.3444652	80	7589193.437825	7589193.4382878	40	7589196.9205272	7589196.9211393	100	del	7589198.6182251	7589199.1304765	7589199.1309433	120.0	4.0	7589200.6022513
1475.0947265625	0.0	80	3020994	110	100	908	1	1	7589202.9152909	7589202.915783	80	7589206.1430792	7589206.1435407	40	7589209.6267579	7589209.6272349	100	del	7589210.3304451	7589210.8446248	7589210.8451572	120.0	2.0	7589211.5062753
1478.322265625	0.0	40	3027604	110	100	908	1	1	7589202.9152909	7589202.915783	80	7589206.1430792	7589206.1435407	40	7589209.6267579	7589209.6272349	100	del	7589210.3304451	7589210.8446248	7589210.8451572	120.0	2.0	7589211.5062753
1481.8056640625	0.0	100	3034738	110	100	908	1	1	7589202.9152909	7589202.915783	80	7589206.1430792	7589206.1435407	40	7589209.6267579	7589209.6272349	100	del	7589210.3304451	7589210.8446248	7589210.8451572	120.0	2.0	7589211.5062753
1483.0234375	0.0	120	3037232	110	100	908	1	1	7589202.9152909	7589202.915783	80	7589206.1430792	7589206.1435407	40	7589209.6267579	7589209.6272349	100	del	7589210.3304451	7589210.8446248	7589210.8451572	120.0	2.0	7589211.5062753
1486.0263671875	0.0	80	3043382	111	50	365	1	1	7589213.8473788	7589213.8477198	80	7589217.0798589	7589217.0801775	40	7589220.5135659	7589220.5140686	100	imm	7589220.8660882	7589221.3808769	7589221.3813919	120.0	3.0	7589221.7394603
1489.2587890625	0.0	40	3050002	111	50	365	1	1	7589213.8473788	7589213.8477198	80	7589217.0798589	7589217.0801775	40	7589220.5135659	7589220.5140686	100	imm	7589220.8660882	7589221.3808769	7589221.3813919	120.0	3.0	7589221.7394603
1492.6923828125	0.0	100	3057034	111	50	365	1	1	7589213.8473788	7589213.8477198	80	7589217.0798589	7589217.0801775	40	7589220.5135659	7589220.5140686	100	imm	7589220.8660882	7589221.3808769	7589221.3813919	120.0	3.0	7589221.7394603
1493.5595703125	0.0	120	3058810	111	50	365	1	1	7589213.8473788	7589213.8477198	80	7589217.0798589	7589217.0801775	40	7589220.5135659	7589220.5140686	100	imm	7589220.8660882	7589221.3808769	7589221.3813919	120.0	3.0	7589221.7394603
1496.19970703125	0.0	80	3064217	112	53	90	1	0	7589224.0211639	7589224.0216671	80	7589227.3057499	7589227.3062354	40	7589230.6588613	7589230.659353	100	del	7589231.5234853	7589232.0303824	7589232.0306155	120.0	2.0	7589232.7620714
1499.484375	0.0	40	3070944	112	53	90	1	0	7589224.0211639	7589224.0216671	80	7589227.3057499	7589227.3062354	40	7589230.6588613	7589230.659353	100	del	7589231.5234853	7589232.0303824	7589232.0306155	120.0	2.0	7589232.7620714
1502.83740234375	0.0	100	3077811	112	53	90	1	0	7589224.0211639	7589224.0216671	80	7589227.3057499	7589227.3062354	40	7589230.6588613	7589230.659353	100	del	7589231.5234853	7589232.0303824	7589232.0306155	120.0	2.0	7589232.7620714
1504.208984375	0.0	120	3080620	112	53	90	1	0	7589224.0211639	7589224.0216671	80	7589227.3057499	7589227.3062354	40	7589230.6588613	7589230.659353	100	del	7589231.5234853	7589232.0303824	7589232.0306155	120.0	2.0	7589232.7620714
1507.13818359375	0.0	80	3086619	113	80	40	0	0	7589234.9600031	7589234.9605249	80	7589238.0872922	7589238.0877563	40	7589241.3904118	7589241.390899	100	del	7589241.6983143	nan	nan	nan	nan	nan
1510.265625	0.0	40	3093024	113	80	40	0	0	7589234.9600031	7589234.9605249	80	7589238.0872922	7589238.0877563	40	7589241.3904118	7589241.390899	100	del	7589241.6983143	nan	nan	nan	nan	nan
1513.568359375	0.0	100	3099788	113	80	40	0	0	7589234.9600031	7589234.9605249	80	7589238.0872922	7589238.0877563	40	7589241.3904118	7589241.390899	100	del	7589241.6983143	nan	nan	nan	nan	nan
1516.82568359375	0.0	80	3106459	114	67	580	0	0	7589244.6477088	7589244.648187	80	7589247.8604477	7589247.8608532	40	7589250.9315183	7589250.9320362	100	del	7589251.3238722	nan	nan	nan	nan	nan
1520.03857421875	0.0	40	3113039	114	67	580	0	0	7589244.6477088	7589244.648187	80	7589247.8604477	7589247.8608532	40	7589250.9315183	7589250.9320362	100	del	7589251.3238722	nan	nan	nan	nan	nan
1523.109375	0.0	100	3119328	114	67	580	0	0	7589244.6477088	7589244.648187	80	7589247.8604477	7589247.8608532	40	7589250.9315183	7589250.9320362	100	del	7589251.3238722	nan	nan	nan	nan	nan
1526.24072265625	0.0	80	3125741	115	83	580	0	1	7589254.0628101	7589254.0632375	80	7589257.2208962	7589257.221449	40	7589260.435259	7589260.4357305	100	imm	7589262.0359072	nan	nan	nan	nan	nan
1529.3984375	0.0	40	3132208	115	83	580	0	1	7589254.0628101	7589254.0632375	80	7589257.2208962	7589257.221449	40	7589260.435259	7589260.4357305	100	imm	7589262.0359072	nan	nan	nan	nan	nan
1532.61279296875	0.0	100	3138791	115	83	580	0	1	7589254.0628101	7589254.0632375	80	7589257.2208962	7589257.221449	40	7589260.435259	7589260.4357305	100	imm	7589262.0359072	nan	nan	nan	nan	nan
1537.1474609375	0.0	80	3148078	116	87	14	1	0	7589264.9698615	7589264.97032	80	7589268.17972	7589268.1801293	40	7589271.3889249	7589271.389457	100	del	7589271.7145683	7589272.2275954	7589272.2280405	120.0	3.0	7589272.874312
1540.35693359375	0.0	40	3154651	116	87	14	1	0	7589264.9698615	7589264.97032	80	7589268.17972	7589268.1801293	40	7589271.3889249	7589271.389457	100	del	7589271.7145683	7589272.2275954	7589272.2280405	120.0	3.0	7589272.874312
1543.56640625	0.0	100	3161224	116	87	14	1	0	7589264.9698615	7589264.97032	80	7589268.17972	7589268.1801293	40	7589271.3889249	7589271.389457	100	del	7589271.7145683	7589272.2275954	7589272.2280405	120.0	3.0	7589272.874312
1544.40478515625	0.0	120	3162941	116	87	14	1	0	7589264.9698615	7589264.97032	80	7589268.17972	7589268.1801293	40	7589271.3889249	7589271.389457	100	del	7589271.7145683	7589272.2275954	7589272.2280405	120.0	3.0	7589272.874312
1547.248046875	0.0	80	3168764	117	67	90	1	0	7589275.0708802	7589275.0714289	80	7589278.1484727	7589278.1490077	40	7589281.2915645	7589281.2920886	100	na	7589281.2923537	7589281.8087816	7589281.809268	120.0	3.0	7589281.8095398
1550.32568359375	0.0	40	3175067	117	67	90	1	0	7589275.0708802	7589275.0714289	80	7589278.1484727	7589278.1490077	40	7589281.2915645	7589281.2920886	100	na	7589281.2923537	7589281.8087816	7589281.809268	120.0	3.0	7589281.8095398
1553.46875	0.0	100	3181504	117	67	90	1	0	7589275.0708802	7589275.0714289	80	7589278.1484727	7589278.1490077	40	7589281.2915645	7589281.2920886	100	na	7589281.2923537	7589281.8087816	7589281.809268	120.0	3.0	7589281.8095398
1553.98583984375	0.0	120	3182563	117	67	90	1	0	7589275.0708802	7589275.0714289	80	7589278.1484727	7589278.1490077	40	7589281.2915645	7589281.2920886	100	na	7589281.2923537	7589281.8087816	7589281.809268	120.0	3.0	7589281.8095398
1556.046875	0.0	80	3186784	118	93	160	1	1	7589283.870111	7589283.870628	80	7589287.0938197	7589287.0943531	40	7589290.2371229	7589290.2376135	100	imm	7589293.1301761	7589293.6422184	7589293.6426553	120.0	4.0	7589294.6422291
1559.27099609375	0.0	40	3193387	118	93	160	1	1	7589283.870111	7589283.870628	80	7589287.0938197	7589287.0943531	40	7589290.2371229	7589290.2376135	100	imm	7589293.1301761	7589293.6422184	7589293.6426553	120.0	4.0	7589294.6422291
1562.4140625	0.0	100	3199824	118	93	160	1	1	7589283.870111	7589283.870628	80	7589287.0938197	7589287.0943531	40	7589290.2371229	7589290.2376135	100	imm	7589293.1301761	7589293.6422184	7589293.6426553	120.0	4.0	7589294.6422291
1565.81884765625	0.0	120	3206797	118	93	160	1	1	7589283.870111	7589283.870628	80	7589287.0938197	7589287.0943531	40	7589290.2371229	7589290.2376135	100	imm	7589293.1301761	7589293.6422184	7589293.6426553	120.0	4.0	7589294.6422291
1568.9833984375	0.0	80	3213278	119	77	250	0	0	7589296.8065513	7589296.8070818	80	7589300.0274302	7589300.0279306	40	7589303.1006301	7589303.1011525	100	na	7589304.9387717	nan	nan	nan	nan	nan
1572.2041015625	0.0	40	3219874	119	77	250	0	0	7589296.8065513	7589296.8070818	80	7589300.0274302	7589300.0279306	40	7589303.1006301	7589303.1011525	100	na	7589304.9387717	nan	nan	nan	nan	nan
1575.27734375	0.0	100	3226168	119	77	250	0	0	7589296.8065513	7589296.8070818	80	7589300.0274302	7589300.0279306	40	7589303.1006301	7589303.1011525	100	na	7589304.9387717	nan	nan	nan	nan	nan
1579.88134765625	0.0	80	3235597	120	100	365	1	0	7589307.7052058	7589307.7056723	80	7589311.0661342	7589311.066629	40	7589314.2012388	7589314.2017284	100	na	7589315.0909166	7589315.6038663	7589315.6043762	120.0	3.0	7589317.1147359
1583.2421875	0.0	40	3242480	120	100	365	1	0	7589307.7052058	7589307.7056723	80	7589311.0661342	7589311.066629	40	7589314.2012388	7589314.2017284	100	na	7589315.0909166	7589315.6038663	7589315.6043762	120.0	3.0	7589317.1147359
1586.37744140625	0.0	100	3248901	120	100	365	1	0	7589307.7052058	7589307.7056723	80	7589311.0661342	7589311.066629	40	7589314.2012388	7589314.2017284	100	na	7589315.0909166	7589315.6038663	7589315.6043762	120.0	3.0	7589317.1147359
1587.77978515625	0.0	120	3251773	120	100	365	1	0	7589307.7052058	7589307.7056723	80	7589311.0661342	7589311.066629	40	7589314.2012388	7589314.2017284	100	na	7589315.0909166	7589315.6038663	7589315.6043762	120.0	3.0	7589317.1147359
1619.3779296875	0.0	80	3316486	121	77	580	0	1	7589347.2026737	7589347.2032496	80	7589350.2476954	7589350.2481683	40	7589353.4561316	7589353.4565792	100	imm	7589353.4567892	nan	nan	nan	nan	nan
1622.4228515625	0.0	40	3322722	121	77	580	0	1	7589347.2026737	7589347.2032496	80	7589350.2476954	7589350.2481683	40	7589353.4561316	7589353.4565792	100	imm	7589353.4567892	nan	nan	nan	nan	nan
1625.63134765625	0.0	100	3329293	121	77	580	0	1	7589347.2026737	7589347.2032496	80	7589350.2476954	7589350.2481683	40	7589353.4561316	7589353.4565792	100	imm	7589353.4567892	nan	nan	nan	nan	nan
1628.15966796875	0.0	80	3334471	122	63	1430	0	1	7589355.9848403	7589355.9852414	80	7589359.1028965	7589359.1035647	40	7589362.116414	7589362.1168971	100	na	7589363.6275001	nan	nan	nan	nan	nan
1631.27783203125	0.0	40	3340857	122	63	1430	0	1	7589355.9848403	7589355.9852414	80	7589359.1028965	7589359.1035647	40	7589362.116414	7589362.1168971	100	na	7589363.6275001	nan	nan	nan	nan	nan
1634.291015625	0.0	100	3347028	122	63	1430	0	1	7589355.9848403	7589355.9852414	80	7589359.1028965	7589359.1035647	40	7589362.116414	7589362.1168971	100	na	7589363.6275001	nan	nan	nan	nan	nan
1638.4150390625	0.0	80	3355474	123	70	365	1	0	7589366.2404949	7589366.2409825	80	7589369.3193712	7589369.3198771	40	7589372.4668184	7589372.4674563	100	imm	7589372.6907165	7589373.2034559	7589373.2039258	120.0	2.0	7589374.1001121
1641.494140625	0.0	40	3361780	123	70	365	1	0	7589366.2404949	7589366.2409825	80	7589369.3193712	7589369.3198771	40	7589372.4668184	7589372.4674563	100	imm	7589372.6907165	7589373.2034559	7589373.2039258	120.0	2.0	7589374.1001121
1644.6416015625	0.0	100	3368226	123	70	365	1	0	7589366.2404949	7589366.2409825	80	7589369.3193712	7589369.3198771	40	7589372.4668184	7589372.4674563	100	imm	7589372.6907165	7589373.2034559	7589373.2039258	120.0	2.0	7589374.1001121
1645.3779296875	0.0	120	3369734	123	70	365	1	0	7589366.2404949	7589366.2409825	80	7589369.3193712	7589369.3198771	40	7589372.4668184	7589372.4674563	100	imm	7589372.6907165	7589373.2034559	7589373.2039258	120.0	2.0	7589374.1001121
1648.3779296875	0.0	80	3375878	124	100	120	0	0	7589376.2033541	7589376.2038603	80	7589379.2801332	7589379.2806086	40	7589382.5951148	7589382.5956494	100	del	7589383.2995713	nan	nan	nan	nan	nan
1651.45458984375	0.0	40	3382179	124	100	120	0	0	7589376.2033541	7589376.2038603	80	7589379.2801332	7589379.2806086	40	7589382.5951148	7589382.5956494	100	del	7589383.2995713	nan	nan	nan	nan	nan
1654.76953125	0.0	100	3388968	124	100	120	0	0	7589376.2033541	7589376.2038603	80	7589379.2801332	7589379.2806086	40	7589382.5951148	7589382.5956494	100	del	7589383.2995713	nan	nan	nan	nan	nan
1658.44140625	0.0	80	3396488	125	50	14	1	0	7589386.267432	7589386.2679186	80	7589389.7448623	7589389.7453693	40	7589392.8694872	7589392.8699955	100	del	7589395.1385893	7589395.6512437	7589395.6516915	120.0	4.0	7589396.6822308
1661.9189453125	0.0	40	3403610	125	50	14	1	0	7589386.267432	7589386.2679186	80	7589389.7448623	7589389.7453693	40	7589392.8694872	7589392.8699955	100	del	7589395.1385893	7589395.6512437	7589395.6516915	120.0	4.0	7589396.6822308
1665.04345703125	0.0	100	3410009	125	50	14	1	0	7589386.267432	7589386.2679186	80	7589389.7448623	7589389.7453693	40	7589392.8694872	7589392.8699955	100	del	7589395.1385893	7589395.6512437	7589395.6516915	120.0	4.0	7589396.6822308
1667.8251953125	0.0	120	3415706	125	50	14	1	0	7589386.267432	7589386.2679186	80	7589389.7448623	7589389.7453693	40	7589392.8694872	7589392.8699955	100	del	7589395.1385893	7589395.6512437	7589395.6516915	120.0	4.0	7589396.6822308
1671.11376953125	0.0	80	3422441	126	63	120	0	0	7589398.9400472	7589398.9405702	80	7589402.1358545	7589402.1363424	40	7589405.4109283	7589405.4113484	100	del	7589406.7948542	nan	nan	nan	nan	nan
1674.3095703125	0.0	40	3428986	126	63	120	0	0	7589398.9400472	7589398.9405702	80	7589402.1358545	7589402.1363424	40	7589405.4109283	7589405.4113484	100	del	7589406.7948542	nan	nan	nan	nan	nan
1677.58447265625	0.0	100	3435693	126	63	120	0	0	7589398.9400472	7589398.9405702	80	7589402.1358545	7589402.1363424	40	7589405.4109283	7589405.4113484	100	del	7589406.7948542	nan	nan	nan	nan	nan
1681.61767578125	0.0	80	3443953	127	90	120	0	0	7589409.4442925	7589409.4447317	80	7589412.4854462	7589412.4858264	40	7589415.7167477	7589415.7172472	100	del	7589416.6023955	nan	nan	nan	nan	nan
1684.65869140625	0.0	40	3450181	127	90	120	0	0	7589409.4442925	7589409.4447317	80	7589412.4854462	7589412.4858264	40	7589415.7167477	7589415.7172472	100	del	7589416.6023955	nan	nan	nan	nan	nan
1687.89013671875	0.0	100	3456799	127	90	120	0	0	7589409.4442925	7589409.4447317	80	7589412.4854462	7589412.4858264	40	7589415.7167477	7589415.7172472	100	del	7589416.6023955	nan	nan	nan	nan	nan
1691.3818359375	0.0	80	3463950	128	83	90	1	1	7589419.208624	7589419.2091855	80	7589422.2299031	7589422.2303787	40	7589425.720906	7589425.7214113	100	del	7589427.8345799	7589428.3494451	7589428.3499628	120.0	2.0	7589429.1543958
1694.40283203125	0.0	40	3470137	128	83	90	1	1	7589419.208624	7589419.2091855	80	7589422.2299031	7589422.2303787	40	7589425.720906	7589425.7214113	100	del	7589427.8345799	7589428.3494451	7589428.3499628	120.0	2.0	7589429.1543958
1697.89404296875	0.0	100	3477287	128	83	90	1	1	7589419.208624	7589419.2091855	80	7589422.2299031	7589422.2303787	40	7589425.720906	7589425.7214113	100	del	7589427.8345799	7589428.3494451	7589428.3499628	120.0	2.0	7589429.1543958
1700.5224609375	0.0	120	3482670	128	83	90	1	1	7589419.208624	7589419.2091855	80	7589422.2299031	7589422.2303787	40	7589425.720906	7589425.7214113	100	del	7589427.8345799	7589428.3494451	7589428.3499628	120.0	2.0	7589429.1543958
1703.55712890625	0.0	80	3488885	129	87	1430	0	0	7589431.3841678	7589431.3846637	80	7589434.8723905	7589434.8728675	40	7589438.2668988	7589438.2673892	100	del	7589439.6182255	nan	nan	nan	nan	nan
1707.044921875	0.0	40	3496028	129	87	1430	0	0	7589431.3841678	7589431.3846637	80	7589434.8723905	7589434.8728675	40	7589438.2668988	7589438.2673892	100	del	7589439.6182255	nan	nan	nan	nan	nan
1710.439453125	0.0	100	3502980	129	87	1430	0	0	7589431.3841678	7589431.3846637	80	7589434.8723905	7589434.8728675	40	7589438.2668988	7589438.2673892	100	del	7589439.6182255	nan	nan	nan	nan	nan
1714.3125	0.0	80	3510912	130	67	120	0	0	7589442.1400526	7589442.1404618	80	7589445.4878431	7589445.4883066	40	7589448.8543603	7589448.8548674	100	del	7589449.8503315	nan	nan	nan	nan	nan
1717.66015625	0.0	40	3517768	130	67	120	0	0	7589442.1400526	7589442.1404618	80	7589445.4878431	7589445.4883066	40	7589448.8543603	7589448.8548674	100	del	7589449.8503315	nan	nan	nan	nan	nan
1721.02685546875	0.0	100	3524663	130	67	120	0	0	7589442.1400526	7589442.1404618	80	7589445.4878431	7589445.4883066	40	7589448.8543603	7589448.8548674	100	del	7589449.8503315	nan	nan	nan	nan	nan
1724.86279296875	0.0	80	3532519	131	97	580	0	0	7589452.6905156	7589452.6910578	80	7589455.9748616	7589455.9753035	40	7589459.0971257	7589459.0976276	100	del	7589460.8265328	nan	nan	nan	nan	nan
1728.14697265625	0.0	40	3539245	131	97	580	0	0	7589452.6905156	7589452.6910578	80	7589455.9748616	7589455.9753035	40	7589459.0971257	7589459.0976276	100	del	7589460.8265328	nan	nan	nan	nan	nan
1731.26904296875	0.0	100	3545639	131	97	580	0	0	7589452.6905156	7589452.6910578	80	7589455.9748616	7589455.9753035	40	7589459.0971257	7589459.0976276	100	del	7589460.8265328	nan	nan	nan	nan	nan
1735.90234375	0.0	80	3555128	132	83	40	0	1	7589463.7304004	7589463.7309064	80	7589466.8519515	7589466.8524697	40	7589470.0506521	7589470.0512189	100	na	7589471.9070046	nan	nan	nan	nan	nan
1739.02392578125	0.0	40	3561521	132	83	40	0	1	7589463.7304004	7589463.7309064	80	7589466.8519515	7589466.8524697	40	7589470.0506521	7589470.0512189	100	na	7589471.9070046	nan	nan	nan	nan	nan
1742.22265625	0.0	100	3568072	132	83	40	0	1	7589463.7304004	7589463.7309064	80	7589466.8519515	7589466.8524697	40	7589470.0506521	7589470.0512189	100	na	7589471.9070046	nan	nan	nan	nan	nan
1747.04443359375	0.0	80	3577947	133	73	580	0	1	7589474.8729056	7589474.8733504	80	7589478.3088124	7589478.3092858	40	7589481.5231091	7589481.5236303	100	imm	7589482.3711811	nan	nan	nan	nan	nan
1750.48046875	0.0	40	3584984	133	73	580	0	1	7589474.8729056	7589474.8733504	80	7589478.3088124	7589478.3092858	40	7589481.5231091	7589481.5236303	100	imm	7589482.3711811	nan	nan	nan	nan	nan
1753.69482421875	0.0	100	3591567	133	73	580	0	1	7589474.8729056	7589474.8733504	80	7589478.3088124	7589478.3092858	40	7589481.5231091	7589481.5236303	100	imm	7589482.3711811	nan	nan	nan	nan	nan
1757.2177734375	0.0	80	3598782	134	50	40	0	1	7589485.0463793	7589485.0467886	80	7589488.3589816	7589488.3594657	40	7589491.8274725	7589491.8279669	100	del	7589494.3944716	nan	nan	nan	nan	nan
1760.5302734375	0.0	40	3605566	134	50	40	0	1	7589485.0463793	7589485.0467886	80	7589488.3589816	7589488.3594657	40	7589491.8274725	7589491.8279669	100	del	7589494.3944716	nan	nan	nan	nan	nan
